timestamp,acc_x,acc_y,acc_z,rot_x,rot_y,rot_z,qfe,temp
4545536,-0.04,-0.07,0.97,2.38,3.91,-0.12,872.44,32.85
4545574,-0.04,-0.06,0.97,2.56,4.76,-0.12,872.48,32.85
4545612,-0.04,-0.07,0.93,2.62,4.52,-0.24,872.45,32.85
4545651,-0.05,-0.07,0.93,2.69,4.46,-0.24,872.4,32.85
4545689,-0.05,-0.07,0.89,2.81,4.94,-0.18,872.39,32.85
4545727,-0.04,-0.07,0.93,2.87,4.58,-0.37,872.43,32.87
4545765,-0.04,-0.07,0.91,2.99,5.8,-0.31,872.4,32.86
4545815,-0.04,-0.07,0.95,2.99,5.31,-0.24,872.38,32.85
4545853,-0.03,-0.08,0.95,2.87,6.47,-0.37,872.39,32.86
4545891,-0.05,-0.06,0.97,2.62,5.31,-0.24,872.37,32.87
4545929,-0.04,-0.06,0.99,2.93,5.74,-0.31,872.4,32.87
4545967,-0.04,-0.07,0.95,2.5,5.43,-0.49,872.4,32.86
4546005,-0.04,-0.07,0.98,2.26,4.88,-0.37,872.4,32.86
4546043,-0.03,-0.08,0.92,2.08,4.76,-0.37,872.37,32.87
4546082,-0.04,-0.06,0.92,1.83,4.33,-0.43,872.37,32.88
4546120,-0.04,-0.07,0.89,1.65,4.39,-0.31,872.35,32.87
4546169,-0.05,-0.07,0.9,1.53,3.05,-0.31,872.37,32.86
4546208,-0.03,-0.08,0.88,1.53,3.23,-0.24,872.38,32.87
4546246,-0.04,-0.07,0.87,1.34,2.62,-0.24,872.32,32.88
4546284,-0.04,-0.07,0.9,1.46,2.75,-0.31,872.37,32.89
4546322,-0.04,-0.07,0.89,1.28,2.93,-0.31,872.33,32.88
4546360,-0.05,-0.06,0.97,1.22,2.2,-0.31,872.28,32.87
4546398,-0.06,-0.07,0.98,1.04,2.01,-0.24,872.28,32.89
4546436,-0.04,-0.05,1.06,0.49,1.1,-0.24,872.22,32.87
4546474,-0.03,-0.05,1.1,0.61,2.2,-0.37,872.27,32.89
4546513,-0.06,-0.07,1.1,0.73,2.01,-0.49,872.25,32.87
4546562,-0.04,-0.06,1.15,0.98,2.99,-0.37,872.32,32.87
4546600,-0.04,-0.07,1.12,1.46,4.03,-0.61,872.22,32.86
4546639,-0.04,-0.06,1.06,1.59,4.09,-0.55,872.28,32.86
4546677,-0.05,-0.06,1.08,1.53,3.72,-0.49,872.29,32.86
4546715,-0.06,-0.07,1.01,1.83,4.64,-0.73,872.24,32.86
4546753,-0.05,-0.06,1.07,1.77,4.88,-0.92,872.26,32.86
4546791,-0.03,-0.07,1.03,1.95,5.74,-0.85,872.23,32.87
4546829,-0.05,-0.06,1.05,2.01,5.19,-0.79,872.21,32.87
4546867,-0.06,-0.06,1.05,2.14,6.53,-1.1,872.26,32.85
4546917,-0.04,-0.07,1.04,1.89,7.45,-0.98,872.25,32.84
4546955,-0.04,-0.07,1.03,2.01,7.08,-0.98,872.21,32.86
4546994,-0.06,-0.06,1.0,2.01,6.47,-1.1,872.22,32.87
4547032,-0.07,-0.07,0.96,1.71,7.39,-0.92,872.16,32.86
4547070,-0.06,-0.06,0.94,1.4,5.19,-0.85,872.13,32.86
4547108,-0.09,-0.07,0.91,1.34,5.98,-0.73,872.16,32.85
4547146,-0.07,-0.07,0.93,0.98,4.39,-0.49,872.2,32.87
4547184,-0.06,-0.06,0.98,0.55,4.03,-0.49,872.13,32.85
4547222,-0.08,-0.07,0.95,0.49,3.66,-0.43,872.14,32.85
4547261,-0.08,-0.07,0.97,0.31,3.17,-0.37,872.15,32.86
4547310,-0.08,-0.07,0.93,0.24,4.21,-0.18,872.12,32.83
4547349,-0.06,-0.06,0.98,0.18,3.66,-0.06,872.12,32.83
4547387,-0.08,-0.06,0.96,0.55,3.54,0.24,872.19,32.86
4547425,-0.06,-0.07,1.0,0.61,2.5,0.24,872.08,32.85
4547463,-0.06,-0.07,1.0,0.85,2.5,0.43,872.12,32.85
4547501,-0.06,-0.07,0.98,0.43,1.04,0.85,872.08,32.85
4547539,-0.06,-0.07,1.0,0.18,0.49,0.79,872.08,32.85
4547578,-0.06,-0.06,1.02,-0.06,-0.12,0.92,872.08,32.83
4547616,-0.06,-0.06,1.04,-0.12,0.73,1.34,872.04,32.83
4547691,-0.06,-0.05,1.09,0.18,1.95,0.98,872.06,32.8
4547730,-0.07,-0.05,1.1,0.67,3.6,1.04,872.09,32.82
4547768,-0.05,-0.06,1.13,1.46,6.16,1.46,872.03,32.81
4547857,-0.06,-0.04,1.1,2.93,11.78,1.4,871.96,32.79
4547895,-0.05,-0.05,1.08,3.54,13.18,1.53,871.93,32.81
4547933,-0.07,-0.06,1.09,3.85,14.53,1.59,871.9,32.81
4547972,-0.07,-0.06,1.08,4.21,16.05,1.83,871.97,32.82
4548010,-0.05,-0.06,1.11,4.7,16.36,1.95,871.91,32.83
4548048,-0.05,-0.06,1.07,4.94,17.4,2.5,871.89,32.83
4548086,-0.04,-0.05,1.04,4.88,17.82,2.81,871.93,32.83
4548136,-0.04,-0.07,1.0,5.31,19.04,3.05,871.93,32.8
4548174,-0.05,-0.08,0.94,4.88,19.47,3.17,871.87,32.81
4548212,-0.04,-0.05,0.94,4.94,19.35,3.48,871.89,32.83
4548250,-0.03,-0.07,0.93,4.58,19.84,3.6,871.81,32.83
4548289,-0.0,-0.08,0.91,3.85,19.96,3.85,871.84,32.84
4548327,-0.02,-0.07,0.91,3.36,19.23,4.09,871.84,32.83
4548365,-0.01,-0.08,0.91,2.81,19.59,4.09,871.77,32.83
4548403,-0.01,-0.07,0.88,2.08,18.68,4.15,871.86,32.83
4548441,-0.0,-0.07,0.93,1.59,17.15,4.39,871.85,32.83
4548491,0.02,-0.09,0.92,0.92,15.32,4.52,871.88,32.82
4548529,0.03,-0.08,1.0,0.18,14.59,4.39,871.87,32.81
4548567,0.02,-0.07,1.01,-0.06,13.43,4.33,871.88,32.81
4548605,0.01,-0.07,1.06,0.18,11.17,4.39,871.83,32.8
4548643,0.02,-0.08,1.05,0.31,11.35,4.21,871.87,32.81
4548682,0.01,-0.08,1.07,0.73,10.13,3.72,871.93,32.81
4548720,0.01,-0.07,1.04,1.04,10.13,3.54,871.89,32.81
4548758,0.02,-0.07,1.03,1.28,9.22,3.23,871.87,32.8
4548796,0.02,-0.07,1.04,1.28,9.64,2.81,871.87,32.8
4548834,0.02,-0.07,0.99,1.04,10.56,2.62,871.85,32.81
4548884,0.02,-0.07,1.01,0.73,10.99,2.26,871.8,32.79
4548922,0.03,-0.09,1.01,0.24,11.29,1.71,871.82,32.8
4548960,0.03,-0.06,1.02,-0.43,11.54,1.65,871.77,32.8
4548998,0.02,-0.07,1.03,-0.49,12.76,1.04,871.71,32.79
4549036,0.02,-0.07,1.07,-0.67,11.78,0.79,871.71,32.8
4549075,0.03,-0.07,1.12,-0.73,13.06,0.43,871.7,32.81
4549113,0.03,-0.07,1.11,-0.43,13.79,0.31,871.69,32.83
4549151,0.04,-0.08,1.1,-0.43,14.47,-0.24,871.7,32.82
4549189,0.04,-0.08,1.1,-0.61,13.55,-0.31,871.63,32.81
4549239,0.04,-0.06,1.13,-0.37,13.73,-0.49,871.68,32.8
4549277,0.05,-0.07,1.07,-0.85,14.1,-0.61,871.64,32.8
4549315,0.03,-0.07,1.12,-1.04,13.43,-0.92,871.63,32.8
4549354,0.04,-0.07,1.1,-1.1,13.31,-1.1,871.66,32.8
4549392,0.03,-0.07,1.11,-1.34,13.18,-1.4,871.69,32.8
4549430,0.04,-0.07,1.12,-1.34,13.0,-1.59,871.71,32.79
4549468,0.03,-0.07,1.12,-1.46,12.51,-1.77,871.69,32.82
4549506,0.05,-0.06,1.13,-1.77,12.63,-1.89,871.64,32.81
4549544,0.05,-0.07,1.13,-2.14,12.88,-2.26,871.61,32.8
4549582,0.05,-0.05,1.16,-2.26,11.84,-2.56,871.61,32.8
4549632,0.05,-0.07,1.18,-2.62,12.39,-2.87,871.66,32.82
4549670,0.04,-0.06,1.21,-2.69,11.84,-3.3,871.57,32.81
4549709,0.03,-0.06,1.2,-2.75,12.45,-3.6,871.64,32.81
4549747,0.05,-0.06,1.17,-2.75,13.0,-3.72,871.54,32.81
4549785,0.04,-0.06,1.17,-2.75,13.43,-4.27,871.59,32.8
4549823,0.04,-0.06,1.14,-2.62,14.1,-4.52,871.62,32.82
4549861,0.06,-0.06,1.15,-2.69,14.4,-4.76,871.6,32.81
4549899,0.05,-0.06,1.14,-2.5,14.47,-5.0,871.56,32.81
4549938,0.05,-0.07,1.12,-2.56,14.22,-5.43,871.55,32.81
4549988,0.04,-0.07,1.1,-2.87,14.28,-5.92,871.59,32.82
4550026,0.07,-0.06,1.11,-2.62,12.76,-6.16,871.47,32.81
4550064,0.07,-0.06,1.06,-2.99,12.7,-6.53,871.53,32.81
4550102,0.06,-0.06,1.05,-3.23,11.05,-6.84,871.47,32.81
4550140,0.06,-0.06,1.06,-3.11,10.44,-7.32,871.45,32.82
4550178,0.06,-0.07,1.05,-3.36,9.34,-7.57,871.51,32.83
4550217,0.05,-0.07,1.06,-3.42,8.0,-8.18,871.44,32.83
4550255,0.05,-0.07,1.07,-3.11,7.51,-8.54,871.48,32.83
4550293,0.06,-0.06,1.05,-3.36,6.84,-9.09,871.43,32.83
4550343,0.05,-0.06,1.04,-3.36,6.65,-9.77,871.48,32.82
4550381,0.04,-0.06,1.02,-3.36,6.59,-10.13,871.48,32.81
4550419,0.04,-0.05,1.07,-3.42,6.35,-10.56,871.46,32.83
4550457,0.04,-0.06,1.07,-3.54,7.14,-10.99,871.39,32.83
4550495,0.03,-0.06,1.08,-3.54,7.2,-11.72,871.4,32.82
4550533,0.04,-0.06,1.11,-3.78,7.08,-12.15,871.41,32.82
4550572,0.03,-0.05,1.12,-4.03,7.08,-12.27,871.34,32.82
4550610,0.01,-0.05,1.09,-4.52,6.77,-12.39,871.39,32.81
4550648,-0.0,-0.05,1.03,-4.7,7.2,-12.82,871.37,32.81
4550686,0.0,-0.04,1.1,-4.88,6.65,-12.94,871.35,32.83
4550762,0.0,-0.04,1.14,-5.37,6.1,-13.43,871.32,32.79
4550800,-0.01,-0.03,1.19,-5.31,6.41,-13.73,871.3,32.79
4550838,0.01,-0.04,1.22,-5.68,6.41,-13.67,871.34,32.8
4550928,-0.04,-0.01,1.24,-5.74,6.29,-13.85,871.31,32.78
4550966,-0.03,-0.01,1.27,-5.86,6.23,-13.92,871.32,32.8
4551004,-0.03,0.0,1.3,-5.86,5.98,-14.16,871.27,32.79
4551042,-0.03,0.01,1.33,-5.98,5.74,-13.85,871.26,32.81
4551081,-0.03,-0.01,1.34,-5.86,6.29,-13.92,871.24,32.8
4551119,-0.03,0.0,1.37,-5.62,5.86,-13.73,871.23,32.81
4551169,-0.05,0.0,1.34,-5.31,5.98,-13.49,871.25,32.81
4551207,-0.04,-0.0,1.34,-5.37,5.43,-13.37,871.22,32.81
4551245,-0.04,-0.0,1.31,-5.0,5.37,-13.31,871.24,32.81
4551283,-0.05,0.01,1.3,-5.0,5.07,-13.06,871.12,32.8
4551321,-0.05,0.0,1.3,-5.0,5.74,-12.94,871.15,32.82
4551359,-0.05,-0.0,1.31,-4.82,6.04,-13.0,871.18,32.81
4551397,-0.05,-0.01,1.31,-5.0,6.29,-12.88,871.14,32.81
4551436,-0.05,-0.02,1.27,-4.94,6.84,-12.82,871.17,32.82
4551474,-0.06,0.0,1.25,-4.94,7.2,-12.7,871.15,32.81
4551523,-0.05,-0.0,1.24,-4.46,8.12,-12.63,871.11,32.81
4551562,-0.06,-0.0,1.22,-4.52,7.51,-12.45,871.09,32.82
4551600,-0.07,-0.0,1.25,-4.15,7.69,-11.96,871.1,32.82
4551638,-0.06,-0.02,1.21,-4.39,8.36,-12.02,871.04,32.83
4551676,-0.06,-0.0,1.24,-5.0,7.2,-11.9,871.07,32.83
4551714,-0.07,-0.0,1.24,-4.82,7.39,-11.23,870.97,32.84
4551752,-0.07,-0.02,1.21,-5.13,7.02,-11.29,871.02,32.85
4551790,-0.06,0.0,1.22,-5.19,6.71,-10.99,871.02,32.85
4551829,-0.07,-0.01,1.18,-5.37,5.98,-10.38,871.08,32.86
4551878,-0.08,-0.01,1.18,-5.49,5.37,-9.95,870.97,32.83
4551917,-0.07,-0.01,1.19,-5.43,5.19,-9.83,870.97,32.83
4551955,-0.08,-0.0,1.2,-5.49,4.58,-9.46,870.93,32.83
4551993,-0.07,-0.0,1.19,-5.55,4.15,-9.16,870.89,32.83
4552031,-0.08,-0.0,1.18,-5.62,3.48,-8.79,870.91,32.83
4552069,-0.07,-0.01,1.17,-5.68,2.81,-8.79,870.92,32.82
4552107,-0.08,0.0,1.16,-5.74,1.89,-8.24,870.91,32.83
4552145,-0.07,-0.01,1.13,-5.74,1.53,-7.93,870.87,32.81
4552184,-0.07,-0.01,1.1,-5.8,1.34,-7.63,870.94,32.83
4552222,-0.08,-0.01,1.1,-5.68,1.16,-7.51,870.9,32.83
4552272,-0.06,-0.02,1.06,-5.68,1.16,-7.2,870.83,32.8
4552310,-0.07,-0.02,1.05,-5.49,1.28,-7.14,870.85,32.83
4552348,-0.07,-0.01,1.09,-5.49,2.5,-6.96,870.86,32.83
4552386,-0.06,-0.0,1.12,-5.55,2.56,-7.02,870.79,32.81
4552424,-0.07,0.01,1.16,-5.62,3.23,-6.84,870.82,32.82
4552462,-0.07,0.01,1.23,-5.37,3.36,-6.9,870.79,32.8
4552501,-0.08,0.02,1.3,-5.19,4.94,-6.65,870.78,32.81
4552539,-0.05,0.02,1.33,-4.76,5.49,-6.53,870.76,32.81
4552577,-0.07,0.03,1.37,-4.21,6.41,-6.29,870.79,32.81
4552627,-0.07,0.02,1.33,-3.6,7.87,-5.92,870.8,32.8
4552665,-0.07,0.04,1.34,-3.17,8.0,-5.92,870.79,32.81
4552703,-0.06,0.02,1.32,-2.69,8.67,-5.74,870.86,32.81
4552741,-0.06,0.02,1.32,-2.5,8.67,-5.43,870.77,32.81
4552779,-0.06,0.02,1.3,-2.14,9.64,-5.13,870.79,32.82
4552817,-0.05,0.01,1.32,-1.65,9.7,-5.07,870.78,32.82
4552856,-0.04,0.02,1.3,-1.53,9.83,-5.0,870.8,32.81
4552894,-0.05,0.02,1.3,-1.22,10.44,-4.58,870.78,32.81
4552932,-0.05,0.01,1.28,-1.1,10.68,-4.64,870.76,32.81
4552982,-0.03,0.01,1.26,-1.1,10.62,-4.33,870.77,32.8
4553020,-0.03,0.01,1.25,-0.73,9.83,-4.15,870.79,32.82
4553058,-0.04,-0.0,1.22,-0.73,10.31,-4.03,870.74,32.82
4553096,-0.03,-0.01,1.23,-0.73,10.25,-3.85,870.81,32.82
4553134,-0.03,-0.01,1.23,-0.73,10.13,-3.72,870.73,32.81
4553172,-0.03,-0.01,1.19,-0.79,9.83,-3.66,870.77,32.82
4553210,-0.03,-0.02,1.17,-1.1,9.77,-3.54,870.72,32.82
4553249,-0.02,-0.02,1.14,-1.16,9.7,-3.48,870.74,32.82
4553287,-0.02,-0.02,1.13,-1.46,9.16,-3.3,870.75,32.82
4553325,-0.03,-0.03,1.1,-1.46,9.46,-3.23,870.67,32.82
4553375,-0.01,-0.03,1.09,-1.89,9.16,-3.11,870.7,32.81
4553413,-0.01,-0.04,1.08,-2.01,9.46,-3.17,870.73,32.82
4553451,-0.01,-0.04,1.06,-2.2,8.85,-3.23,870.74,32.82
4553489,-0.01,-0.03,1.05,-2.44,9.09,-3.17,870.75,32.81
4553527,-0.0,-0.03,1.04,-2.93,8.3,-3.36,870.72,32.81
4553565,-0.01,-0.04,1.07,-3.11,7.93,-3.3,870.67,32.82
4553603,-0.01,-0.05,1.04,-3.54,8.18,-3.36,870.62,32.83
4553642,-0.01,-0.03,1.1,-3.78,8.12,-3.54,870.63,32.82
4553680,0.01,-0.03,1.09,-3.91,8.24,-3.54,870.64,32.82
4553755,0.0,-0.03,1.16,-4.15,8.48,-3.6,870.63,32.78
4553794,0.0,-0.03,1.21,-4.27,8.18,-3.85,870.6,32.8
4553832,0.01,-0.01,1.22,-4.52,8.0,-4.03,870.53,32.8
4553921,0.02,-0.02,1.22,-4.58,7.32,-4.21,870.55,32.78
4553959,0.01,-0.02,1.21,-4.58,6.41,-4.21,870.57,32.8
4553997,0.0,-0.03,1.19,-4.64,5.74,-4.33,870.57,32.8
4554036,0.02,-0.03,1.17,-4.39,5.31,-4.39,870.6,32.8
4554074,0.0,-0.01,1.17,-4.46,4.46,-4.64,870.57,32.81
4554112,0.01,-0.03,1.16,-4.52,3.6,-4.76,870.55,32.8
4554162,0.01,-0.02,1.19,-4.46,2.69,-5.07,870.59,32.8
4554200,0.01,-0.03,1.19,-4.46,3.23,-5.0,870.57,32.81
4554238,0.02,-0.03,1.16,-4.7,2.99,-5.13,870.55,32.8
4554276,-0.0,-0.02,1.21,-4.52,2.44,-5.37,870.52,32.8
4554314,0.01,-0.03,1.17,-4.82,2.26,-5.49,870.51,32.8
4554352,0.01,-0.03,1.2,-5.07,2.69,-5.74,870.56,32.82
4554390,0.01,-0.03,1.17,-4.82,3.48,-6.1,870.58,32.81
4554429,0.01,-0.03,1.16,-4.82,2.62,-6.29,870.56,32.82
4554467,0.01,-0.03,1.14,-4.88,2.69,-6.47,870.56,32.81
4554505,0.01,-0.04,1.14,-4.82,1.95,-6.71,870.52,32.81
4554555,0.0,-0.05,1.15,-5.0,2.38,-6.59,870.5,32.78
4554593,0.01,-0.02,1.13,-5.25,0.55,-6.9,870.56,32.81
4554631,0.0,-0.02,1.16,-5.13,0.67,-7.02,870.5,32.8
4554669,0.01,-0.04,1.12,-5.31,0.31,-7.08,870.53,32.82
4554707,0.0,-0.03,1.18,-5.62,0.12,-7.2,870.49,32.81
4554745,-0.01,-0.04,1.13,-5.49,0.37,-7.2,870.56,32.82
4554783,-0.0,-0.03,1.15,-5.49,-0.49,-7.63,870.49,32.82
4554822,0.0,-0.02,1.15,-5.37,-0.49,-7.81,870.51,32.81
4554860,0.01,-0.04,1.11,-5.13,-0.85,-7.69,870.51,32.82
4554910,-0.0,-0.04,1.12,-5.13,0.06,-7.93,870.45,32.8
4554948,0.01,-0.03,1.12,-5.07,-0.12,-8.12,870.46,32.81
4554986,0.0,-0.03,1.14,-5.19,0.55,-8.3,870.48,32.82
4555024,0.01,-0.04,1.08,-5.07,0.37,-8.54,870.5,32.82
4555062,-0.03,-0.04,1.11,-5.07,1.22,-8.61,870.51,32.83
4555100,0.02,-0.04,1.06,-5.25,1.59,-8.91,870.54,32.82
4555138,-0.01,-0.02,1.09,-5.13,0.85,-9.09,870.51,32.81
4555176,0.0,-0.03,1.04,-5.07,1.59,-9.03,870.47,32.8
4555215,-0.01,-0.03,1.05,-5.19,1.04,-9.46,870.49,32.82
4555253,-0.01,-0.03,1.07,-4.94,1.16,-9.46,870.45,32.81
4555302,0.0,-0.03,1.06,-5.37,0.49,-9.7,870.45,32.8
4555341,0.0,-0.03,1.05,-5.49,1.16,-9.64,870.5,32.81
4555379,-0.0,-0.03,1.07,-5.55,1.28,-9.64,870.47,32.81
4555417,0.01,-0.03,1.09,-5.68,1.28,-9.95,870.48,32.8
4555455,-0.01,-0.03,1.1,-5.74,1.34,-9.95,870.48,32.82
4555493,-0.0,-0.03,1.1,-5.68,1.83,-10.13,870.45,32.81
4555531,0.0,-0.02,1.09,-5.74,1.46,-10.13,870.51,32.82
4555569,-0.0,-0.02,1.1,-5.68,1.28,-10.25,870.55,32.81
4555607,-0.0,-0.03,1.07,-5.68,1.59,-10.31,870.47,32.82
4555657,-0.01,-0.02,1.09,-5.62,2.44,-10.56,870.51,32.82
4555695,-0.02,-0.02,1.09,-5.37,2.69,-10.56,870.52,32.81
4555734,-0.02,-0.03,1.1,-5.31,2.93,-10.5,870.48,32.81
4555772,-0.02,-0.02,1.11,-5.49,3.54,-10.68,870.52,32.81
4555810,-0.01,-0.02,1.1,-5.49,3.72,-10.74,870.5,32.81
4555848,-0.01,-0.02,1.11,-5.43,3.91,-10.8,870.48,32.83
4555886,-0.01,-0.02,1.09,-5.62,3.91,-10.8,870.5,32.82
4555924,-0.01,-0.02,1.12,-5.62,4.09,-10.62,870.48,32.82
4555962,-0.02,-0.02,1.12,-5.98,3.17,-10.44,870.48,32.81
4556012,-0.03,-0.02,1.13,-5.98,3.23,-10.38,870.49,32.81
4556050,-0.01,-0.02,1.14,-5.98,2.99,-10.5,870.49,32.81
4556088,-0.01,-0.0,1.18,-6.35,2.38,-10.38,870.49,32.81
4556126,-0.03,-0.01,1.18,-6.47,1.83,-10.31,870.45,32.8
4556165,-0.03,-0.01,1.2,-6.41,2.14,-10.19,870.48,32.81
4556203,-0.01,-0.01,1.22,-6.59,2.99,-10.25,870.52,32.81
4556241,-0.02,0.0,1.21,-6.65,3.36,-10.38,870.51,32.8
4556279,-0.03,0.01,1.25,-6.65,3.3,-10.25,870.54,32.81
4556317,-0.02,0.0,1.27,-6.16,3.78,-10.31,870.55,32.8
4556367,-0.01,0.01,1.3,-6.35,4.33,-10.38,870.58,32.8
4556405,-0.03,0.01,1.33,-6.16,4.46,-10.25,870.51,32.8
4556443,-0.02,0.01,1.31,-5.86,4.52,-10.19,870.57,32.81
4556481,-0.02,0.02,1.3,-5.92,4.27,-10.25,870.56,32.8
4556520,-0.03,0.01,1.28,-5.86,4.15,-10.19,870.56,32.8
4556558,-0.03,0.01,1.27,-6.04,3.85,-9.89,870.62,32.8
4556596,-0.04,0.01,1.26,-6.23,3.91,-9.7,870.55,32.81
4556634,-0.05,0.01,1.26,-6.1,3.72,-9.46,870.61,32.81
4556672,-0.03,0.0,1.25,-6.23,4.03,-9.46,870.59,32.82
4556710,-0.02,0.01,1.28,-6.65,3.78,-9.64,870.55,32.82
4556787,-0.03,0.01,1.28,-6.53,4.33,-9.28,870.6,32.79
4556825,-0.03,0.01,1.28,-6.53,4.76,-9.4,870.57,32.8
4556864,-0.03,0.01,1.31,-6.41,4.7,-9.28,870.55,32.8
4556953,-0.02,0.03,1.37,-6.41,5.68,-9.28,870.56,32.76
4556991,-0.02,0.02,1.37,-6.47,5.55,-9.28,870.56,32.79
4557029,-0.03,0.02,1.38,-6.41,5.86,-8.97,870.56,32.8
4557068,-0.04,0.02,1.39,-5.8,5.68,-8.91,870.62,32.8
4557106,-0.04,0.02,1.37,-5.68,5.43,-8.73,870.6,32.8
4557144,-0.04,0.03,1.36,-5.37,4.76,-8.54,870.58,32.8
4557194,-0.03,0.02,1.35,-4.82,5.07,-8.36,870.58,32.8
4557232,-0.01,0.01,1.31,-4.58,4.94,-8.42,870.58,32.81
4557270,-0.04,0.02,1.29,-4.33,4.21,-8.3,870.64,32.81
4557308,-0.03,0.01,1.23,-4.39,4.21,-8.24,870.58,32.81
4557346,-0.03,0.01,1.25,-4.15,4.21,-8.3,870.62,32.81
4557384,-0.02,-0.0,1.24,-4.15,3.85,-8.18,870.68,32.82
4557422,-0.04,-0.01,1.25,-4.27,3.23,-8.0,870.65,32.81
4557461,-0.03,0.0,1.24,-4.46,3.48,-8.18,870.68,32.82
4557499,-0.03,0.01,1.23,-4.39,3.42,-8.06,870.67,32.81
4557537,-0.02,-0.0,1.24,-4.33,3.17,-7.93,870.67,32.82
4557587,-0.04,-0.01,1.25,-4.88,3.11,-7.75,870.64,32.8
4557625,-0.03,0.0,1.25,-4.64,3.42,-7.81,870.68,32.8
4557663,-0.02,0.01,1.27,-4.88,3.48,-7.81,870.65,32.8
4557701,-0.01,0.0,1.25,-4.82,4.09,-7.81,870.66,32.81
4557739,-0.03,0.01,1.28,-4.82,3.36,-7.93,870.59,32.81
4557777,-0.02,-0.0,1.28,-4.94,4.03,-7.75,870.66,32.81
4557815,-0.01,-0.0,1.27,-5.0,3.05,-7.69,870.64,32.81
4557854,-0.02,0.01,1.3,-5.13,2.87,-7.87,870.63,32.8
4557892,-0.01,-0.01,1.26,-5.07,2.56,-7.63,870.72,32.81
4557941,-0.02,-0.0,1.27,-5.19,1.89,-7.63,870.68,32.8
4557980,-0.02,-0.0,1.25,-5.31,1.1,-7.63,870.72,32.81
4558018,-0.01,-0.0,1.27,-5.19,0.92,-7.51,870.73,32.81
4558056,0.0,-0.01,1.25,-5.25,0.61,-7.63,870.74,32.81
4558094,-0.02,-0.01,1.25,-5.62,0.85,-7.69,870.73,32.81
4558132,-0.02,-0.0,1.27,-5.43,0.98,-8.06,870.67,32.81
4558170,-0.02,-0.01,1.3,-5.43,2.26,-8.24,870.67,32.8
4558208,-0.01,0.0,1.3,-5.62,2.69,-8.3,870.71,32.79
4558246,-0.03,0.0,1.31,-5.86,2.75,-8.42,870.75,32.79
4558296,-0.02,-0.01,1.31,-5.92,3.78,-8.61,870.77,32.8
4558334,-0.01,0.0,1.32,-6.1,3.11,-8.79,870.67,32.78
4558373,-0.02,0.01,1.32,-6.04,3.05,-8.91,870.76,32.79
4558411,-0.03,0.0,1.29,-6.16,3.54,-8.79,870.74,32.79
4558449,-0.02,0.01,1.33,-6.04,3.6,-9.09,870.7,32.8
4558487,-0.02,0.01,1.34,-5.98,3.17,-9.03,870.75,32.8
4558525,-0.03,0.0,1.32,-5.98,2.75,-9.09,870.79,32.8
4558563,-0.02,0.0,1.32,-5.86,2.26,-9.09,870.76,32.79
4558601,-0.03,-0.01,1.27,-5.98,1.95,-8.97,870.78,32.79
4558640,-0.03,-0.01,1.27,-5.8,1.46,-8.73,870.75,32.78
4558689,-0.02,-0.0,1.24,-5.98,0.12,-8.79,870.78,32.78
4558728,-0.03,0.01,1.29,-5.68,-0.43,-8.85,870.76,32.78
4558766,-0.04,-0.01,1.25,-5.8,-0.79,-8.85,870.77,32.79
4558804,-0.04,-0.0,1.29,-5.68,-0.61,-8.97,870.74,32.79
4558842,-0.02,0.0,1.3,-5.74,0.06,-9.03,870.73,32.8
4558880,-0.03,0.0,1.36,-5.62,-0.61,-8.91,870.71,32.8
4558918,-0.04,0.01,1.36,-5.49,-0.24,-9.09,870.76,32.81
4558957,-0.03,0.01,1.41,-5.55,-0.18,-9.16,870.74,32.8
4558995,-0.03,0.02,1.39,-5.55,-0.12,-8.91,870.7,32.8
4559044,-0.04,0.02,1.42,-5.43,-0.43,-8.91,870.69,32.78
4559083,-0.05,0.02,1.39,-5.31,0.18,-8.79,870.69,32.77
4559121,-0.03,0.03,1.47,-4.82,-0.55,-8.79,870.74,32.8
4559159,-0.02,0.01,1.44,-4.7,1.34,-8.91,870.67,32.77
4559197,-0.03,0.02,1.47,-4.58,1.95,-9.16,870.69,32.79
4559235,-0.05,0.02,1.44,-4.58,4.7,-9.52,870.68,32.79
4559273,-0.03,0.03,1.42,-5.0,4.39,-9.34,870.66,32.78
4559311,-0.02,0.04,1.49,-4.94,4.88,-9.77,870.7,32.8
4559350,-0.03,0.02,1.45,-5.0,5.86,-9.7,870.75,32.81
4559388,-0.03,0.03,1.5,-4.88,6.23,-9.58,870.68,32.79
4559438,-0.06,0.01,1.44,-4.15,7.45,-9.58,870.71,32.77
4559476,-0.06,0.02,1.45,-4.03,6.29,-9.34,870.69,32.8
4559514,-0.05,0.02,1.38,-3.85,6.41,-9.34,870.66,32.79
4559552,-0.05,0.01,1.36,-3.54,5.31,-9.09,870.66,32.79
4559590,-0.03,-0.01,1.28,-3.6,5.86,-9.09,870.67,32.8
4559628,-0.05,-0.0,1.27,-3.54,4.64,-9.03,870.66,32.78
4559667,-0.05,-0.0,1.25,-3.3,4.76,-8.79,870.64,32.8
4559705,-0.05,-0.0,1.24,-3.17,3.54,-8.85,870.65,32.8
4559743,-0.05,-0.02,1.27,-2.69,3.3,-8.97,870.6,32.8
4559819,-0.04,-0.01,1.25,-2.81,3.11,-8.85,870.65,32.79
4559857,-0.03,-0.01,1.22,-2.93,2.26,-8.91,870.61,32.78
4559895,-0.06,-0.01,1.2,-2.81,1.59,-8.85,870.6,32.78
4559984,-0.05,-0.01,1.17,-2.81,0.85,-8.79,870.58,32.74
4560023,-0.07,-0.01,1.13,-2.81,0.43,-8.61,870.6,32.76
4560061,-0.07,-0.02,1.13,-2.93,-0.37,-8.48,870.51,32.76
4560099,-0.06,-0.02,1.18,-2.87,-0.24,-8.54,870.58,32.77
4560137,-0.05,-0.03,1.12,-3.05,-0.85,-8.3,870.53,32.76
4560175,-0.07,-0.01,1.15,-3.36,-1.16,-8.12,870.58,32.77
4560225,-0.07,-0.03,1.08,-3.17,-0.49,-8.36,870.58,32.76
4560263,-0.06,-0.04,1.11,-3.3,-1.04,-8.24,870.53,32.76
4560301,-0.07,-0.04,1.05,-3.23,-0.92,-8.0,870.58,32.78
4560339,-0.07,-0.03,1.01,-3.3,-1.53,-8.0,870.59,32.79
4560378,-0.05,-0.02,1.02,-3.3,-1.53,-7.93,870.52,32.78
4560416,-0.06,-0.04,0.98,-3.54,-1.77,-7.81,870.5,32.76
4560454,-0.09,-0.04,1.02,-3.23,-2.01,-7.39,870.53,32.77
4560492,-0.07,-0.05,1.06,-3.54,-0.98,-7.51,870.55,32.78
4560530,-0.07,-0.03,1.08,-3.85,-1.16,-7.39,870.49,32.78
4560580,-0.07,-0.03,1.07,-3.78,-0.67,-7.14,870.49,32.77
4560618,-0.08,-0.04,1.07,-3.78,-0.79,-7.32,870.58,32.79
4560656,-0.07,-0.03,1.07,-3.72,-1.1,-7.14,870.57,32.78
4560694,-0.06,-0.03,1.04,-4.09,-1.59,-7.02,870.52,32.8
4560733,-0.09,-0.02,1.06,-4.03,-1.34,-6.59,870.5,32.79
4560771,-0.07,-0.03,1.1,-3.66,-0.55,-6.65,870.53,32.79
4560809,-0.07,-0.03,1.1,-3.72,-0.37,-6.84,870.53,32.77
4560847,-0.09,-0.03,1.14,-3.54,0.06,-6.65,870.52,32.78
4560885,-0.08,-0.03,1.16,-3.17,0.67,-6.71,870.53,32.78
4560923,-0.07,-0.01,1.21,-2.81,1.4,-6.71,870.47,32.76
4560973,-0.06,0.01,1.23,-2.69,1.83,-6.35,870.48,32.77
4561011,-0.07,0.01,1.27,-2.69,1.46,-6.41,870.47,32.78
4561050,-0.07,0.01,1.27,-2.81,1.59,-6.47,870.49,32.78
4561088,-0.07,0.01,1.3,-2.56,1.4,-6.1,870.47,32.77
4561126,-0.06,0.01,1.31,-2.44,1.77,-6.04,870.44,32.78
4561164,-0.06,0.02,1.31,-1.89,1.16,-5.92,870.45,32.76
4561202,-0.05,0.01,1.31,-1.34,1.4,-5.8,870.47,32.76
4561240,-0.06,-0.0,1.26,-1.04,1.77,-5.86,870.48,32.77
4561279,-0.06,0.0,1.26,-0.67,1.46,-5.92,870.44,32.76
4561329,-0.06,-0.01,1.17,-0.24,0.73,-5.74,870.42,32.74
4561367,-0.07,-0.01,1.15,0.0,1.22,-6.04,870.51,32.75
4561405,-0.06,-0.01,1.11,0.18,1.59,-5.86,870.5,32.75
4561443,-0.07,-0.01,1.14,0.55,0.37,-5.68,870.42,32.75
4561481,-0.07,-0.02,1.11,0.49,0.73,-5.68,870.49,32.75
4561519,-0.09,-0.03,1.1,0.55,0.67,-5.37,870.4,32.76
4561557,-0.08,-0.02,1.1,0.61,0.92,-5.43,870.42,32.77
4561596,-0.09,-0.03,1.08,0.67,1.71,-5.37,870.5,32.75
4561634,-0.06,-0.02,1.07,0.67,1.95,-5.25,870.49,32.76
4561684,-0.07,-0.03,1.03,0.37,2.2,-5.07,870.51,32.76
4561722,-0.07,-0.04,0.99,0.24,2.26,-4.82,870.49,32.75
4561760,-0.07,-0.03,0.99,-0.06,1.4,-4.7,870.46,32.76
4561798,-0.08,-0.03,0.98,0.12,1.83,-4.58,870.48,32.76
4561836,-0.06,-0.04,0.97,-0.12,1.28,-4.15,870.48,32.76
4561874,-0.06,-0.04,1.01,-0.12,0.61,-4.15,870.5,32.74
4561912,-0.05,-0.05,0.96,-0.37,1.77,-4.03,870.5,32.76
4561951,-0.06,-0.04,0.97,-0.37,1.71,-3.78,870.52,32.76
4561989,-0.06,-0.04,0.97,-0.24,1.83,-3.54,870.54,32.76
4562027,-0.06,-0.05,0.92,-0.55,1.89,-3.66,870.56,32.76
4562077,-0.06,-0.05,0.91,-0.49,2.62,-3.6,870.49,32.75
4562115,-0.05,-0.05,0.89,-0.73,3.05,-3.48,870.53,32.76
4562153,-0.05,-0.04,0.92,-0.73,2.99,-3.48,870.53,32.76
4562191,-0.05,-0.05,0.92,-0.79,3.6,-3.36,870.55,32.76
4562229,-0.05,-0.05,0.91,-0.85,3.23,-3.11,870.58,32.76
4562267,-0.05,-0.05,0.91,-0.92,3.91,-3.11,870.52,32.76
4562305,-0.06,-0.05,0.91,-0.61,4.09,-2.93,870.53,32.76
4562344,-0.05,-0.05,0.94,-0.67,4.46,-2.99,870.48,32.76
4562382,-0.05,-0.05,0.9,-0.67,5.62,-2.99,870.56,32.77
4562431,-0.05,-0.05,0.92,-1.04,6.1,-2.93,870.5,32.73
4562470,-0.04,-0.04,0.94,-1.16,7.14,-2.62,870.55,32.75
4562508,-0.04,-0.04,0.97,-1.46,7.32,-2.93,870.53,32.74
4562546,-0.04,-0.03,0.99,-1.46,8.61,-2.99,870.55,32.73
4562584,-0.05,-0.04,1.0,-1.28,8.73,-2.75,870.52,32.75
4562622,-0.03,-0.04,1.04,-0.92,10.13,-2.81,870.49,32.74
4562660,-0.03,-0.04,1.03,-0.85,11.6,-2.87,870.52,32.75
4562698,-0.03,-0.04,1.04,-0.18,12.15,-2.75,870.57,32.75
4562736,-0.03,-0.04,1.0,0.12,13.49,-2.44,870.51,32.74
4562812,-0.03,-0.04,1.02,0.43,13.79,-2.44,870.5,32.72
4562850,-0.01,-0.04,1.03,0.49,12.39,-2.26,870.48,32.74
4562888,-0.0,-0.04,1.06,0.37,12.45,-2.32,870.48,32.75
4562978,-0.01,-0.03,1.08,-0.31,10.25,-2.08,870.5,32.72
4563016,-0.01,-0.03,1.11,-0.55,8.42,-1.83,870.39,32.71
4563054,-0.0,-0.04,1.15,-0.98,7.87,-2.01,870.41,32.72
4563092,0.0,-0.02,1.18,-1.1,6.47,-1.83,870.39,32.73
4563131,0.0,-0.01,1.22,-1.1,5.19,-1.95,870.38,32.72
4563169,0.01,-0.0,1.23,-1.46,3.91,-2.08,870.38,32.72
4563207,-0.01,-0.01,1.27,-1.53,3.6,-1.89,870.34,32.75
4563257,-0.0,-0.03,1.22,-1.59,4.46,-2.14,870.37,32.73
4563295,-0.01,-0.02,1.22,-1.59,4.15,-2.5,870.38,32.74
4563333,-0.0,-0.02,1.2,-1.46,4.21,-2.69,870.35,32.73
4563371,-0.01,-0.01,1.19,-1.4,4.27,-2.87,870.38,32.75
4563409,0.01,-0.02,1.21,-1.46,3.97,-3.05,870.39,32.76
4563447,0.01,-0.03,1.2,-1.53,4.21,-3.05,870.4,32.75
4563485,-0.01,-0.03,1.22,-1.34,3.17,-3.11,870.41,32.75
4563523,-0.02,-0.02,1.21,-1.16,3.85,-3.3,870.38,32.76
4563562,-0.01,-0.02,1.21,-1.1,3.17,-3.3,870.41,32.76
4563611,0.0,-0.02,1.15,-1.22,2.56,-3.54,870.37,32.74
4563650,-0.02,-0.02,1.17,-1.22,3.23,-3.6,870.43,32.76
4563688,-0.0,-0.03,1.14,-1.28,3.72,-3.66,870.42,32.74
4563726,-0.02,-0.01,1.21,-1.28,3.72,-3.66,870.43,32.76
4563764,-0.03,-0.03,1.16,-1.1,3.54,-3.66,870.41,32.76
4563802,-0.01,-0.03,1.16,-1.59,3.66,-3.91,870.41,32.76
4563840,-0.0,-0.02,1.18,-1.53,4.46,-4.03,870.45,32.76
4563878,0.0,-0.02,1.15,-1.59,5.13,-4.21,870.38,32.76
4563916,0.0,-0.02,1.12,-1.77,4.7,-4.27,870.4,32.77
4563966,-0.03,-0.02,1.1,-1.71,5.31,-4.27,870.35,32.73
4564004,-0.02,-0.02,1.14,-1.77,5.07,-4.33,870.4,32.77
4564043,-0.02,-0.03,1.1,-1.83,5.62,-4.39,870.37,32.76
4564081,-0.01,-0.02,1.12,-2.08,4.82,-4.58,870.41,32.77
4564119,-0.01,-0.04,1.13,-2.08,6.59,-4.52,870.4,32.75
4564157,0.02,-0.06,1.07,-2.14,6.04,-4.39,870.38,32.76
4564195,-0.01,-0.03,1.09,-2.38,5.43,-4.46,870.39,32.76
4564233,-0.02,-0.04,1.02,-2.26,6.84,-4.39,870.42,32.76
4564272,-0.02,-0.04,1.0,-2.38,6.59,-4.58,870.44,32.76
4564310,-0.0,-0.04,1.09,-2.32,6.16,-4.7,870.4,32.76
4564359,0.01,-0.05,0.99,-2.44,5.74,-4.7,870.41,32.75
4564398,0.02,-0.03,1.08,-2.38,5.68,-4.64,870.33,32.76
4564436,0.01,-0.07,0.99,-2.38,6.96,-5.13,870.36,32.74
4564474,0.01,-0.04,1.06,-2.5,5.19,-5.25,870.37,32.76
4564512,0.02,-0.04,1.06,-2.56,7.75,-5.19,870.36,32.76
4564550,-0.0,-0.04,1.04,-2.38,6.29,-5.43,870.31,32.76
4564588,-0.01,-0.03,1.13,-2.44,5.86,-5.49,870.33,32.78
4564626,0.02,-0.06,1.08,-2.56,5.86,-5.62,870.31,32.76
4564665,0.03,-0.04,1.13,-2.87,6.23,-5.86,870.35,32.76
4564714,0.02,-0.03,1.12,-3.05,6.04,-5.98,870.31,32.75
4564753,-0.0,-0.02,1.14,-2.99,5.49,-6.1,870.25,32.75
4564791,0.01,-0.04,1.13,-2.99,5.62,-6.41,870.25,32.75
4564829,0.01,-0.03,1.16,-3.17,5.86,-6.53,870.27,32.76
4564867,0.01,-0.04,1.16,-3.05,6.04,-6.65,870.27,32.75
4564905,0.01,-0.03,1.17,-2.99,5.43,-6.77,870.3,32.75
4564943,0.01,-0.02,1.18,-2.99,6.16,-6.77,870.3,32.76
4564981,0.0,-0.02,1.16,-2.93,6.41,-7.08,870.24,32.76
4565020,0.0,-0.03,1.16,-3.05,6.53,-7.08,870.21,32.74
4565058,-0.01,-0.03,1.13,-3.23,7.14,-7.26,870.22,32.75
4565108,0.0,-0.04,1.12,-2.87,8.24,-7.57,870.3,32.75
4565146,0.02,-0.04,1.08,-2.93,8.12,-7.63,870.29,32.76
4565184,-0.0,-0.05,1.09,-2.62,8.54,-7.81,870.24,32.75
4565222,0.01,-0.06,1.03,-2.56,9.77,-7.81,870.27,32.76
4565260,0.0,-0.03,1.08,-2.56,8.24,-7.93,870.33,32.76
4565298,-0.0,-0.04,1.04,-2.56,8.91,-8.0,870.21,32.75
4565336,-0.01,-0.04,1.07,-3.11,8.73,-8.24,870.23,32.75
4565374,0.01,-0.04,1.11,-3.36,9.89,-8.48,870.22,32.74
4565413,0.0,-0.04,1.16,-3.54,9.46,-8.42,870.2,32.75
4565462,-0.01,-0.03,1.17,-3.3,9.64,-8.3,870.24,32.74
4565501,-0.01,-0.03,1.13,-3.36,9.4,-8.54,870.18,32.75
4565539,-0.02,-0.01,1.16,-3.6,9.22,-8.61,870.25,32.75
4565577,0.01,-0.03,1.14,-3.72,9.16,-8.42,870.14,32.75
4565615,-0.01,-0.03,1.18,-3.91,9.4,-8.48,870.24,32.76
4565653,-0.02,-0.03,1.13,-4.09,10.07,-8.48,870.25,32.76
4565691,0.01,-0.03,1.15,-4.15,8.79,-8.48,870.2,32.75
4565729,-0.0,-0.03,1.1,-4.27,8.48,-8.54,870.22,32.75
4565768,-0.01,-0.03,1.07,-4.46,8.0,-8.42,870.24,32.76
4565843,0.01,-0.04,1.06,-4.58,5.62,-8.48,870.23,32.74
4565882,0.0,-0.03,1.09,-4.64,3.54,-8.48,870.17,32.75
4565920,-0.02,-0.01,1.14,-4.88,1.83,-8.42,870.15,32.75
4566009,0.01,-0.03,1.24,-5.43,0.61,-8.24,870.18,32.73
4566048,-0.05,-0.01,1.26,-5.37,2.14,-8.36,870.2,32.73
4566086,-0.01,-0.01,1.23,-5.25,3.3,-8.42,870.12,32.74
4566124,-0.01,0.01,1.32,-5.07,3.05,-8.73,870.15,32.74
4566162,-0.0,-0.01,1.28,-4.58,2.69,-8.54,870.15,32.75
4566200,-0.03,-0.01,1.21,-4.94,2.44,-8.12,870.17,32.77
4566238,-0.02,0.0,1.23,-4.82,2.81,-8.42,870.15,32.75
4566288,-0.0,-0.01,1.28,-4.52,2.32,-8.24,870.1,32.74
4566326,-0.04,-0.0,1.26,-4.39,1.28,-8.18,870.15,32.75
4566364,-0.02,-0.01,1.29,-3.97,2.08,-8.24,870.14,32.75
4566403,-0.01,-0.01,1.23,-4.09,2.87,-8.24,870.12,32.74
4566441,-0.02,0.0,1.24,-3.85,2.08,-8.18,870.17,32.76
4566479,-0.03,-0.02,1.16,-3.6,3.17,-8.12,870.16,32.76
4566517,-0.02,-0.02,1.18,-3.48,2.32,-8.0,870.15,32.76
4566555,-0.01,-0.01,1.23,-3.17,2.87,-8.12,870.16,32.76
4566593,-0.02,-0.02,1.18,-3.17,2.99,-7.93,870.2,32.76
4566643,-0.03,-0.0,1.24,-2.81,4.52,-8.18,870.16,32.75
4566681,-0.02,-0.02,1.2,-2.75,4.46,-8.3,870.14,32.75
4566719,-0.02,-0.02,1.2,-2.69,4.7,-8.24,870.2,32.74
4566758,-0.03,-0.01,1.15,-2.56,4.82,-8.42,870.16,32.75
4566796,-0.03,-0.01,1.14,-2.62,5.13,-8.18,870.13,32.76
4566834,-0.02,-0.02,1.13,-2.75,6.04,-7.93,870.2,32.76
4566872,-0.02,-0.01,1.13,-2.75,5.62,-7.93,870.07,32.76
4566910,-0.03,-0.01,1.14,-2.75,5.86,-8.06,870.16,32.76
4566948,-0.02,-0.02,1.14,-2.87,6.59,-8.12,870.11,32.75
4566998,-0.02,-0.0,1.15,-3.05,7.08,-8.0,870.13,32.75
4567036,-0.02,-0.02,1.14,-3.05,7.2,-8.06,870.08,32.76
4567074,-0.02,-0.02,1.15,-3.23,7.14,-8.06,870.11,32.76
4567112,-0.03,-0.01,1.12,-3.54,6.65,-7.81,870.08,32.76
4567150,-0.02,-0.0,1.13,-3.3,7.02,-7.81,870.1,32.75
4567189,-0.02,-0.02,1.11,-3.17,7.14,-7.87,870.16,32.76
4567227,-0.02,-0.02,1.12,-3.05,6.84,-7.81,870.05,32.76
4567265,-0.01,-0.02,1.11,-2.87,7.39,-7.69,870.08,32.76
4567303,-0.02,-0.02,1.09,-2.87,7.51,-7.63,870.08,32.77
4567341,-0.02,-0.02,1.08,-2.62,7.32,-7.51,870.09,32.77
4567391,-0.01,-0.03,1.05,-2.5,6.9,-7.75,870.11,32.75
4567429,-0.01,-0.02,1.06,-2.56,6.65,-7.63,870.11,32.75
4567467,-0.0,-0.03,1.05,-2.38,6.77,-7.69,870.07,32.76
4567505,-0.0,-0.03,1.03,-2.44,6.16,-7.63,870.1,32.74
4567543,-0.0,-0.02,1.03,-2.62,5.98,-7.51,870.02,32.76
4567582,-0.01,-0.02,1.04,-2.75,5.68,-7.51,870.07,32.75
4567620,-0.02,-0.02,1.06,-2.93,5.37,-7.63,870.09,32.76
4567658,-0.03,-0.01,1.11,-2.69,5.31,-7.63,870.04,32.76
4567696,-0.0,-0.02,1.14,-2.75,6.47,-8.0,870.02,32.76
4567746,-0.01,-0.01,1.15,-2.87,7.14,-8.3,869.97,32.75
4567784,-0.01,-0.0,1.16,-2.81,7.63,-8.3,870.01,32.74
4567822,-0.02,-0.01,1.12,-2.93,7.81,-8.18,870.06,32.76
4567860,-0.02,-0.01,1.15,-2.99,7.08,-8.24,869.98,32.74
4567898,-0.03,-0.0,1.15,-2.81,7.51,-8.18,869.98,32.77
4567937,-0.03,-0.01,1.13,-2.93,7.32,-8.06,870.0,32.76
4567975,-0.02,0.01,1.16,-2.87,6.41,-8.24,870.01,32.77
4568013,-0.02,-0.03,1.2,-2.99,5.92,-7.93,869.93,32.77
4568051,-0.03,-0.02,1.17,-2.99,5.74,-7.57,869.91,32.77
4568101,-0.03,0.02,1.24,-2.99,5.55,-7.69,870.0,32.75
4568139,-0.0,0.01,1.22,-3.17,4.7,-7.45,869.94,32.76
4568177,-0.02,0.0,1.24,-3.17,3.6,-7.14,869.99,32.76
4568215,-0.02,-0.01,1.21,-3.23,3.85,-7.14,869.96,32.76
4568253,0.0,-0.01,1.23,-3.54,3.05,-6.84,870.02,32.78
4568292,-0.0,-0.0,1.21,-3.54,2.87,-6.71,870.08,32.78
4568330,-0.04,0.01,1.22,-3.36,2.87,-7.08,869.99,32.77
4568368,-0.03,-0.01,1.28,-2.99,3.78,-7.08,869.94,32.78
4568406,-0.01,-0.01,1.27,-2.99,4.94,-7.39,870.01,32.78
4568444,0.01,-0.01,1.26,-3.05,5.43,-7.51,869.96,32.78
4568494,-0.0,0.0,1.24,-3.17,5.92,-7.75,869.91,32.77
4568532,0.0,0.0,1.27,-3.23,6.59,-7.87,869.93,32.76
4568570,-0.01,-0.01,1.27,-3.17,5.98,-7.63,869.96,32.77
4568608,-0.03,-0.01,1.27,-3.36,6.1,-7.69,869.91,32.77
4568647,-0.02,-0.0,1.3,-3.36,5.92,-7.75,869.92,32.77
4568685,0.02,-0.0,1.3,-3.78,5.74,-8.06,869.94,32.78
4568723,-0.0,0.0,1.29,-3.78,5.31,-7.93,869.94,32.76
4568761,-0.03,-0.0,1.27,-3.91,5.25,-7.81,869.91,32.77
4568799,-0.02,-0.01,1.27,-4.09,5.74,-8.06,869.92,32.76
4568875,-0.02,0.0,1.27,-4.21,4.15,-8.0,869.92,32.74
4568913,-0.02,-0.02,1.2,-4.27,3.85,-7.93,869.92,32.74
4568951,-0.02,-0.0,1.25,-4.58,2.75,-8.06,869.88,32.74
4569041,-0.03,-0.01,1.24,-4.82,2.44,-7.87,869.91,32.72
4569079,-0.03,-0.01,1.25,-4.7,2.81,-8.06,869.95,32.75
4569117,-0.02,-0.01,1.21,-4.82,2.14,-8.24,869.9,32.74
4569155,-0.02,0.0,1.22,-4.88,2.62,-8.12,869.92,32.74
4569194,-0.02,-0.0,1.24,-4.94,2.62,-8.12,869.89,32.75
4569232,-0.02,-0.01,1.26,-4.88,2.69,-8.12,869.89,32.75
4569270,-0.02,-0.01,1.26,-5.07,2.99,-8.0,869.95,32.75
4569320,-0.03,-0.0,1.26,-5.0,3.23,-8.12,869.95,32.74
4569358,-0.02,-0.01,1.24,-5.0,3.78,-8.36,869.91,32.74
4569396,-0.02,-0.01,1.26,-4.94,3.78,-8.18,869.96,32.76
4569434,-0.02,-0.02,1.23,-5.07,4.46,-8.42,869.83,32.75
4569472,-0.03,-0.0,1.24,-4.88,3.85,-8.42,869.87,32.75
4569510,-0.02,-0.0,1.24,-4.88,4.27,-8.3,869.88,32.74
4569549,-0.03,-0.0,1.23,-5.07,4.15,-8.24,869.93,32.76
4569587,-0.02,-0.0,1.26,-5.07,4.7,-8.36,869.91,32.76
4569625,-0.02,-0.01,1.24,-5.0,4.82,-8.42,869.86,32.75
4569675,-0.02,0.0,1.29,-4.58,5.19,-8.36,869.89,32.74
4569713,-0.02,-0.0,1.26,-4.58,5.19,-8.36,869.87,32.76
4569751,-0.03,0.01,1.3,-4.33,5.25,-8.36,869.89,32.76
4569789,-0.02,-0.01,1.25,-4.27,5.86,-8.36,869.86,32.76
4569827,-0.02,0.0,1.31,-4.21,5.74,-8.3,869.85,32.76
4569865,-0.01,-0.02,1.25,-4.21,5.92,-8.3,869.88,32.77
4569904,-0.03,-0.0,1.24,-4.27,4.46,-8.24,869.8,32.76
4569942,-0.03,-0.02,1.22,-4.21,4.58,-8.12,869.91,32.78
4569980,-0.02,-0.02,1.17,-4.27,4.03,-8.0,869.84,32.76
4570030,-0.03,-0.01,1.18,-4.09,3.05,-7.75,869.86,32.76
4570068,-0.04,-0.03,1.16,-4.09,2.56,-7.87,869.84,32.75
4570106,-0.02,-0.02,1.18,-4.15,2.62,-7.81,869.88,32.76
4570144,-0.02,-0.01,1.2,-4.09,2.26,-7.87,869.85,32.77
4570182,-0.03,-0.02,1.18,-4.33,2.87,-7.81,869.83,32.78
4570221,-0.02,-0.01,1.21,-4.33,3.05,-7.75,869.86,32.76
4570259,-0.02,-0.01,1.2,-4.39,3.91,-7.81,869.85,32.77
4570297,-0.02,-0.01,1.21,-4.52,4.03,-7.93,869.88,32.78
4570335,-0.03,-0.01,1.21,-4.52,4.09,-7.93,869.85,32.76
4570373,-0.02,-0.01,1.2,-4.39,4.09,-7.93,869.85,32.77
4570423,-0.03,-0.01,1.22,-4.33,4.52,-7.69,869.85,32.74
4570461,-0.01,-0.02,1.21,-4.46,3.97,-7.75,869.84,32.75
4570499,-0.03,-0.01,1.22,-4.52,3.42,-7.63,869.8,32.74
4570537,-0.03,-0.02,1.19,-4.33,3.3,-7.51,869.82,32.76
4570576,-0.02,-0.02,1.21,-4.64,3.3,-7.45,869.81,32.76
4570614,-0.02,-0.01,1.2,-4.82,3.23,-7.63,869.82,32.77
4570652,-0.02,-0.01,1.2,-4.64,3.17,-7.45,869.8,32.78
4570690,-0.02,-0.01,1.22,-4.88,2.69,-7.63,869.83,32.77
4570728,-0.03,-0.01,1.22,-4.88,2.44,-7.63,869.79,32.76
4570778,-0.02,-0.02,1.24,-4.94,2.5,-7.32,869.8,32.75
4570816,-0.04,-0.02,1.21,-4.64,2.2,-7.26,869.86,32.76
4570854,-0.03,-0.02,1.21,-4.64,2.26,-7.32,869.83,32.77
4570892,-0.02,-0.02,1.2,-4.33,2.62,-7.39,869.8,32.76
4570931,-0.03,-0.02,1.17,-4.58,2.5,-7.45,869.84,32.77
4570969,-0.03,-0.01,1.2,-4.27,2.87,-7.32,869.86,32.79
4571007,-0.02,-0.03,1.15,-4.52,4.09,-7.63,869.73,32.76
4571045,-0.03,-0.01,1.19,-4.58,3.6,-7.57,869.8,32.77
4571083,-0.03,-0.02,1.15,-4.76,4.52,-7.57,869.82,32.78
4571133,-0.02,-0.02,1.18,-4.76,4.94,-7.57,869.78,32.77
4571171,-0.01,-0.03,1.18,-4.7,5.74,-7.81,869.81,32.78
4571209,-0.03,-0.01,1.19,-4.7,4.94,-7.75,869.74,32.78
4571247,-0.02,-0.02,1.23,-4.58,5.8,-7.75,869.78,32.77
4571286,-0.01,-0.02,1.21,-4.64,5.37,-7.87,869.77,32.77
4571324,-0.02,-0.01,1.25,-4.82,5.49,-7.87,869.76,32.77
4571362,-0.01,-0.01,1.22,-4.82,5.62,-7.81,869.81,32.77
4571400,-0.01,-0.0,1.26,-4.82,5.25,-7.81,869.73,32.78
4571438,-0.03,-0.01,1.23,-4.76,5.13,-7.69,869.71,32.78
4571488,-0.02,-0.01,1.24,-4.88,4.52,-7.75,869.7,32.76
4571526,-0.03,-0.0,1.25,-4.76,4.58,-7.75,869.78,32.77
4571564,-0.02,-0.01,1.24,-4.64,4.52,-7.57,869.71,32.77
4571603,-0.02,-0.01,1.23,-4.46,4.46,-7.75,869.72,32.78
4571641,-0.02,-0.01,1.25,-4.21,5.13,-7.81,869.7,32.78
4571679,-0.02,-0.01,1.21,-4.15,5.37,-7.81,869.76,32.78
4571717,-0.03,-0.0,1.21,-4.15,5.86,-8.0,869.79,32.77
4571755,-0.02,-0.01,1.18,-4.15,6.29,-8.0,869.72,32.77
4571793,-0.02,-0.01,1.2,-4.09,6.1,-7.93,869.73,32.77
4571832,-0.03,-0.02,1.19,-3.97,6.41,-8.0,869.73,32.77
4571907,-0.03,-0.01,1.22,-4.09,6.16,-7.87,869.7,32.75
4571946,-0.04,-0.01,1.19,-3.97,6.59,-7.87,869.74,32.76
4571984,-0.03,-0.01,1.23,-3.97,6.77,-7.87,869.74,32.78
4572073,-0.04,-0.01,1.25,-3.78,7.32,-7.69,869.68,32.72
4572112,-0.04,-0.01,1.24,-3.72,7.45,-7.75,869.73,32.74
4572150,-0.03,-0.01,1.23,-3.72,7.08,-7.45,869.68,32.74
4572188,-0.03,-0.01,1.23,-3.72,7.26,-7.51,869.68,32.76
4572226,-0.04,-0.0,1.23,-3.78,6.77,-7.26,869.66,32.75
4572264,-0.03,-0.0,1.25,-3.66,6.96,-7.26,869.68,32.75
4572314,-0.03,-0.01,1.25,-3.72,6.47,-7.08,869.65,32.75
4572352,-0.03,-0.01,1.24,-3.78,6.59,-6.96,869.64,32.76
4572391,-0.04,-0.01,1.25,-3.85,6.53,-6.96,869.64,32.75
4572429,-0.03,-0.01,1.25,-3.91,6.77,-7.08,869.64,32.77
4572467,-0.04,-0.01,1.25,-3.85,6.47,-6.96,869.65,32.76
4572505,-0.04,-0.01,1.26,-3.85,6.84,-6.96,869.59,32.75
4572543,-0.04,-0.0,1.27,-3.72,6.41,-6.9,869.64,32.76
4572581,-0.03,-0.0,1.28,-3.78,6.77,-6.9,869.59,32.76
4572620,-0.03,-0.01,1.26,-3.91,7.2,-6.9,869.63,32.75
4572669,-0.04,-0.0,1.28,-3.85,7.08,-6.71,869.59,32.74
4572708,-0.04,-0.01,1.26,-3.85,7.08,-6.71,869.62,32.74
4572746,-0.02,-0.0,1.27,-4.03,5.92,-6.59,869.64,32.74
4572784,-0.04,-0.01,1.24,-4.03,6.41,-6.59,869.62,32.74
4572822,-0.03,-0.01,1.22,-3.97,6.65,-6.47,869.62,32.75
4572860,-0.02,-0.01,1.25,-3.85,6.96,-6.53,869.57,32.74
4572898,-0.02,-0.02,1.23,-3.97,5.92,-6.59,869.62,32.75
4572937,-0.03,-0.01,1.26,-4.09,5.49,-6.53,869.62,32.75
4572975,-0.03,-0.01,1.23,-4.15,6.04,-6.47,869.6,32.74
4573013,-0.03,-0.01,1.27,-4.46,4.82,-6.47,869.64,32.75
4573063,-0.03,-0.02,1.22,-4.58,5.0,-6.35,869.59,32.73
4573101,-0.03,-0.01,1.23,-4.46,4.58,-6.47,869.59,32.74
4573139,-0.02,-0.02,1.21,-4.52,4.64,-6.29,869.59,32.74
4573177,-0.03,-0.02,1.24,-4.39,4.21,-6.41,869.53,32.74
4573215,-0.03,-0.02,1.23,-4.39,4.33,-6.23,869.51,32.74
4573254,-0.03,-0.02,1.28,-4.27,4.03,-6.16,869.56,32.75
4573292,-0.02,-0.01,1.26,-4.09,4.46,-6.23,869.55,32.74
4573330,-0.02,-0.01,1.24,-4.27,3.6,-6.23,869.56,32.76
4573368,-0.03,-0.02,1.22,-4.21,3.3,-6.29,869.54,32.76
4573418,-0.03,-0.02,1.24,-4.27,2.99,-6.04,869.57,32.75
4573456,-0.03,-0.02,1.22,-4.33,2.93,-6.23,869.54,32.76
4573494,-0.03,-0.02,1.19,-4.64,2.93,-5.98,869.57,32.76
4573532,-0.03,-0.01,1.2,-4.58,2.81,-6.23,869.59,32.75
4573570,-0.02,-0.02,1.19,-4.76,2.87,-6.23,869.51,32.75
4573609,-0.02,-0.03,1.18,-4.88,2.93,-6.04,869.58,32.76
4573647,-0.03,-0.03,1.18,-4.82,2.93,-6.23,869.58,32.76
4573685,-0.03,-0.02,1.17,-5.0,2.99,-6.23,869.48,32.76
4573723,-0.03,-0.02,1.19,-5.37,2.87,-6.1,869.53,32.76
4573773,-0.03,-0.02,1.18,-5.43,3.36,-6.35,869.47,32.74
4573811,-0.02,-0.02,1.18,-5.68,3.42,-6.29,869.5,32.76
4573849,-0.02,-0.02,1.2,-5.68,3.72,-6.35,869.51,32.75
4573888,-0.02,-0.02,1.2,-5.68,3.66,-6.29,869.49,32.76
4573926,-0.02,-0.02,1.21,-5.8,3.6,-6.35,869.54,32.77
4573964,-0.02,-0.02,1.21,-5.62,3.85,-6.35,869.5,32.77
4574002,-0.02,-0.02,1.21,-5.68,4.03,-6.41,869.55,32.76
4574040,-0.02,-0.01,1.21,-5.19,3.72,-6.35,869.49,32.77
4574078,-0.02,-0.02,1.22,-5.49,3.72,-6.47,869.46,32.76
4574116,-0.02,-0.02,1.21,-5.31,3.78,-6.41,869.51,32.78
4574166,-0.03,-0.01,1.21,-5.25,3.91,-6.53,869.48,32.76
4574204,-0.03,-0.02,1.2,-5.43,4.27,-6.47,869.53,32.76
4574242,-0.01,-0.02,1.2,-5.43,3.97,-6.47,869.5,32.75
4574281,-0.03,-0.02,1.19,-5.25,3.91,-6.59,869.48,32.75
4574319,-0.02,-0.02,1.2,-5.19,4.03,-6.53,869.49,32.76
4574357,-0.02,-0.02,1.21,-5.19,3.91,-6.35,869.51,32.76
4574395,-0.02,-0.01,1.23,-4.88,3.85,-6.59,869.46,32.77
4574433,-0.03,-0.02,1.21,-4.82,4.46,-6.59,869.44,32.76
4574471,-0.02,-0.01,1.23,-4.76,4.46,-6.65,869.47,32.76
4574521,-0.0,-0.02,1.22,-4.7,4.64,-6.77,869.49,32.75
4574559,-0.01,-0.01,1.23,-4.7,4.46,-6.77,869.5,32.76
4574597,-0.01,-0.02,1.21,-4.76,4.88,-6.9,869.47,32.76
4574636,-0.01,-0.02,1.2,-4.64,5.25,-6.84,869.48,32.75
4574674,-0.02,-0.02,1.23,-4.52,5.74,-7.02,869.44,32.75
4574712,-0.01,-0.03,1.2,-4.21,6.16,-7.2,869.47,32.75
4574750,-0.01,-0.01,1.22,-4.15,6.41,-7.39,869.47,32.75
4574788,-0.02,-0.01,1.23,-4.03,6.65,-7.32,869.43,32.76
4574826,-0.01,-0.02,1.22,-4.27,6.84,-7.57,869.44,32.76
4574902,-0.01,-0.02,1.2,-4.15,7.39,-7.69,869.47,32.74
4574940,-0.01,-0.02,1.22,-4.09,6.9,-7.69,869.47,32.75
4574978,-0.02,-0.01,1.2,-3.91,6.71,-7.75,869.46,32.74
4575068,-0.02,-0.03,1.15,-3.78,5.62,-7.69,869.41,32.72
4575106,-0.01,-0.02,1.16,-3.72,4.82,-7.57,869.41,32.73
4575144,-0.03,-0.02,1.17,-3.78,4.46,-7.63,869.44,32.74
4575182,-0.02,-0.02,1.18,-3.78,3.91,-7.39,869.38,32.73
4575221,-0.01,-0.01,1.23,-3.66,3.36,-7.63,869.37,32.73
4575259,-0.02,-0.01,1.23,-3.72,2.99,-7.45,869.39,32.76
4575297,-0.04,-0.03,1.21,-3.91,3.23,-7.14,869.42,32.75
4575347,-0.02,-0.02,1.19,-3.91,3.11,-7.51,869.47,32.73
4575385,-0.02,-0.03,1.18,-3.72,3.11,-7.57,869.4,32.74
4575423,-0.02,-0.03,1.16,-3.78,2.5,-7.39,869.46,32.74
4575461,-0.02,-0.03,1.16,-3.72,3.23,-7.75,869.45,32.73
4575499,-0.02,-0.03,1.1,-4.03,3.97,-7.75,869.39,32.74
4575537,-0.02,-0.03,1.14,-3.91,3.78,-7.57,869.4,32.74
4575576,-0.02,-0.04,1.11,-4.33,3.42,-7.69,869.45,32.74
4575614,-0.04,-0.03,1.14,-4.33,3.23,-7.75,869.42,32.74
4575652,-0.03,-0.04,1.12,-4.58,4.21,-7.75,869.38,32.74
4575702,-0.01,-0.03,1.15,-4.94,3.78,-7.87,869.39,32.72
4575740,-0.03,-0.03,1.14,-4.88,3.97,-7.63,869.39,32.73
4575778,-0.04,-0.03,1.18,-5.0,4.03,-7.75,869.38,32.74
4575816,-0.02,-0.03,1.22,-4.94,4.76,-7.75,869.42,32.73
4575854,-0.01,-0.03,1.23,-5.07,4.76,-7.93,869.39,32.74
4575893,-0.03,-0.02,1.24,-5.31,4.46,-7.87,869.43,32.74
4575931,-0.02,-0.02,1.24,-5.19,4.33,-7.81,869.41,32.73
4575969,-0.01,-0.02,1.24,-5.25,4.21,-7.87,869.35,32.74
4576007,-0.03,-0.03,1.21,-5.07,3.54,-7.75,869.37,32.74
4576057,-0.03,-0.03,1.2,-5.0,3.05,-7.75,869.34,32.73
4576095,-0.03,-0.03,1.19,-4.82,3.3,-7.87,869.4,32.73
4576133,-0.03,-0.03,1.18,-4.88,2.62,-7.63,869.39,32.73
4576171,-0.04,-0.04,1.17,-4.64,2.56,-7.51,869.39,32.73
4576210,-0.03,-0.04,1.17,-4.7,2.69,-7.69,869.37,32.73
4576248,-0.04,-0.03,1.2,-4.7,2.56,-7.57,869.39,32.73
4576286,-0.03,-0.03,1.17,-4.58,2.5,-7.45,869.39,32.73
4576324,-0.03,-0.02,1.22,-4.7,2.38,-7.51,869.32,32.73
4576362,-0.03,-0.03,1.23,-4.88,2.81,-7.51,869.34,32.73
4576412,-0.02,-0.02,1.27,-5.07,2.87,-7.39,869.36,32.73
4576450,-0.04,-0.01,1.27,-4.88,3.6,-7.63,869.37,32.73
4576488,-0.03,-0.01,1.29,-4.88,4.27,-7.51,869.35,32.72
4576527,-0.04,-0.01,1.33,-4.7,4.94,-7.81,869.38,32.73
4576565,-0.04,-0.02,1.3,-4.27,5.92,-7.57,869.39,32.73
4576603,-0.03,-0.02,1.31,-4.21,6.04,-7.51,869.42,32.73
4576641,-0.02,-0.01,1.3,-3.97,6.77,-7.51,869.37,32.73
4576679,-0.03,-0.01,1.28,-3.78,7.08,-7.45,869.3,32.73
4576717,-0.02,-0.02,1.29,-3.66,6.9,-7.45,869.35,32.73
4576756,-0.03,-0.02,1.26,-3.6,7.39,-7.32,869.34,32.74
4576806,-0.03,-0.02,1.25,-3.36,7.51,-7.39,869.36,32.71
4576844,-0.02,-0.02,1.26,-3.48,7.2,-7.14,869.31,32.72
4576882,-0.02,-0.02,1.25,-3.66,7.08,-7.32,869.31,32.73
4576920,-0.02,-0.02,1.23,-3.72,6.71,-7.02,869.32,32.73
4576958,-0.03,-0.03,1.23,-3.91,6.35,-6.9,869.37,32.73
4576996,-0.03,-0.02,1.2,-4.09,6.35,-7.02,869.33,32.73
4577034,-0.03,-0.02,1.22,-4.27,5.8,-6.96,869.28,32.72
4577073,-0.02,-0.03,1.19,-4.33,5.86,-6.84,869.3,32.72
4577111,-0.02,-0.03,1.2,-4.58,5.43,-6.71,869.3,32.7
4577161,-0.02,-0.03,1.2,-4.58,5.25,-6.71,869.34,32.7
4577199,-0.02,-0.02,1.21,-4.82,5.19,-6.65,869.29,32.7
4577237,-0.03,-0.02,1.23,-5.13,4.76,-6.53,869.31,32.73
4577275,-0.03,-0.02,1.24,-5.19,4.58,-6.41,869.3,32.73
4577313,-0.02,-0.02,1.25,-5.31,4.39,-6.53,869.28,32.72
4577351,-0.02,-0.02,1.25,-5.31,4.46,-6.35,869.33,32.73
4577390,-0.02,-0.02,1.24,-5.13,4.82,-6.53,869.35,32.72
4577428,-0.02,-0.02,1.23,-5.19,4.94,-6.41,869.3,32.73
4577466,-0.02,-0.03,1.22,-5.0,5.25,-6.35,869.33,32.73
4577516,-0.02,-0.03,1.21,-5.07,5.49,-6.35,869.34,32.73
4577554,-0.02,-0.03,1.2,-5.31,6.16,-6.65,869.25,32.72
4577592,-0.02,-0.02,1.22,-5.19,6.04,-6.53,869.33,32.72
4577630,-0.01,-0.03,1.23,-5.37,5.98,-6.65,869.26,32.72
4577668,-0.01,-0.03,1.22,-5.43,6.65,-6.47,869.28,32.74
4577706,-0.02,-0.02,1.24,-5.49,6.71,-6.77,869.23,32.74
4577745,-0.02,-0.01,1.25,-5.55,6.65,-6.71,869.29,32.73
4577783,-0.01,-0.01,1.28,-5.49,6.35,-6.65,869.26,32.75
4577821,-0.02,-0.01,1.27,-5.55,6.65,-6.71,869.32,32.75
4577859,-0.02,-0.02,1.27,-5.43,6.9,-6.71,869.22,32.73
4577937,-0.02,-0.01,1.26,-5.37,6.29,-6.59,869.23,32.71
4577975,-0.02,-0.02,1.26,-5.49,5.98,-6.59,869.31,32.73
4578013,-0.02,-0.02,1.26,-5.49,5.62,-6.53,869.22,32.72
4578103,-0.03,-0.02,1.23,-5.62,4.52,-6.35,869.27,32.69
4578141,-0.02,-0.02,1.23,-5.55,4.21,-6.29,869.23,32.7
4578179,-0.01,-0.02,1.22,-5.62,3.78,-6.35,869.3,32.71
4578217,-0.02,-0.02,1.23,-5.62,3.3,-6.16,869.32,32.72
4578255,-0.01,-0.03,1.23,-5.68,3.23,-6.23,869.23,32.72
4578293,-0.02,-0.02,1.21,-5.86,3.11,-6.29,869.24,32.72
4578343,-0.01,-0.02,1.21,-5.98,2.93,-6.16,869.29,32.71
4578381,-0.01,-0.03,1.19,-5.98,2.87,-6.16,869.26,32.73
4578419,-0.01,-0.03,1.2,-6.23,3.36,-6.41,869.34,32.72
4578458,-0.02,-0.03,1.23,-6.1,3.48,-6.59,869.26,32.72
4578496,-0.01,-0.03,1.24,-6.29,3.72,-6.53,869.25,32.72
4578534,-0.0,-0.02,1.24,-6.53,3.91,-6.71,869.25,32.72
4578572,-0.01,-0.02,1.25,-6.41,4.09,-6.84,869.26,32.71
4578610,-0.01,-0.03,1.26,-6.41,4.39,-6.71,869.21,32.72
4578648,-0.0,-0.02,1.26,-6.41,3.91,-6.96,869.27,32.72
4578698,-0.01,-0.02,1.24,-6.47,4.09,-6.96,869.25,32.71
4578736,-0.02,-0.02,1.25,-6.47,3.42,-7.02,869.22,32.72
4578774,-0.01,-0.02,1.26,-6.47,4.03,-7.26,869.23,32.72
4578813,-0.0,-0.02,1.27,-6.35,4.21,-7.45,869.2,32.71
4578851,-0.0,-0.02,1.28,-6.47,4.52,-7.39,869.28,32.73
4578889,-0.01,-0.02,1.27,-6.1,4.58,-7.51,869.23,32.71
4578927,-0.01,-0.02,1.27,-6.04,5.07,-7.63,869.25,32.73
4578965,-0.02,-0.03,1.23,-5.98,5.92,-7.75,869.24,32.72
4579003,-0.01,-0.03,1.21,-5.86,6.04,-7.93,869.17,32.72
4579042,-0.01,-0.03,1.21,-5.74,5.8,-8.18,869.19,32.73
4579091,-0.01,-0.02,1.18,-5.68,6.71,-8.3,869.22,32.71
4579130,0.0,-0.02,1.22,-5.8,6.23,-8.54,869.21,32.71
4579168,0.0,-0.03,1.19,-5.8,6.77,-8.73,869.22,32.72
4579206,-0.02,-0.03,1.21,-6.04,6.23,-8.85,869.2,32.72
4579244,-0.01,-0.03,1.25,-6.1,6.84,-8.85,869.21,32.73
4579282,0.0,-0.03,1.24,-6.47,6.71,-9.09,869.17,32.72
4579320,0.0,-0.01,1.26,-6.53,6.47,-9.09,869.24,32.73
4579358,-0.0,-0.03,1.23,-6.53,6.16,-9.22,869.19,32.73
4579397,-0.01,-0.03,1.27,-6.41,5.19,-9.03,869.2,32.73
4579446,-0.01,-0.03,1.27,-6.47,5.55,-9.16,869.15,32.71
4579485,-0.01,-0.01,1.27,-6.47,5.0,-8.97,869.16,32.72
4579523,-0.02,-0.02,1.29,-6.23,6.1,-8.97,869.22,32.73
4579561,-0.03,-0.02,1.27,-6.16,5.62,-9.16,869.14,32.72
4579599,-0.01,-0.01,1.35,-5.98,4.64,-8.97,869.17,32.73
4579637,0.0,-0.02,1.31,-5.98,5.37,-9.16,869.11,32.73
4579675,-0.03,-0.0,1.35,-6.23,4.94,-9.22,869.14,32.73
4579714,-0.03,-0.01,1.35,-5.8,6.53,-9.22,869.13,32.74
4579752,-0.02,-0.02,1.35,-5.8,6.53,-9.28,869.13,32.73
4579802,-0.02,-0.01,1.33,-5.86,6.9,-9.34,869.17,32.72
4579840,-0.03,-0.02,1.27,-5.86,6.29,-9.52,869.19,32.72
4579878,-0.02,-0.02,1.24,-5.86,6.1,-9.28,869.15,32.73
4579916,-0.03,-0.03,1.18,-5.55,5.13,-8.91,869.18,32.74
4579954,-0.01,-0.02,1.17,-5.8,4.27,-8.91,869.17,32.73
4579992,-0.03,-0.03,1.14,-5.74,4.27,-8.85,869.17,32.74
4580031,-0.02,-0.03,1.16,-6.29,3.48,-9.03,869.03,32.72
4580069,-0.02,-0.03,1.17,-6.47,3.36,-8.85,869.12,32.73
4580107,-0.02,-0.03,1.21,-6.77,3.48,-8.73,869.07,32.73
4580145,-0.03,-0.03,1.23,-6.59,4.52,-8.91,869.16,32.74
4580195,-0.02,-0.0,1.26,-6.9,4.39,-8.85,869.18,32.73
4580233,-0.02,-0.0,1.3,-6.9,4.27,-8.91,869.14,32.74
4580271,-0.01,-0.01,1.32,-7.08,3.72,-8.73,869.14,32.73
4580310,-0.02,0.0,1.38,-7.14,3.91,-8.73,869.16,32.73
4580348,-0.02,-0.01,1.34,-6.96,4.33,-8.61,869.07,32.73
4580386,-0.02,0.01,1.39,-6.84,4.03,-8.73,869.12,32.72
4580424,-0.02,0.0,1.36,-6.53,4.58,-8.54,869.13,32.74
4580462,-0.03,0.0,1.35,-6.53,4.21,-8.48,869.09,32.73
4580500,-0.02,0.0,1.36,-6.47,4.76,-8.67,869.12,32.73
4580550,-0.02,0.0,1.4,-6.23,4.94,-8.73,869.11,32.71
4580588,-0.01,0.01,1.39,-6.04,5.07,-8.61,869.15,32.73
4580626,-0.02,0.02,1.41,-6.1,5.19,-8.54,869.06,32.73
4580665,-0.04,0.0,1.4,-5.92,5.68,-8.79,869.11,32.73
4580703,-0.03,0.01,1.42,-5.8,6.16,-8.61,869.1,32.72
4580741,-0.01,0.01,1.42,-5.68,6.1,-8.67,869.15,32.72
4580779,-0.04,0.01,1.37,-5.55,5.43,-8.42,869.09,32.74
4580817,-0.04,0.0,1.37,-5.49,6.1,-8.61,869.08,32.73
4580855,-0.02,-0.0,1.34,-5.37,6.96,-8.42,869.11,32.73
4580893,-0.01,-0.0,1.34,-5.31,6.65,-8.42,869.06,32.73
4580969,-0.02,-0.0,1.34,-5.25,6.9,-8.42,869.04,32.7
4581007,-0.03,-0.01,1.33,-5.31,7.32,-8.48,869.09,32.72
4581046,-0.02,-0.02,1.28,-5.55,6.84,-8.42,869.0,32.72
4581135,-0.02,-0.01,1.29,-5.55,6.47,-8.18,869.07,32.69
4581173,-0.02,-0.01,1.32,-5.68,5.62,-8.12,869.08,32.7
4581211,-0.03,-0.01,1.28,-5.74,5.31,-8.06,869.04,32.72
4581250,-0.02,-0.01,1.29,-5.74,4.88,-8.06,869.01,32.7
4581288,-0.02,-0.01,1.27,-5.68,4.88,-7.87,869.06,32.7
4581326,-0.04,0.0,1.31,-5.68,4.46,-7.87,869.0,32.72
4581376,-0.02,-0.01,1.32,-5.62,5.62,-8.0,868.99,32.71
4581414,-0.02,-0.0,1.38,-5.62,4.94,-8.24,869.03,32.72
4581452,-0.02,-0.01,1.35,-5.74,4.82,-8.06,868.99,32.72
4581490,-0.01,-0.01,1.32,-5.86,4.58,-8.0,869.07,32.73
4581528,-0.03,-0.0,1.32,-5.98,4.7,-7.87,868.96,32.71
4581566,-0.01,-0.01,1.27,-5.98,4.52,-8.0,868.97,32.72
4581605,-0.03,-0.01,1.29,-6.04,3.17,-7.81,869.03,32.71
4581643,-0.03,-0.02,1.26,-6.04,4.33,-7.75,869.05,32.72
4581681,-0.02,-0.01,1.26,-6.29,3.85,-7.87,869.04,32.71
4581731,-0.04,-0.02,1.3,-6.04,4.88,-7.75,869.03,32.71
4581769,-0.02,-0.02,1.31,-6.23,4.33,-8.18,868.98,32.72
4581807,-0.04,-0.02,1.3,-6.1,5.8,-8.3,869.05,32.71
4581845,-0.03,-0.02,1.27,-6.04,6.1,-8.24,869.09,32.73
4581883,-0.02,-0.02,1.31,-6.1,6.23,-8.3,868.98,32.73
4581921,-0.02,-0.01,1.26,-6.1,6.9,-8.48,869.01,32.73
4581960,-0.04,-0.02,1.32,-6.16,6.9,-8.24,868.99,32.73
4581998,-0.0,-0.04,1.28,-6.23,7.81,-8.48,868.99,32.72
4582036,-0.03,-0.02,1.3,-6.59,7.2,-8.54,868.99,32.72
4582086,-0.01,-0.02,1.31,-6.59,8.85,-8.61,868.99,32.72
4582124,-0.02,-0.01,1.33,-7.08,7.45,-8.61,868.99,32.72
4582162,-0.02,-0.0,1.36,-6.96,7.63,-8.61,868.96,32.71
4582200,-0.01,-0.01,1.31,-7.45,7.75,-8.48,868.89,32.72
4582238,-0.02,0.01,1.38,-7.57,7.45,-8.79,868.92,32.71
4582276,-0.01,-0.0,1.34,-7.39,8.24,-8.54,868.92,32.71
4582315,-0.0,0.01,1.4,-7.75,6.77,-8.61,868.95,32.72
4582353,-0.01,0.0,1.39,-7.63,7.69,-8.54,868.98,32.72
4582391,-0.0,0.0,1.39,-7.57,6.53,-8.61,868.94,32.72
4582429,-0.01,-0.0,1.39,-7.26,6.53,-8.73,868.98,32.72
4582479,-0.01,-0.01,1.35,-7.26,5.8,-8.61,868.98,32.72
4582517,-0.01,-0.0,1.33,-7.39,5.68,-8.61,869.03,32.71
4582555,-0.01,0.0,1.31,-7.45,5.49,-8.48,868.99,32.72
4582593,0.0,-0.0,1.33,-7.57,5.55,-8.97,868.99,32.72
4582631,-0.01,-0.01,1.32,-7.51,5.43,-8.97,869.03,32.71
4582670,-0.01,-0.01,1.33,-7.2,5.68,-9.16,868.98,32.71
4582708,0.0,-0.02,1.29,-7.26,6.41,-9.16,869.05,32.72
4582746,0.0,-0.01,1.3,-7.32,5.43,-9.16,868.99,32.72
4582784,-0.01,-0.01,1.28,-7.08,4.64,-9.34,868.95,32.7
4582834,-0.0,-0.01,1.26,-7.32,4.27,-9.28,868.95,32.71
4582872,0.0,-0.0,1.3,-7.02,4.33,-9.34,868.91,32.7
4582910,0.0,-0.02,1.28,-7.08,3.48,-9.22,868.93,32.71
4582948,-0.02,-0.01,1.3,-7.02,2.81,-9.34,868.95,32.71
4582986,-0.02,-0.02,1.28,-6.96,2.81,-9.4,868.97,32.71
4583025,0.0,-0.01,1.29,-7.14,3.36,-9.4,868.95,32.71
4583063,-0.0,-0.01,1.26,-6.84,3.17,-9.52,868.94,32.71
4583101,-0.01,-0.01,1.24,-6.9,3.23,-9.64,868.98,32.71
4583139,-0.01,-0.02,1.22,-7.14,2.87,-9.7,869.0,32.71
4583177,-0.01,-0.03,1.22,-7.08,2.99,-9.77,868.93,32.7
4583227,-0.02,-0.04,1.18,-7.02,3.3,-9.89,868.97,32.69
4583265,-0.01,-0.04,1.15,-6.96,3.72,-10.01,868.97,32.7
4583303,-0.02,-0.03,1.17,-6.84,3.05,-10.01,869.04,32.7
4583341,-0.03,-0.05,1.11,-6.71,2.81,-10.01,868.94,32.69
4583380,-0.02,-0.03,1.15,-7.2,2.5,-9.95,868.96,32.69
4583418,-0.02,-0.04,1.16,-6.96,3.66,-10.07,869.0,32.7
4583456,-0.01,-0.04,1.16,-7.02,2.56,-9.95,868.97,32.7
4583494,-0.03,-0.03,1.2,-7.39,2.56,-10.01,868.96,32.7
4583532,-0.03,-0.03,1.19,-7.45,3.05,-10.07,868.98,32.71
4583582,-0.01,-0.03,1.24,-7.63,3.11,-10.07,868.99,32.68
4583620,-0.02,-0.03,1.24,-7.69,3.05,-10.01,868.97,32.7
4583658,-0.03,-0.03,1.25,-7.57,2.81,-10.07,868.95,32.7
4583696,-0.02,-0.03,1.24,-7.75,3.17,-10.13,869.0,32.7
4583734,-0.02,-0.02,1.26,-7.75,2.81,-9.95,868.96,32.69
4583773,-0.03,-0.03,1.26,-7.87,2.75,-10.07,869.0,32.7
4583811,-0.03,-0.02,1.31,-7.93,2.69,-10.07,868.97,32.7
4583849,-0.02,-0.02,1.29,-7.87,2.81,-9.95,868.98,32.71
4583887,-0.03,-0.02,1.3,-7.87,2.62,-9.95,868.97,32.7
4583963,-0.04,-0.02,1.32,-7.75,3.23,-10.01,868.96,32.67
4584001,-0.03,-0.01,1.34,-7.51,3.6,-9.95,869.0,32.68
4584039,-0.04,-0.01,1.34,-7.63,3.72,-10.01,868.98,32.68
4584129,-0.03,-0.01,1.35,-7.57,5.37,-10.19,868.96,32.64
4584167,-0.03,-0.01,1.36,-7.57,5.98,-10.25,869.0,32.67
4584205,-0.04,-0.01,1.35,-7.69,6.29,-10.19,869.06,32.67
4584243,-0.03,-0.01,1.35,-7.51,6.41,-10.19,869.01,32.67
4584281,-0.03,-0.02,1.32,-7.75,7.14,-10.19,869.03,32.68
4584320,-0.02,-0.01,1.32,-7.75,6.9,-10.19,869.03,32.67
4584369,-0.03,-0.01,1.32,-7.81,6.65,-10.07,869.01,32.66
4584408,-0.03,-0.01,1.3,-7.75,6.84,-10.07,868.99,32.68
4584446,-0.03,-0.01,1.32,-8.0,6.29,-9.83,869.04,32.68
4584484,-0.03,-0.01,1.33,-8.06,5.0,-9.77,868.97,32.68
4584522,-0.03,-0.01,1.33,-8.0,3.97,-9.58,869.02,32.68
4584560,-0.03,-0.01,1.35,-8.24,2.93,-9.4,869.0,32.68
4584598,-0.02,-0.01,1.37,-8.18,2.32,-9.34,869.01,32.7
4584636,-0.04,-0.0,1.35,-8.06,0.85,-9.22,869.0,32.67
4584675,-0.04,0.0,1.33,-8.12,0.31,-9.22,868.98,32.68
4584724,-0.05,0.0,1.34,-7.87,0.24,-9.22,868.95,32.68
4584762,-0.04,-0.0,1.35,-7.87,0.12,-9.22,868.97,32.68
4584801,-0.05,0.0,1.36,-7.87,0.49,-9.16,869.01,32.69
4584839,-0.04,0.0,1.39,-7.69,1.16,-9.28,869.01,32.68
4584877,-0.05,0.01,1.4,-7.57,1.71,-9.16,869.01,32.7
4584915,-0.05,0.0,1.38,-7.45,1.65,-9.22,868.93,32.67
4584953,-0.05,0.0,1.38,-7.2,2.62,-9.09,868.95,32.69
4584991,-0.06,0.01,1.39,-7.26,2.75,-9.22,868.99,32.68
4585029,-0.05,0.01,1.39,-7.08,2.69,-8.73,869.0,32.7
4585067,-0.04,0.02,1.4,-7.14,2.44,-8.79,868.93,32.68
4585117,-0.05,0.01,1.4,-6.9,2.69,-8.73,869.01,32.69
4585155,-0.05,0.01,1.42,-6.71,2.44,-8.42,868.97,32.68
4585193,-0.06,0.01,1.4,-6.16,2.62,-8.18,868.97,32.68
4585232,-0.06,0.01,1.37,-6.1,1.95,-8.18,869.01,32.68
4585270,-0.06,0.01,1.36,-5.92,1.71,-8.0,869.06,32.69
4585308,-0.04,-0.0,1.32,-5.92,2.08,-8.0,869.01,32.68
4585346,-0.05,-0.0,1.32,-5.92,1.83,-7.81,869.02,32.68
4585384,-0.06,-0.0,1.28,-5.8,1.83,-7.63,869.04,32.68
4585422,-0.06,-0.0,1.31,-5.92,2.01,-7.63,869.06,32.68
4585472,-0.05,-0.02,1.28,-5.74,2.44,-7.57,869.02,32.67
4585510,-0.05,-0.0,1.32,-5.62,1.77,-7.45,869.08,32.67
4585548,-0.05,-0.01,1.28,-5.68,2.26,-7.32,869.04,32.67
4585586,-0.04,0.0,1.3,-5.62,2.01,-7.32,869.07,32.68
4585625,-0.05,-0.0,1.31,-5.55,2.56,-7.26,869.13,32.67
4585663,-0.04,-0.02,1.28,-5.74,2.14,-7.14,869.11,32.69
4585701,-0.04,-0.01,1.29,-5.74,2.01,-7.2,869.13,32.7
4585739,-0.04,-0.01,1.26,-5.62,1.95,-7.08,869.11,32.69
4585777,-0.04,-0.01,1.29,-5.49,1.59,-7.08,869.09,32.69
4585815,-0.04,-0.02,1.28,-5.43,1.65,-6.9,869.12,32.68
4585865,-0.04,-0.02,1.29,-5.19,1.89,-6.84,869.06,32.68
4585903,-0.04,-0.01,1.28,-5.25,1.65,-6.65,869.17,32.68
4585941,-0.04,-0.01,1.28,-5.13,1.16,-6.71,869.14,32.67
4585979,-0.05,-0.02,1.25,-4.94,1.53,-6.84,869.14,32.68
4586018,-0.04,-0.02,1.24,-4.94,1.46,-6.53,869.16,32.68
4586056,-0.04,-0.01,1.26,-5.0,1.46,-6.59,869.15,32.68
4586094,-0.03,-0.01,1.28,-4.94,1.65,-6.53,869.15,32.67
4586132,-0.04,-0.01,1.27,-4.88,1.95,-6.59,869.13,32.68
4586170,-0.05,-0.01,1.3,-4.94,1.59,-6.53,869.2,32.68
4586220,-0.03,-0.02,1.28,-5.13,2.32,-6.59,869.15,32.65
4586258,-0.04,-0.01,1.3,-5.19,1.89,-6.47,869.15,32.67
4586296,-0.04,-0.0,1.3,-5.31,2.38,-6.59,869.15,32.66
4586335,-0.04,-0.01,1.32,-5.19,2.56,-6.65,869.14,32.66
4586373,-0.03,-0.01,1.34,-4.94,2.75,-6.71,869.15,32.67
4586411,-0.04,-0.0,1.33,-5.0,2.81,-6.71,869.11,32.65
4586449,-0.05,-0.01,1.33,-5.0,3.11,-6.65,869.15,32.66
4586487,-0.03,-0.01,1.34,-5.07,2.99,-6.59,869.19,32.66
4586525,-0.04,-0.0,1.34,-4.88,2.62,-6.59,869.11,32.65
4586575,-0.03,-0.02,1.3,-4.88,2.44,-6.53,869.18,32.64
4586613,-0.03,-0.0,1.31,-4.88,2.01,-6.41,869.16,32.66
4586651,-0.03,-0.01,1.33,-4.76,1.59,-6.35,869.14,32.66
4586690,-0.03,-0.02,1.31,-4.82,0.73,-6.23,869.11,32.67
4586728,-0.03,-0.01,1.35,-4.58,0.0,-6.41,869.12,32.65
4586766,-0.02,-0.01,1.32,-4.64,-0.18,-6.41,869.2,32.67
4586804,-0.02,-0.01,1.32,-4.82,-1.16,-6.35,869.13,32.67
4586842,-0.03,-0.01,1.33,-4.64,-0.85,-6.53,869.11,32.66
4586880,-0.03,-0.01,1.3,-4.52,-1.28,-6.65,869.13,32.67
4586919,-0.06,-0.01,1.31,-4.52,-1.4,-6.65,869.08,32.67
4586994,-0.03,-0.01,1.29,-4.7,-0.98,-6.77,869.13,32.63
4587033,-0.04,-0.01,1.3,-4.27,-0.61,-6.71,869.18,32.65
4587071,-0.03,-0.02,1.28,-4.21,-0.55,-7.02,869.18,32.65
4587160,-0.03,-0.03,1.22,-3.85,1.4,-7.2,869.25,32.63
4587199,-0.03,-0.02,1.23,-3.6,1.89,-7.14,869.21,32.64
4587237,-0.04,-0.02,1.22,-3.36,1.77,-7.26,869.21,32.65
4587275,-0.04,-0.04,1.2,-3.36,1.4,-7.26,869.18,32.66
4587313,-0.03,-0.04,1.2,-3.54,1.83,-7.26,869.2,32.64
4587351,-0.02,-0.03,1.17,-3.66,2.08,-7.2,869.17,32.65
4587401,-0.03,-0.02,1.18,-3.72,1.59,-7.32,869.15,32.63
4587439,-0.04,-0.03,1.17,-3.78,1.95,-7.26,869.17,32.63
4587477,-0.04,-0.04,1.19,-3.97,1.4,-7.32,869.19,32.64
4587516,-0.03,-0.03,1.21,-3.91,1.65,-7.51,869.18,32.65
4587554,-0.02,-0.02,1.19,-3.85,1.65,-7.57,869.13,32.65
4587592,-0.03,-0.02,1.2,-3.97,0.79,-7.39,869.15,32.64
4587630,-0.03,-0.04,1.18,-3.72,0.12,-7.51,869.14,32.66
4587668,-0.05,-0.04,1.17,-3.54,-0.61,-7.57,869.13,32.65
4587707,-0.04,-0.04,1.17,-3.48,-0.92,-7.51,869.11,32.65
4587756,-0.04,-0.03,1.16,-3.3,-1.28,-7.75,869.2,32.64
4587794,-0.06,-0.03,1.16,-3.23,-1.59,-7.57,869.11,32.63
4587833,-0.05,-0.03,1.18,-2.87,-1.34,-7.69,869.13,32.65
4587871,-0.05,-0.03,1.19,-2.69,-1.34,-7.69,869.02,32.63
4587909,-0.06,-0.01,1.21,-2.62,-1.59,-7.69,869.06,32.64
4587947,-0.06,-0.01,1.22,-2.56,-1.46,-7.57,869.09,32.64
4587985,-0.05,-0.01,1.25,-2.56,-1.71,-7.57,869.14,32.64
4588024,-0.06,-0.01,1.28,-2.32,-1.59,-7.69,869.09,32.65
4588062,-0.05,-0.01,1.27,-2.2,-1.71,-7.75,869.04,32.63
4588112,-0.06,-0.0,1.31,-1.77,-1.89,-7.63,869.09,32.62
4588150,-0.05,-0.01,1.3,-1.46,-1.77,-7.81,869.1,32.63
4588188,-0.08,-0.0,1.29,-1.34,-2.26,-7.69,868.98,32.63
4588226,-0.08,-0.01,1.27,-1.04,-1.77,-7.57,869.04,32.65
4588264,-0.05,-0.02,1.27,-1.1,-2.08,-7.69,869.06,32.63
4588302,-0.07,-0.02,1.25,-0.98,-2.14,-7.57,869.06,32.63
4588341,-0.08,-0.02,1.21,-0.79,-2.2,-7.63,869.03,32.64
4588379,-0.08,-0.02,1.2,-0.61,-1.71,-7.51,868.98,32.62
4588417,-0.06,-0.03,1.15,-0.61,-2.32,-7.32,869.01,32.62
4588467,-0.08,-0.02,1.12,-0.61,-2.93,-7.14,869.03,32.61
4588505,-0.08,-0.03,1.09,-0.85,-2.87,-6.96,868.97,32.61
4588543,-0.07,-0.03,1.1,-0.79,-3.17,-7.02,868.96,32.61
4588581,-0.08,-0.04,1.09,-0.73,-3.66,-6.65,869.01,32.62
4588619,-0.09,-0.04,1.04,-0.79,-3.85,-6.41,868.96,32.62
4588658,-0.08,-0.03,1.03,-1.04,-3.78,-6.47,869.03,32.62
4588696,-0.08,-0.04,1.03,-1.1,-4.21,-6.16,868.99,32.62
4588734,-0.08,-0.05,1.1,-1.22,-5.55,-5.98,868.99,32.63
4588772,-0.07,-0.05,1.04,-1.59,-5.31,-5.86,868.98,32.62
4588822,-0.07,-0.04,1.14,-1.59,-6.16,-5.68,869.0,32.6
4588860,-0.07,-0.05,1.05,-1.53,-6.1,-5.62,869.02,32.61
4588898,-0.07,-0.03,1.12,-1.65,-7.14,-5.49,869.08,32.61
4588936,-0.07,-0.05,1.07,-1.4,-4.82,-5.25,869.03,32.61
4588975,-0.06,-0.05,1.06,-1.53,-4.94,-5.43,869.03,32.6
4589013,-0.07,-0.04,1.08,-1.34,-3.3,-5.43,869.08,32.6
4589051,-0.06,-0.05,1.08,-1.22,-2.87,-5.19,869.11,32.62
4589089,-0.07,-0.04,1.13,-1.16,-2.32,-5.19,869.06,32.62
4589127,-0.07,-0.04,1.07,-1.04,-1.22,-5.19,869.08,32.59
4589165,-0.07,-0.04,1.11,-0.79,-0.55,-5.13,869.11,32.61
4589215,-0.05,-0.04,1.11,-0.43,0.61,-5.07,869.06,32.6
4589253,-0.06,-0.04,1.1,0.24,0.73,-5.0,869.13,32.6
4589291,-0.07,-0.06,1.07,0.49,1.65,-4.94,869.13,32.6
4589330,-0.06,-0.05,1.07,0.79,2.32,-4.88,869.2,32.61
4589368,-0.07,-0.05,1.05,1.04,3.17,-4.7,869.16,32.6
4589406,-0.05,-0.05,1.06,1.16,2.81,-4.52,869.18,32.61
4589444,-0.06,-0.05,1.02,1.4,3.36,-4.21,869.16,32.59
4589482,-0.07,-0.05,0.98,1.77,2.56,-4.15,869.16,32.6
4589521,-0.06,-0.05,0.98,2.08,1.89,-3.66,869.14,32.61
4589570,-0.05,-0.05,0.92,2.14,0.79,-3.6,869.11,32.59
4589609,-0.06,-0.06,0.89,2.38,0.49,-3.17,869.12,32.6
4589647,-0.05,-0.07,0.84,2.56,0.37,-2.99,869.15,32.61
4589685,-0.07,-0.07,0.83,2.56,0.43,-2.93,869.15,32.61
4589723,-0.06,-0.06,0.81,2.44,0.67,-2.62,869.14,32.6
4589761,-0.07,-0.06,0.79,2.2,0.85,-2.44,869.13,32.6
4589799,-0.07,-0.06,0.76,2.08,1.46,-2.5,869.09,32.6
4589837,-0.05,-0.07,0.78,1.83,1.28,-2.2,869.12,32.6
4589876,-0.03,-0.08,0.74,1.4,1.53,-2.14,869.11,32.6
4589914,-0.03,-0.07,0.7,1.1,0.67,-2.01,869.11,32.61
4589990,-0.03,-0.07,0.72,0.67,0.98,-1.83,869.16,32.57
4590028,-0.05,-0.07,0.81,0.61,0.67,-1.83,869.1,32.6
4590066,-0.06,-0.07,0.8,0.49,0.49,-1.95,869.12,32.59
4590155,-0.05,-0.06,0.9,-0.49,1.16,-1.71,869.11,32.56
4590194,-0.04,-0.07,0.89,-0.73,2.26,-1.71,869.16,32.58
4590232,-0.06,-0.06,0.92,-0.79,2.81,-1.59,869.17,32.58
4590270,-0.02,-0.06,0.95,-0.79,3.36,-1.59,869.13,32.58
4590308,-0.04,-0.05,1.0,-0.85,2.81,-1.65,869.23,32.58
4590346,-0.04,-0.06,1.02,-0.92,3.97,-1.53,869.2,32.59
4590396,-0.04,-0.04,1.11,-1.04,2.99,-1.53,869.18,32.58
4590434,-0.04,-0.05,1.17,-0.85,4.27,-1.53,869.22,32.58
4590472,-0.03,-0.05,1.15,-1.04,3.78,-1.4,869.19,32.59
4590511,-0.04,-0.03,1.23,-0.79,3.72,-1.46,869.16,32.58
4590549,-0.03,-0.04,1.19,-0.67,3.48,-1.4,869.18,32.59
4590587,-0.03,-0.04,1.22,-0.37,3.36,-1.46,869.21,32.6
4590625,-0.03,-0.04,1.21,-0.18,3.23,-1.34,869.22,32.59
4590663,-0.04,-0.04,1.19,0.24,2.75,-1.4,869.22,32.59
4590701,-0.03,-0.05,1.12,0.31,2.87,-1.1,869.23,32.6
4590751,-0.03,-0.05,1.13,0.31,1.71,-1.16,869.25,32.58
4590789,-0.01,-0.05,1.11,0.61,-0.85,-1.34,869.14,32.59
4590827,-0.01,-0.06,1.1,0.43,-1.95,-1.34,869.12,32.58
4590866,-0.03,-0.06,1.02,0.73,-2.93,-1.4,869.11,32.59
4590904,-0.04,-0.06,1.01,0.49,-4.03,-1.16,869.12,32.58
4590942,-0.01,-0.05,1.03,0.18,-5.07,-1.53,869.09,32.58
4590980,-0.04,-0.06,1.05,0.06,-4.82,-1.59,869.06,32.57
4591018,-0.02,-0.06,1.04,-0.24,-4.58,-1.59,869.08,32.58
4591056,-0.02,-0.05,1.04,-0.73,-4.64,-1.77,869.07,32.59
4591094,-0.03,-0.03,1.08,-0.79,-3.97,-2.01,869.06,32.59
4591144,-0.02,-0.04,1.1,-0.79,-3.23,-2.26,869.05,32.58
4591182,-0.06,-0.04,1.13,-0.61,-1.71,-2.44,869.09,32.59
4591221,-0.03,-0.05,1.1,0.0,-1.28,-2.62,869.08,32.57
4591259,-0.03,-0.04,1.11,0.31,-0.92,-3.11,869.07,32.58
4591297,-0.02,-0.04,1.07,0.67,0.31,-3.3,869.12,32.59
4591335,-0.04,-0.05,1.05,0.67,1.1,-3.54,869.14,32.58
4591373,-0.04,-0.05,1.02,1.16,2.2,-3.72,869.11,32.58
4591411,-0.04,-0.05,1.04,1.53,2.2,-3.72,869.16,32.58
4591449,-0.02,-0.05,1.01,1.53,3.6,-3.97,869.19,32.59
4591499,-0.03,-0.04,1.05,1.53,4.03,-4.03,869.16,32.56
4591537,-0.03,-0.05,1.05,1.59,4.64,-4.09,869.17,32.58
4591576,-0.05,-0.05,1.04,1.46,3.66,-4.21,869.17,32.57
4591614,-0.03,-0.04,1.1,1.59,4.15,-4.09,869.17,32.57
4591652,-0.02,-0.05,1.05,1.4,4.03,-4.15,869.22,32.58
4591690,-0.03,-0.03,1.09,1.34,3.72,-4.15,869.17,32.59
4591728,-0.01,-0.05,1.06,1.34,2.93,-3.97,869.21,32.58
4591766,-0.03,-0.05,1.06,1.22,2.62,-3.97,869.18,32.6
4591804,-0.04,-0.04,1.05,1.4,2.32,-3.85,869.15,32.59
4591854,-0.04,-0.04,1.05,1.53,1.34,-3.91,869.19,32.59
4591892,-0.03,-0.05,1.01,1.71,1.77,-3.72,869.19,32.57
4591931,-0.03,-0.05,1.01,1.65,1.89,-3.91,869.17,32.57
4591969,-0.03,-0.07,0.95,2.14,3.36,-3.91,869.26,32.58
4592007,-0.04,-0.07,0.91,2.38,4.09,-4.03,869.21,32.58
4592045,-0.03,-0.05,0.94,2.69,5.74,-4.27,869.2,32.58
4592083,-0.01,-0.06,0.87,2.75,7.93,-4.33,869.16,32.58
4592121,-0.05,-0.06,0.86,2.87,8.54,-4.46,869.12,32.58
4592160,-0.08,-0.06,0.86,2.69,10.62,-4.27,869.17,32.59
4592198,-0.02,-0.06,0.97,2.5,12.45,-4.52,869.15,32.58
4592248,-0.04,-0.06,0.96,2.56,14.65,-4.58,869.13,32.58
4592286,-0.04,-0.05,1.0,2.5,14.95,-4.21,869.13,32.59
4592324,-0.04,-0.06,0.98,2.87,16.42,-4.33,869.13,32.59
4592362,-0.05,-0.03,1.05,2.69,15.32,-4.09,869.16,32.6
4592400,-0.05,-0.02,1.13,3.05,16.72,-3.91,869.12,32.59
4592439,-0.05,-0.04,1.07,3.23,15.2,-3.72,869.14,32.61
4592477,-0.07,-0.04,1.22,3.78,13.31,-3.66,869.05,32.6
4592515,-0.05,-0.06,1.05,3.11,15.26,-3.54,869.07,32.59
4592553,-0.07,-0.0,1.19,3.11,13.92,-3.36,869.02,32.6
4592603,-0.05,-0.05,1.04,3.05,15.99,-3.23,869.01,32.6
4592641,-0.12,-0.01,1.22,2.93,12.08,-3.17,868.98,32.59
4592679,-0.09,-0.05,1.1,2.75,14.22,-2.62,868.96,32.59
4592717,-0.06,-0.02,1.12,1.95,12.7,-2.62,868.92,32.58
4592756,-0.09,-0.02,1.11,2.26,13.55,-2.26,868.93,32.62
4592794,-0.07,-0.03,1.09,1.95,11.05,-1.95,868.94,32.61
4592832,-0.07,-0.03,1.16,2.01,11.47,-1.59,868.99,32.61
4592870,-0.06,-0.04,1.1,1.89,10.38,-1.53,868.98,32.61
4592908,-0.1,-0.01,1.13,1.83,8.18,-1.1,868.92,32.6
4592984,-0.05,-0.02,1.05,1.53,5.49,-0.92,868.95,32.58
4593022,-0.06,-0.04,1.0,1.65,4.76,-0.73,868.9,32.59
4593061,-0.06,-0.04,0.96,1.77,2.5,-0.49,868.96,32.6
4593150,-0.04,-0.04,0.96,1.53,0.0,-0.61,868.91,32.54
4593188,-0.08,-0.04,0.97,1.46,0.24,-0.49,868.93,32.56
4593226,-0.06,-0.05,0.95,1.04,-0.85,-0.67,868.88,32.57
4593264,-0.04,-0.04,1.0,0.31,-2.14,-0.55,868.93,32.58
4593303,-0.05,-0.04,0.98,0.12,-2.62,-0.49,868.84,32.57
4593341,-0.06,-0.05,0.97,-0.06,-3.05,-0.43,868.88,32.57
4593379,-0.06,-0.05,0.99,-0.31,-3.23,-0.37,868.92,32.57
4593429,-0.07,-0.04,0.99,-0.55,-4.33,-0.55,868.83,32.56
4593467,-0.06,-0.04,1.01,-0.73,-4.46,-0.55,868.81,32.56
4593505,-0.05,-0.05,0.99,-0.73,-3.6,-0.67,868.83,32.57
4593543,-0.05,-0.03,1.03,-0.67,-3.78,-0.67,868.92,32.57
4593581,-0.07,-0.04,0.97,-0.67,-3.42,-0.73,868.94,32.55
4593619,-0.07,-0.03,1.0,-0.79,-2.93,-0.85,868.93,32.56
4593658,-0.07,-0.04,0.98,-0.67,-0.92,-0.98,868.97,32.57
4593696,-0.05,-0.03,1.01,-0.37,-0.67,-1.04,868.99,32.56
4593734,-0.06,-0.04,1.02,0.24,0.37,-1.1,868.97,32.56
4593784,-0.07,-0.03,1.03,0.67,1.34,-1.04,868.99,32.56
4593822,-0.05,-0.03,1.03,0.55,2.99,-1.4,868.93,32.54
4593860,-0.05,-0.03,1.06,0.92,3.36,-1.4,868.94,32.54
4593898,-0.06,-0.04,1.04,0.85,3.23,-1.16,868.97,32.57
4593936,-0.05,-0.03,1.02,0.92,2.5,-1.34,868.94,32.56
4593974,-0.04,-0.03,1.07,0.98,2.08,-1.28,868.89,32.55
4594012,-0.03,-0.03,1.04,0.79,1.53,-1.16,868.93,32.57
4594051,-0.06,-0.02,1.06,0.61,-0.06,-1.04,868.88,32.56
4594089,-0.06,-0.03,1.06,0.67,-0.43,-1.04,868.91,32.56
4594139,-0.04,-0.03,1.09,0.61,-1.53,-1.16,868.86,32.55
4594177,-0.04,-0.03,1.05,0.73,-1.95,-1.04,868.85,32.57
4594215,-0.06,-0.02,1.04,0.67,-2.38,-1.04,868.95,32.59
4594253,-0.05,-0.03,1.04,1.04,-2.08,-1.16,868.87,32.57
4594291,-0.04,-0.03,1.05,1.04,-3.17,-1.34,868.94,32.58
4594329,-0.07,-0.04,1.02,1.04,-2.56,-1.46,868.91,32.59
4594368,-0.07,-0.03,1.02,1.28,-2.44,-1.59,868.94,32.59
4594406,-0.05,-0.03,1.05,1.59,-2.38,-1.71,868.93,32.57
4594444,-0.05,-0.06,1.04,1.59,-2.08,-1.77,868.97,32.58
4594482,-0.05,-0.03,1.05,1.83,-1.95,-1.71,868.99,32.58
4594532,-0.06,-0.03,1.01,2.08,-0.55,-1.71,869.07,32.56
4594570,-0.06,-0.03,1.06,2.32,0.31,-1.71,869.06,32.58
4594608,-0.06,-0.04,1.04,2.69,0.24,-1.59,869.02,32.56
4594646,-0.07,-0.03,1.07,2.99,0.06,-1.71,869.03,32.57
4594684,-0.05,-0.03,1.08,3.17,0.79,-1.53,869.02,32.56
4594722,-0.03,-0.04,1.06,3.23,1.1,-1.4,869.02,32.58
4594761,-0.05,-0.03,1.03,3.17,0.85,-1.34,868.95,32.57
4594799,-0.06,-0.02,0.99,3.36,0.92,-1.28,868.96,32.57
4594837,-0.05,-0.03,1.0,3.11,0.55,-1.22,868.98,32.57
4594887,-0.04,-0.05,0.97,2.99,0.92,-1.46,869.03,32.56
4594925,-0.04,-0.04,0.96,2.99,1.46,-1.4,869.02,32.58
4594963,-0.05,-0.05,0.98,3.23,2.5,-1.34,869.02,32.56
4595001,-0.05,-0.05,0.93,3.3,3.3,-1.46,869.02,32.57
4595039,-0.05,-0.04,0.94,3.17,3.66,-1.4,869.01,32.59
4595078,-0.07,-0.05,0.98,3.54,3.36,-1.16,868.9,32.58
4595116,-0.04,-0.06,0.97,3.23,3.23,-1.34,868.97,32.58
4595154,-0.04,-0.05,0.99,3.17,2.81,-1.22,869.01,32.58
4595192,-0.02,-0.05,0.99,3.6,3.91,-1.28,868.94,32.57
4595230,-0.05,-0.07,0.94,3.6,3.91,-1.04,869.04,32.59
4595280,-0.07,-0.04,0.95,3.66,4.58,-1.22,869.06,32.57
4595318,-0.05,-0.07,0.81,3.48,6.71,-1.4,869.0,32.57
4595356,-0.08,-0.05,0.8,3.05,5.8,-1.22,869.03,32.57
4595394,-0.0,-0.07,0.87,2.62,6.04,-1.34,868.91,32.56
4595432,-0.05,-0.07,0.84,2.32,6.29,-1.28,868.96,32.57
4595471,-0.06,-0.05,0.88,1.71,6.47,-0.92,868.95,32.57
4595509,-0.04,-0.06,0.86,1.16,7.14,-1.04,868.96,32.57
4595547,-0.06,-0.05,0.87,0.37,5.98,-1.04,868.9,32.57
4595585,-0.06,-0.06,0.88,-0.12,5.55,-0.61,868.97,32.58
4595635,-0.06,-0.06,0.88,-0.79,5.31,-0.67,868.91,32.54
4595673,-0.04,-0.05,0.93,-0.98,3.91,-0.43,868.88,32.56
4595711,-0.04,-0.05,0.96,-0.98,0.79,-0.37,868.87,32.56
4595749,-0.06,-0.05,0.97,-1.04,-0.92,-0.06,868.79,32.56
4595787,-0.03,-0.06,0.95,-1.65,-1.16,-0.18,868.82,32.56
4595826,-0.06,-0.04,1.01,-1.71,-2.99,0.06,868.85,32.56
4595864,-0.04,-0.04,1.01,-1.95,-4.7,0.18,868.83,32.56
4595902,-0.06,-0.04,1.06,-2.01,-4.94,0.06,868.88,32.55
4595940,-0.05,-0.04,1.1,-1.83,-4.88,0.12,868.88,32.55
4596017,-0.06,-0.01,1.19,-1.65,-5.37,0.06,868.94,32.52
4596055,-0.06,-0.04,1.19,-1.28,-2.99,0.0,868.88,32.53
4596094,-0.03,-0.03,1.24,-1.16,-2.62,-0.18,868.93,32.53
4596184,-0.05,-0.02,1.17,-0.12,0.55,-0.12,868.9,32.5
4596222,-0.06,-0.01,1.2,0.06,1.65,-0.06,868.89,32.5
4596260,-0.04,-0.04,1.16,0.98,2.62,-0.18,868.94,32.51
4596298,-0.04,-0.04,1.16,1.53,2.62,-0.12,868.89,32.52
4596336,-0.03,-0.03,1.14,1.71,3.72,0.06,868.95,32.52
4596374,-0.03,-0.03,1.13,1.95,3.42,-0.06,868.97,32.52
4596413,-0.04,-0.03,1.11,2.01,3.97,0.0,868.94,32.53
4596462,-0.03,-0.05,1.1,2.44,3.91,0.0,868.92,32.51
4596500,-0.04,-0.05,1.05,2.38,3.54,0.12,868.98,32.52
4596539,-0.02,-0.03,1.06,2.62,3.42,0.0,868.92,32.51
4596577,-0.02,-0.04,1.0,2.32,3.91,-0.18,868.9,32.52
4596615,-0.03,-0.05,1.01,2.32,4.09,-0.12,868.9,32.5
4596653,-0.03,-0.06,1.02,2.32,4.21,0.0,868.86,32.51
4596691,-0.02,-0.05,1.01,2.08,3.72,-0.18,868.86,32.52
4596729,-0.02,-0.03,1.06,2.01,3.48,-0.18,868.86,32.51
4596767,-0.01,-0.05,1.01,1.95,4.15,-0.12,868.86,32.52
4596817,-0.03,-0.04,1.0,1.53,2.99,-0.24,868.84,32.5
4596855,-0.0,-0.06,0.99,1.4,3.54,-0.43,868.84,32.51
4596893,-0.01,-0.05,0.99,1.28,3.17,-0.43,868.86,32.51
4596931,-0.03,-0.04,0.97,1.22,3.36,-0.55,868.82,32.51
4596970,-0.03,-0.05,1.01,1.16,3.72,-0.49,868.85,32.52
4597008,-0.02,-0.05,1.05,1.34,3.05,-0.79,868.83,32.52
4597046,-0.03,-0.04,1.08,1.83,2.44,-0.73,868.82,32.52
4597084,-0.03,-0.04,1.05,1.83,2.93,-0.67,868.81,32.54
4597122,-0.02,-0.04,1.07,2.01,2.56,-0.61,868.82,32.53
4597160,-0.03,-0.03,1.08,2.2,2.5,-0.61,868.82,32.52
4597210,-0.04,-0.04,1.08,2.38,2.44,-0.67,868.79,32.51
4597249,-0.02,-0.05,1.07,2.62,2.75,-0.85,868.82,32.52
4597287,-0.03,-0.04,0.99,2.87,3.72,-0.92,868.87,32.53
4597325,-0.03,-0.03,0.94,3.17,4.33,-0.85,868.84,32.53
4597363,-0.01,-0.05,0.94,3.36,4.7,-1.16,868.79,32.52
4597401,-0.06,-0.06,0.83,3.23,5.43,-1.22,868.77,32.54
4597440,-0.06,-0.04,0.85,3.23,4.88,-0.98,868.8,32.53
4597478,-0.04,-0.04,0.85,3.3,5.37,-1.22,868.83,32.54
4597516,-0.05,-0.04,0.88,3.17,4.46,-1.16,868.73,32.52
4597566,-0.03,-0.06,0.89,3.11,5.86,-0.92,868.74,32.51
4597604,-0.03,-0.06,0.91,2.93,5.55,-1.16,868.81,32.54
4597642,-0.05,-0.05,0.88,2.81,5.68,-0.98,868.83,32.53
4597680,-0.05,-0.04,0.86,2.56,4.82,-0.85,868.75,32.52
4597718,-0.05,-0.05,0.86,2.38,5.43,-0.92,868.73,32.52
4597757,-0.05,-0.05,0.85,2.38,5.25,-0.98,868.77,32.53
4597795,-0.04,-0.05,0.88,2.75,4.88,-0.79,868.75,32.54
4597833,-0.03,-0.06,0.83,2.56,4.94,-0.67,868.77,32.54
4597871,-0.04,-0.04,0.88,2.44,4.7,-0.61,868.76,32.53
4597910,-0.05,-0.05,0.86,2.69,4.82,-0.67,868.77,32.54
4597959,-0.05,-0.06,0.86,2.26,3.54,-0.55,868.79,32.54
4597998,-0.06,-0.05,0.83,2.2,3.85,-0.55,868.75,32.55
4598036,-0.02,-0.04,0.87,2.2,3.23,-0.43,868.75,32.53
4598074,-0.03,-0.04,0.91,2.2,2.2,-0.18,868.68,32.53
4598112,-0.06,-0.06,0.93,1.95,1.89,-0.24,868.66,32.53
4598150,-0.04,-0.06,0.99,1.89,1.46,-0.12,868.73,32.54
4598188,-0.05,-0.04,1.06,1.59,-0.06,0.0,868.73,32.54
4598226,-0.02,-0.04,1.08,1.46,0.24,0.0,868.65,32.53
4598265,-0.02,-0.03,1.1,1.53,0.24,-0.06,868.67,32.54
4598314,-0.03,-0.03,1.13,1.59,0.61,-0.18,868.71,32.53
4598353,-0.04,-0.03,1.08,1.53,1.1,-0.31,868.68,32.52
4598391,-0.05,-0.02,1.1,1.83,2.14,-0.43,868.64,32.53
4598429,-0.03,-0.03,1.09,2.2,3.85,-0.55,868.68,32.53
4598467,-0.05,-0.04,1.09,2.32,4.09,-0.61,868.67,32.53
4598505,-0.04,-0.04,1.07,2.81,5.43,-0.73,868.65,32.53
4598543,-0.03,-0.04,1.04,2.87,5.74,-0.85,868.63,32.55
4598581,-0.04,-0.03,1.05,2.87,6.53,-0.79,868.62,32.52
4598619,-0.04,-0.04,1.02,2.99,7.02,-0.73,868.67,32.53
4598658,-0.04,-0.04,1.04,2.81,6.84,-0.92,868.63,32.54
4598708,-0.04,-0.05,1.0,2.99,7.81,-0.79,868.71,32.54
4598746,-0.03,-0.05,1.02,2.87,7.26,-0.73,868.64,32.55
4598784,-0.03,-0.05,0.97,2.93,7.81,-0.55,868.69,32.54
4598822,-0.03,-0.05,0.95,2.87,6.65,-0.49,868.71,32.52
4598860,-0.03,-0.05,0.92,2.62,6.47,-0.61,868.65,32.54
4598898,-0.04,-0.05,0.92,2.56,5.86,-0.43,868.71,32.54
4598936,-0.03,-0.06,0.94,2.38,5.49,-0.55,868.61,32.55
4598975,-0.04,-0.06,0.95,2.44,5.07,-0.43,868.6,32.54
4599013,-0.04,-0.06,0.97,2.01,4.58,-0.49,868.55,32.53
4599090,-0.04,-0.05,0.96,1.77,5.49,-0.43,868.59,32.52
4599128,-0.04,-0.06,0.95,1.59,5.31,-0.61,868.59,32.52
4599166,-0.04,-0.06,0.95,1.4,5.37,-0.49,868.58,32.51
4599256,-0.03,-0.05,0.98,1.28,5.0,-0.49,868.6,32.49
4599294,-0.03,-0.06,0.99,1.04,4.88,-0.55,868.55,32.49
4599332,-0.03,-0.05,1.01,0.85,4.7,-0.55,868.55,32.5
4599370,-0.04,-0.05,1.05,0.79,4.52,-0.49,868.57,32.5
4599409,-0.04,-0.05,1.03,0.67,5.43,-0.55,868.55,32.5
4599447,-0.04,-0.04,1.06,0.79,5.37,-0.67,868.54,32.51
4599485,-0.05,-0.05,1.05,0.85,6.59,-0.67,868.55,32.5
4599535,-0.04,-0.05,1.05,0.92,6.23,-0.73,868.58,32.5
4599573,-0.03,-0.05,1.05,1.04,6.47,-0.73,868.6,32.51
4599611,-0.04,-0.05,1.02,0.85,6.1,-0.61,868.59,32.52
4599649,-0.04,-0.05,1.05,0.98,5.98,-0.49,868.5,32.5
4599687,-0.05,-0.06,1.03,0.92,5.8,-0.55,868.56,32.51
4599725,-0.03,-0.06,1.05,0.85,5.43,-0.49,868.52,32.51
4599763,-0.04,-0.05,1.06,0.61,5.49,-0.55,868.48,32.5
4599802,-0.04,-0.05,1.07,0.31,5.25,-0.55,868.51,32.52
4599840,-0.03,-0.06,1.07,0.61,5.19,-0.49,868.49,32.51
4599889,-0.04,-0.04,1.09,0.43,4.52,-0.49,868.48,32.5
4599928,-0.05,-0.05,1.07,0.67,4.27,-0.55,868.48,32.49
4599966,-0.04,-0.05,1.07,0.61,3.6,-0.61,868.47,32.48
4600004,-0.03,-0.05,1.09,0.79,3.3,-0.55,868.46,32.48
4600042,-0.04,-0.05,1.07,0.92,2.44,-0.61,868.49,32.5
4600080,-0.04,-0.04,1.08,1.16,2.08,-0.67,868.45,32.48
4600118,-0.04,-0.05,1.06,1.28,1.59,-0.61,868.42,32.49
4600156,-0.04,-0.05,1.06,1.34,1.71,-0.61,868.45,32.49
4600194,-0.05,-0.05,1.05,1.4,1.89,-0.73,868.42,32.49
4600233,-0.05,-0.05,1.04,1.28,1.89,-0.85,868.46,32.5
4600282,-0.04,-0.05,1.03,1.16,2.32,-1.04,868.45,32.48
4600320,-0.05,-0.05,1.03,1.1,2.62,-0.85,868.42,32.48
4600359,-0.05,-0.05,1.03,1.1,3.11,-0.98,868.4,32.49
4600397,-0.05,-0.05,1.03,1.34,3.42,-0.92,868.46,32.49
4600435,-0.05,-0.05,1.01,1.46,3.78,-1.1,868.45,32.5
4600473,-0.05,-0.05,1.03,1.34,3.97,-1.1,868.38,32.49
4600511,-0.07,-0.04,1.03,1.46,4.76,-0.98,868.46,32.5
4600549,-0.07,-0.05,1.02,1.59,4.94,-1.04,868.39,32.5
4600587,-0.06,-0.05,1.03,1.89,5.13,-1.04,868.36,32.49
4600637,-0.06,-0.05,1.0,1.95,5.31,-0.92,868.32,32.47
4600675,-0.05,-0.04,1.0,1.95,5.37,-0.79,868.38,32.5
4600713,-0.06,-0.05,0.98,1.89,5.68,-0.73,868.3,32.49
4600751,-0.06,-0.05,0.98,1.77,5.43,-0.73,868.34,32.5
4600790,-0.07,-0.05,1.0,1.95,5.13,-0.43,868.36,32.49
4600828,-0.05,-0.05,1.01,1.65,5.13,-0.43,868.33,32.49
4600866,-0.05,-0.05,1.0,1.53,5.13,-0.49,868.34,32.5
4600904,-0.05,-0.05,1.02,1.65,4.39,-0.31,868.36,32.5
4600942,-0.05,-0.04,1.02,1.59,4.27,-0.24,868.36,32.51
4600980,-0.05,-0.05,1.01,1.77,3.85,-0.18,868.3,32.5
4601030,-0.05,-0.05,1.02,1.34,3.48,0.0,868.34,32.47
4601068,-0.05,-0.05,1.02,1.46,3.3,-0.18,868.32,32.5
4601106,-0.06,-0.05,1.04,1.1,2.81,0.0,868.3,32.49
4601144,-0.05,-0.05,1.04,1.28,2.5,-0.06,868.27,32.48
4601182,-0.04,-0.05,1.05,1.22,2.44,0.0,868.29,32.5
4601220,-0.05,-0.05,1.07,1.53,2.32,-0.12,868.31,32.48
4601258,-0.05,-0.05,1.07,1.59,2.75,-0.06,868.19,32.49
4601297,-0.07,-0.05,1.08,1.46,2.62,0.12,868.27,32.49
4601335,-0.06,-0.04,1.11,1.65,3.54,-0.12,868.29,32.5
4601385,-0.06,-0.04,1.11,2.08,5.43,-0.18,868.23,32.48
4601423,-0.05,-0.04,1.12,2.5,7.08,-0.18,868.22,32.49
4601461,-0.07,-0.05,1.08,2.81,8.67,-0.18,868.16,32.49
4601499,-0.07,-0.05,1.06,3.23,11.29,-0.12,868.15,32.5
4601537,-0.08,-0.05,1.01,3.91,13.79,0.06,868.17,32.49
4601575,-0.07,-0.05,1.01,4.33,15.93,0.12,868.11,32.5
4601614,-0.06,-0.06,0.97,4.46,16.78,0.37,868.06,32.49
4601652,-0.06,-0.06,0.99,4.76,17.52,0.55,868.12,32.5
4601690,-0.07,-0.06,0.96,4.94,18.37,0.92,868.1,32.49
4601728,-0.05,-0.06,0.96,4.58,17.82,1.28,868.08,32.5
4601778,-0.06,-0.06,0.93,4.64,18.07,1.77,868.07,32.47
4601816,-0.05,-0.06,0.92,4.03,17.88,2.08,868.12,32.5
4601854,-0.04,-0.06,0.94,3.72,17.52,2.14,868.07,32.49
4601892,-0.05,-0.05,0.92,3.48,16.97,2.69,868.0,32.48
4601930,-0.05,-0.05,0.93,3.17,16.66,2.93,868.06,32.48
4601968,-0.04,-0.06,0.93,2.93,16.72,3.36,868.02,32.48
4602007,-0.03,-0.07,0.93,2.62,16.6,3.54,868.03,32.49
4602045,-0.03,-0.06,0.93,2.26,16.78,3.78,867.94,32.47
4602083,-0.04,-0.05,0.95,1.89,16.97,4.09,868.04,32.49
4602159,-0.02,-0.06,0.99,1.16,17.4,4.39,867.94,32.44
4602197,-0.02,-0.06,1.0,0.49,17.27,4.46,868.01,32.45
4602235,-0.01,-0.07,1.02,0.18,16.54,4.82,867.96,32.47
4602324,0.0,-0.06,1.1,-1.16,14.4,4.94,868.06,32.42
4602362,0.0,-0.06,1.13,-0.85,14.1,4.94,868.05,32.44
4602401,0.0,-0.06,1.14,-0.49,13.06,4.94,868.05,32.45
4602439,0.0,-0.05,1.16,0.18,12.51,5.0,868.04,32.45
4602477,0.01,-0.06,1.13,0.85,12.39,4.82,867.99,32.44
4602515,0.01,-0.06,1.12,1.46,12.51,4.88,868.01,32.45
4602553,0.01,-0.06,1.1,1.71,12.57,4.7,867.96,32.45
4602603,0.01,-0.05,1.08,1.59,12.45,4.64,867.94,32.45
4602641,0.02,-0.07,1.06,0.55,12.57,4.46,867.87,32.45
4602679,0.02,-0.06,1.07,-0.06,12.51,4.27,867.91,32.45
4602717,0.03,-0.07,1.08,-0.61,12.82,4.09,867.92,32.46
4602755,0.03,-0.07,1.08,-0.98,12.63,3.97,867.88,32.46
4602794,0.03,-0.06,1.07,-1.4,12.82,3.54,867.86,32.47
4602832,0.04,-0.07,1.08,-1.89,12.21,3.36,867.87,32.48
4602870,0.04,-0.07,1.11,-2.38,12.02,3.11,867.85,32.47
4602908,0.04,-0.06,1.12,-2.5,11.66,3.11,867.89,32.46
4602958,0.05,-0.07,1.14,-2.87,11.35,2.69,867.89,32.47
4602996,0.04,-0.06,1.13,-3.17,10.8,2.26,867.8,32.46
4603034,0.04,-0.06,1.17,-3.23,10.38,2.01,867.79,32.47
4603072,0.05,-0.06,1.18,-3.6,10.38,1.59,867.85,32.47
4603111,0.04,-0.05,1.21,-3.54,9.46,1.4,867.81,32.47
4603149,0.06,-0.05,1.22,-3.91,9.28,0.98,867.75,32.45
4603187,0.06,-0.05,1.23,-4.09,8.42,0.73,867.72,32.47
4603225,0.06,-0.06,1.27,-4.09,7.93,0.31,867.74,32.46
4603263,0.05,-0.05,1.28,-4.15,7.63,-0.12,867.79,32.47
4603301,0.05,-0.06,1.26,-3.91,7.81,-0.18,867.74,32.47
4603351,0.06,-0.05,1.27,-3.36,6.9,-0.67,867.76,32.46
4603389,0.07,-0.05,1.26,-3.23,6.77,-1.16,867.71,32.46
4603427,0.05,-0.05,1.27,-2.87,6.41,-1.46,867.72,32.48
4603465,0.05,-0.06,1.25,-2.62,6.29,-1.89,867.67,32.47
4603504,0.05,-0.06,1.24,-2.62,6.23,-2.14,867.64,32.47
4603542,0.06,-0.06,1.22,-2.38,6.9,-2.75,867.65,32.49
4603580,0.06,-0.05,1.22,-2.44,6.9,-3.3,867.59,32.48
4603618,0.06,-0.05,1.2,-2.26,7.45,-3.6,867.63,32.47
4603656,0.06,-0.06,1.18,-2.26,7.45,-4.09,867.65,32.47
4603706,0.06,-0.06,1.14,-2.32,8.36,-4.52,867.61,32.46
4603744,0.05,-0.06,1.14,-2.38,8.48,-4.88,867.6,32.47
4603782,0.06,-0.07,1.11,-2.62,9.03,-5.31,867.68,32.48
4603820,0.06,-0.07,1.08,-2.62,9.28,-5.74,867.57,32.48
4603858,0.05,-0.07,1.07,-2.62,9.03,-6.29,867.63,32.5
4603897,0.05,-0.07,1.03,-2.87,9.46,-6.41,867.64,32.49
4603935,0.06,-0.07,1.01,-3.11,8.54,-6.84,867.6,32.47
4603973,0.04,-0.07,0.97,-3.78,7.63,-7.02,867.63,32.49
4604011,0.03,-0.07,1.01,-4.27,5.74,-7.39,867.62,32.5
4604049,0.04,-0.07,1.0,-5.0,5.31,-7.81,867.54,32.48
4604099,0.03,-0.06,1.05,-5.55,2.99,-8.0,867.55,32.47
4604137,0.03,-0.06,1.05,-5.86,3.78,-8.3,867.59,32.49
4604175,0.01,-0.04,1.11,-5.98,2.56,-8.24,867.57,32.48
4604214,0.01,-0.05,1.16,-6.1,2.93,-8.48,867.5,32.47
4604252,0.01,-0.04,1.19,-6.1,2.62,-8.79,867.48,32.48
4604290,-0.01,-0.04,1.23,-6.1,2.69,-9.09,867.52,32.5
4604328,0.0,-0.04,1.22,-6.29,2.81,-9.4,867.52,32.49
4604366,0.01,-0.03,1.28,-6.1,2.56,-9.28,867.56,32.5
4604404,-0.01,-0.04,1.26,-5.86,2.75,-9.46,867.55,32.48
4604454,-0.01,-0.02,1.28,-5.62,3.78,-9.52,867.48,32.48
4604492,-0.02,-0.02,1.26,-5.43,4.03,-9.7,867.55,32.5
4604530,-0.01,-0.02,1.28,-5.49,3.23,-9.58,867.47,32.49
4604569,-0.02,-0.02,1.31,-5.62,2.93,-9.77,867.51,32.49
4604607,-0.02,-0.03,1.27,-5.49,3.17,-9.64,867.45,32.47
4604645,-0.02,-0.03,1.28,-5.31,3.97,-9.58,867.46,32.48
4604683,-0.03,-0.02,1.25,-4.94,3.66,-9.64,867.52,32.48
4604721,-0.02,-0.03,1.24,-4.82,3.42,-9.64,867.44,32.49
4604759,-0.02,-0.03,1.22,-4.58,3.97,-9.58,867.49,32.48
4604798,-0.02,-0.03,1.21,-4.58,4.21,-9.58,867.45,32.48
4604847,-0.03,-0.02,1.2,-4.82,4.58,-9.77,867.4,32.47
4604886,-0.04,-0.03,1.19,-4.88,4.88,-9.58,867.34,32.48
4604924,-0.02,-0.03,1.26,-5.0,5.07,-9.34,867.39,32.49
4604962,-0.02,-0.03,1.25,-5.0,5.92,-9.4,867.37,32.48
4605000,-0.04,-0.01,1.29,-5.0,5.55,-9.22,867.34,32.49
4605038,-0.04,-0.02,1.26,-4.58,5.92,-9.03,867.32,32.5
4605076,-0.02,-0.02,1.27,-4.7,5.31,-8.97,867.27,32.49
4605114,-0.04,-0.02,1.26,-4.64,5.68,-8.91,867.31,32.5
4605153,-0.04,-0.02,1.25,-4.88,5.37,-8.67,867.32,32.5
4605228,-0.04,-0.01,1.29,-4.7,5.19,-8.61,867.3,32.48
4605266,-0.04,-0.02,1.28,-4.88,5.86,-8.24,867.22,32.47
4605304,-0.04,-0.01,1.3,-4.64,5.55,-8.12,867.23,32.48
4605394,-0.03,-0.0,1.32,-4.46,5.86,-7.75,867.17,32.45
4605432,-0.03,-0.01,1.31,-4.39,6.29,-7.75,867.19,32.47
4605470,-0.03,-0.02,1.3,-4.15,6.16,-7.75,867.19,32.47
4605508,-0.04,-0.01,1.29,-4.21,6.41,-7.51,867.28,32.47
4605546,-0.02,-0.01,1.29,-3.72,6.71,-7.39,867.13,32.49
4605584,-0.03,-0.02,1.23,-3.78,7.63,-7.45,867.16,32.48
4605634,-0.03,-0.02,1.24,-3.85,7.39,-7.45,867.14,32.48
4605672,-0.02,-0.02,1.23,-3.78,8.12,-7.51,867.1,32.48
4605711,-0.04,-0.01,1.22,-3.78,8.48,-7.39,867.15,32.48
4605749,-0.02,-0.01,1.24,-3.85,9.4,-7.45,867.11,32.49
4605787,-0.04,-0.02,1.22,-3.48,9.7,-7.63,867.1,32.48
4605825,-0.03,-0.02,1.23,-3.54,10.07,-7.51,867.08,32.49
4605863,-0.03,-0.03,1.21,-3.42,10.93,-7.39,867.04,32.47
4605901,-0.02,-0.02,1.2,-3.23,11.54,-7.63,867.06,32.48
4605939,-0.03,-0.02,1.18,-3.05,12.39,-7.51,867.01,32.48
4605989,-0.02,-0.03,1.16,-2.93,13.0,-7.57,867.03,32.45
4606027,-0.03,-0.02,1.16,-2.81,12.76,-7.51,867.03,32.46
4606066,-0.02,-0.02,1.15,-2.81,13.79,-7.39,867.02,32.48
4606104,-0.0,-0.02,1.18,-2.75,13.24,-7.26,867.0,32.47
4606142,-0.02,-0.02,1.17,-2.99,13.18,-7.14,866.89,32.46
4606180,-0.02,-0.03,1.14,-3.42,13.24,-7.02,866.96,32.46
4606218,-0.02,-0.02,1.17,-3.66,13.24,-6.9,866.92,32.46
4606256,-0.01,-0.02,1.13,-3.97,12.82,-6.65,866.94,32.47
4606294,-0.02,-0.02,1.16,-4.15,12.21,-6.71,866.95,32.47
4606333,-0.0,-0.03,1.15,-3.91,12.63,-6.59,866.89,32.47
4606382,0.0,-0.03,1.17,-3.91,11.35,-6.41,866.95,32.45
4606421,0.03,-0.02,1.15,-4.15,11.11,-6.53,866.83,32.45
4606459,-0.0,-0.02,1.15,-4.21,9.89,-6.41,866.79,32.47
4606497,0.0,-0.02,1.15,-4.58,9.58,-6.47,866.76,32.47
4606535,0.01,-0.02,1.16,-4.7,8.48,-6.41,866.8,32.46
4606573,-0.0,-0.01,1.19,-4.94,7.75,-6.41,866.74,32.46
4606611,-0.0,-0.01,1.16,-5.19,7.45,-6.47,866.69,32.47
4606649,0.0,-0.0,1.23,-5.49,6.77,-6.53,866.7,32.47
4606688,-0.0,-0.0,1.23,-5.43,6.71,-6.47,866.72,32.47
4606737,-0.01,-0.0,1.28,-5.49,5.98,-6.53,866.71,32.47
4606775,-0.0,-0.0,1.25,-5.55,5.25,-6.53,866.64,32.46
4606814,-0.0,0.0,1.27,-5.43,4.64,-6.47,866.59,32.45
4606852,-0.01,-0.0,1.24,-5.37,4.09,-6.47,866.67,32.46
4606890,-0.0,-0.01,1.25,-5.37,3.54,-6.41,866.67,32.47
4606928,-0.0,-0.0,1.21,-5.37,3.85,-6.59,866.63,32.46
4606966,-0.01,-0.0,1.21,-5.25,3.78,-6.65,866.64,32.47
4607004,0.01,-0.01,1.2,-5.31,2.87,-6.71,866.63,32.47
4607042,-0.0,-0.01,1.2,-5.13,2.69,-6.77,866.62,32.47
4607092,0.0,0.0,1.2,-5.13,2.81,-6.84,866.59,32.47
4607130,-0.0,-0.01,1.19,-5.31,3.42,-7.2,866.61,32.47
4607168,-0.0,-0.0,1.19,-5.37,3.11,-7.08,866.6,32.48
4607206,0.0,-0.01,1.21,-5.43,3.17,-7.14,866.61,32.46
4607245,-0.0,-0.01,1.16,-5.31,3.11,-7.2,866.55,32.47
4607283,-0.01,-0.0,1.19,-5.25,2.32,-7.26,866.5,32.46
4607321,0.0,-0.02,1.14,-5.13,2.56,-7.51,866.54,32.46
4607359,0.0,-0.02,1.15,-5.13,2.38,-7.45,866.59,32.48
4607397,-0.01,-0.02,1.13,-5.07,2.5,-7.57,866.59,32.48
4607435,-0.01,-0.02,1.13,-5.07,1.71,-7.63,866.55,32.47
4607485,-0.0,-0.02,1.1,-5.0,1.65,-7.81,866.56,32.47
4607523,-0.0,-0.02,1.08,-5.31,1.34,-7.81,866.49,32.47
4607561,-0.0,-0.02,1.08,-5.43,2.2,-7.93,866.52,32.47
4607599,-0.0,-0.01,1.1,-5.55,2.08,-8.12,866.51,32.48
4607638,-0.01,-0.01,1.11,-5.8,2.2,-8.12,866.48,32.47
4607676,0.0,-0.02,1.13,-5.74,2.08,-8.24,866.51,32.48
4607714,-0.0,-0.02,1.15,-5.8,2.32,-8.24,866.47,32.48
4607752,-0.0,-0.01,1.14,-5.86,2.2,-8.36,866.44,32.49
4607790,-0.0,0.0,1.15,-5.8,1.77,-8.36,866.45,32.48
4607840,0.0,-0.0,1.16,-5.92,2.08,-8.61,866.44,32.48
4607878,-0.0,-0.0,1.18,-6.16,1.65,-8.73,866.38,32.48
4607916,-0.01,-0.0,1.21,-6.04,2.01,-8.79,866.39,32.49
4607954,0.0,0.0,1.22,-5.86,2.26,-8.91,866.46,32.49
4607992,-0.0,0.01,1.25,-5.68,2.26,-9.03,866.39,32.49
4608031,-0.01,0.0,1.2,-5.37,2.5,-9.03,866.35,32.49
4608069,-0.02,0.01,1.23,-5.49,2.44,-9.16,866.38,32.5
4608107,0.0,0.01,1.24,-5.43,3.11,-9.28,866.35,32.49
4608145,0.0,0.02,1.24,-5.31,2.69,-9.28,866.35,32.5
4608221,-0.01,0.02,1.26,-5.25,2.93,-9.34,866.36,32.46
4608259,-0.01,0.01,1.28,-5.13,2.56,-9.28,866.36,32.46
4608297,-0.01,0.01,1.28,-4.94,2.01,-9.03,866.33,32.46
4608386,-0.01,0.01,1.24,-5.13,2.14,-9.03,866.33,32.42
4608424,-0.02,0.01,1.23,-5.07,1.46,-9.03,866.3,32.44
4608462,-0.02,0.01,1.21,-5.19,1.59,-9.09,866.36,32.45
4608501,-0.02,0.02,1.21,-5.43,1.83,-8.79,866.32,32.45
4608539,-0.02,0.01,1.25,-4.94,1.83,-8.85,866.32,32.46
4608577,-0.01,0.0,1.23,-5.07,1.59,-8.91,866.38,32.46
4608615,-0.02,0.01,1.26,-4.82,1.89,-8.79,866.4,32.47
4608665,-0.01,0.0,1.21,-4.94,2.75,-8.91,866.35,32.46
4608703,-0.01,0.01,1.22,-4.82,2.5,-9.03,866.38,32.46
4608741,-0.02,-0.0,1.19,-4.7,2.75,-9.16,866.34,32.46
4608779,-0.02,-0.01,1.16,-4.52,2.93,-8.91,866.3,32.47
4608817,-0.01,0.0,1.16,-4.58,3.3,-9.09,866.27,32.47
4608855,-0.01,-0.0,1.14,-4.88,3.17,-8.91,866.37,32.47
4608893,-0.01,-0.01,1.15,-4.82,2.87,-8.91,866.33,32.48
4608931,-0.0,-0.01,1.14,-4.7,3.11,-9.03,866.33,32.48
4608970,-0.01,-0.01,1.13,-4.7,3.17,-8.97,866.32,32.49
4609019,-0.02,0.0,1.14,-4.76,2.56,-8.97,866.29,32.47
4609057,-0.02,-0.01,1.14,-4.64,2.69,-8.91,866.4,32.48
4609096,-0.01,-0.01,1.13,-4.76,2.44,-8.91,866.28,32.48
4609134,-0.01,-0.01,1.16,-5.0,2.38,-8.85,866.34,32.47
4609172,-0.01,-0.01,1.15,-5.0,2.81,-8.91,866.29,32.48
4609210,-0.01,-0.0,1.16,-5.13,2.87,-8.85,866.28,32.48
4609248,-0.01,-0.01,1.16,-5.0,3.23,-8.91,866.28,32.48
4609286,-0.01,-0.01,1.15,-4.94,3.23,-9.09,866.28,32.47
4609324,-0.02,-0.0,1.16,-5.19,3.6,-9.03,866.35,32.49
4609362,-0.01,-0.01,1.15,-5.13,3.85,-9.09,866.28,32.48
4609412,-0.01,-0.0,1.14,-5.0,3.78,-9.16,866.3,32.48
4609450,-0.01,-0.01,1.12,-5.13,3.66,-9.28,866.29,32.47
4609488,-0.01,-0.01,1.14,-5.0,3.91,-9.22,866.33,32.48
4609527,0.0,-0.01,1.12,-5.0,4.03,-9.22,866.33,32.48
4609565,-0.01,-0.01,1.1,-5.25,3.78,-9.09,866.3,32.47
4609603,-0.03,-0.0,1.09,-5.55,3.36,-9.03,866.3,32.48
4609641,-0.01,-0.01,1.13,-5.55,3.05,-9.16,866.34,32.47
4609679,-0.0,-0.02,1.12,-5.86,2.93,-9.16,866.29,32.47
4609717,-0.01,-0.0,1.14,-5.92,2.32,-8.85,866.26,32.46
4609767,-0.01,-0.0,1.14,-5.98,2.01,-8.73,866.27,32.46
4609805,-0.02,-0.0,1.12,-6.16,1.34,-8.67,866.32,32.48
4609843,-0.02,-0.0,1.14,-6.16,1.59,-8.61,866.32,32.48
4609881,-0.02,-0.01,1.12,-6.23,1.46,-8.79,866.33,32.47
4609920,-0.02,-0.0,1.13,-6.41,1.46,-8.79,866.34,32.48
4609958,-0.02,-0.0,1.14,-6.1,2.08,-8.73,866.29,32.47
4609996,-0.02,-0.01,1.15,-5.92,1.89,-8.85,866.32,32.46
4610034,-0.02,0.0,1.16,-5.8,2.14,-8.91,866.28,32.46
4610072,-0.02,-0.0,1.16,-5.68,2.56,-8.85,866.33,32.48
4610122,-0.01,0.01,1.19,-5.43,2.44,-8.73,866.35,32.46
4610160,-0.02,0.0,1.18,-5.25,2.81,-8.73,866.35,32.47
4610198,-0.02,-0.0,1.19,-4.94,3.05,-8.61,866.33,32.46
4610236,-0.01,-0.0,1.2,-4.94,3.23,-8.73,866.34,32.47
4610274,-0.02,0.0,1.19,-4.64,2.87,-8.61,866.36,32.47
4610313,-0.01,-0.0,1.16,-4.7,3.11,-8.61,866.39,32.48
4610351,-0.01,-0.0,1.16,-4.64,2.87,-8.42,866.37,32.47
4610389,-0.01,-0.0,1.18,-4.7,2.75,-8.48,866.33,32.46
4610427,-0.03,-0.01,1.14,-4.52,2.2,-8.36,866.31,32.47
4610465,-0.02,0.0,1.16,-4.52,1.95,-8.36,866.32,32.48
4610515,-0.01,-0.0,1.15,-4.64,2.01,-8.24,866.33,32.45
4610553,-0.01,-0.0,1.17,-4.39,2.08,-8.18,866.38,32.47
4610591,-0.02,-0.01,1.13,-4.39,2.38,-8.42,866.42,32.46
4610629,-0.01,-0.0,1.13,-4.52,2.69,-8.36,866.39,32.46
4610667,-0.01,0.0,1.13,-4.39,3.17,-8.36,866.4,32.47
4610706,-0.02,-0.0,1.11,-4.33,2.99,-8.42,866.37,32.47
4610744,-0.02,-0.01,1.12,-4.33,3.11,-8.24,866.43,32.48
4610782,-0.02,-0.01,1.12,-4.27,3.3,-8.36,866.38,32.46
4610820,-0.01,-0.01,1.14,-4.09,3.23,-8.36,866.43,32.47
4610870,-0.02,-0.01,1.11,-4.27,3.6,-8.48,866.43,32.45
4610908,-0.01,-0.01,1.12,-4.15,3.66,-8.24,866.45,32.46
4610946,-0.01,-0.01,1.11,-4.27,3.66,-8.24,866.46,32.47
4610984,-0.02,-0.01,1.1,-4.27,3.78,-8.24,866.45,32.47
4611022,-0.02,-0.0,1.11,-4.64,3.42,-8.18,866.46,32.48
4611060,-0.01,-0.01,1.11,-4.76,3.48,-8.24,866.42,32.47
4611098,-0.01,-0.01,1.12,-4.94,3.66,-8.12,866.44,32.48
4611137,-0.01,-0.01,1.13,-5.07,3.91,-8.24,866.35,32.48
4611175,-0.02,-0.0,1.13,-5.31,4.09,-8.24,866.52,32.48
4611250,-0.02,-0.0,1.14,-5.62,3.97,-8.24,866.51,32.45
4611289,-0.01,-0.01,1.15,-5.43,3.85,-8.3,866.49,32.45
4611327,-0.01,0.0,1.16,-5.55,4.03,-8.0,866.5,32.45
4611416,-0.02,0.01,1.19,-5.68,4.39,-8.06,866.52,32.41
4611454,-0.01,0.0,1.2,-5.68,4.52,-7.93,866.47,32.43
4611492,-0.01,0.0,1.21,-5.68,4.64,-8.0,866.56,32.44
4611530,-0.01,0.0,1.22,-5.55,4.58,-7.87,866.51,32.46
4611568,-0.01,0.01,1.21,-5.49,4.46,-8.06,866.56,32.45
4611607,-0.01,0.01,1.22,-5.37,5.31,-7.93,866.51,32.45
4611645,-0.01,0.0,1.21,-5.49,5.43,-7.93,866.56,32.46
4611695,-0.02,0.01,1.24,-5.49,5.68,-7.93,866.54,32.45
4611733,-0.01,0.0,1.22,-5.37,5.74,-7.93,866.56,32.47
4611771,-0.02,0.01,1.26,-5.31,5.25,-7.81,866.57,32.46
4611809,-0.02,0.01,1.24,-5.31,5.62,-7.81,866.55,32.46
4611847,-0.02,0.01,1.26,-5.13,5.43,-7.69,866.58,32.46
4611885,-0.01,0.01,1.26,-5.13,5.74,-7.63,866.59,32.46
4611923,-0.01,0.01,1.24,-5.13,5.43,-7.51,866.62,32.46
4611961,-0.01,0.01,1.25,-5.07,5.49,-7.2,866.58,32.47
4611999,-0.01,0.01,1.24,-5.19,5.19,-7.57,866.6,32.47
4612049,-0.01,0.01,1.25,-5.25,5.8,-7.57,866.61,32.45
4612087,-0.0,0.01,1.25,-5.13,4.82,-7.39,866.58,32.47
4612126,-0.01,0.01,1.27,-5.19,4.76,-7.57,866.66,32.47
4612164,-0.0,0.01,1.28,-5.19,4.46,-7.45,866.59,32.46
4612202,-0.01,0.01,1.28,-5.07,4.39,-7.63,866.59,32.48
4612240,-0.0,0.01,1.27,-5.31,4.7,-7.57,866.6,32.49
4612278,0.0,0.02,1.29,-5.19,4.7,-7.69,866.63,32.47
4612316,-0.01,0.02,1.28,-5.13,4.27,-7.75,866.64,32.49
4612354,-0.02,0.01,1.26,-5.0,4.7,-7.75,866.64,32.48
4612392,-0.01,0.01,1.26,-4.88,4.76,-7.69,866.67,32.48
4612442,-0.0,0.02,1.29,-4.7,4.46,-7.87,866.65,32.46
4612480,-0.01,0.01,1.29,-4.7,4.21,-7.81,866.69,32.48
4612518,-0.01,0.0,1.28,-4.7,4.27,-7.81,866.67,32.48
4612557,-0.01,0.01,1.3,-4.64,4.27,-7.87,866.68,32.48
4612595,-0.01,0.01,1.27,-4.52,4.21,-7.63,866.72,32.48
4612633,-0.02,0.01,1.28,-4.64,2.99,-7.87,866.7,32.48
4612671,-0.02,-0.0,1.25,-4.58,3.85,-7.93,866.74,32.48
4612709,-0.01,0.0,1.26,-4.76,2.99,-8.0,866.76,32.48
4612747,-0.0,-0.01,1.26,-4.58,3.48,-8.0,866.76,32.48
4612797,-0.03,0.0,1.26,-4.64,2.87,-8.0,866.79,32.46
4612835,-0.02,-0.0,1.27,-4.7,3.72,-8.0,866.73,32.46
4612873,-0.02,-0.01,1.26,-4.76,3.05,-8.06,866.81,32.47
4612911,-0.03,-0.0,1.26,-4.7,2.87,-8.06,866.73,32.48
4612950,-0.02,-0.01,1.25,-4.82,3.05,-8.0,866.83,32.47
4612988,-0.01,-0.0,1.26,-4.88,2.81,-8.0,866.75,32.46
4613026,-0.02,-0.0,1.26,-5.13,3.05,-8.0,866.82,32.48
4613064,-0.02,-0.01,1.25,-5.43,2.81,-8.0,866.77,32.47
4613102,-0.02,-0.01,1.27,-5.37,3.3,-8.06,866.86,32.48
4613140,-0.01,-0.01,1.28,-5.43,3.72,-8.12,866.84,32.47
4613190,-0.01,-0.0,1.28,-5.62,3.48,-7.93,866.81,32.45
4613228,-0.02,-0.0,1.27,-5.68,3.54,-8.18,866.83,32.47
4613266,-0.02,-0.01,1.26,-5.8,3.91,-8.06,866.79,32.46
4613305,-0.01,-0.0,1.25,-5.92,3.78,-8.18,866.87,32.47
4613343,-0.01,-0.0,1.28,-5.98,3.66,-8.12,866.82,32.47
4613381,-0.03,-0.01,1.25,-6.04,3.78,-8.18,866.83,32.49
4613419,-0.01,-0.01,1.29,-6.16,3.6,-8.18,866.9,32.49
4613457,-0.02,-0.01,1.28,-6.23,4.09,-8.18,866.89,32.5
4613495,-0.02,-0.0,1.27,-6.29,3.85,-8.24,866.87,32.49
4613545,-0.02,-0.01,1.28,-6.16,4.15,-8.06,866.93,32.48
4613583,-0.01,-0.01,1.27,-6.16,4.09,-8.18,866.9,32.48
4613621,-0.02,-0.0,1.29,-6.29,3.72,-8.18,866.91,32.48
4613660,-0.02,-0.0,1.29,-6.16,4.15,-8.3,866.91,32.48
4613698,-0.01,-0.0,1.31,-6.23,3.97,-8.18,866.85,32.48
4613736,-0.01,-0.01,1.32,-6.1,4.03,-8.24,866.93,32.47
4613774,-0.02,-0.0,1.31,-6.04,4.33,-8.24,866.93,32.48
4613812,-0.02,-0.0,1.3,-6.23,4.7,-8.3,866.98,32.47
4613850,-0.01,-0.0,1.3,-5.92,4.76,-8.18,866.91,32.46
4613900,-0.02,-0.01,1.3,-5.86,4.39,-8.36,866.99,32.46
4613938,-0.02,-0.0,1.3,-5.86,4.52,-8.42,866.95,32.47
4613976,-0.02,-0.0,1.3,-5.74,4.46,-8.3,866.95,32.47
4614014,-0.03,-0.0,1.28,-5.74,4.46,-8.24,866.95,32.48
4614053,-0.01,-0.0,1.3,-5.55,4.27,-8.24,867.04,32.48
4614091,-0.02,-0.0,1.29,-5.62,4.27,-8.3,866.99,32.48
4614129,-0.02,-0.01,1.29,-5.68,4.27,-8.24,866.97,32.47
4614167,-0.01,-0.0,1.3,-5.55,4.46,-8.61,867.01,32.5
4614205,-0.02,-0.0,1.3,-5.49,4.21,-8.42,866.99,32.48
4614281,-0.02,-0.0,1.3,-5.49,3.91,-8.24,867.12,32.46
4614319,-0.01,-0.01,1.3,-5.49,3.85,-8.18,867.07,32.45
4614357,-0.02,-0.0,1.29,-5.43,3.36,-8.36,867.06,32.45
4614446,-0.02,-0.0,1.3,-5.49,3.91,-8.42,867.03,32.42
4614484,-0.02,-0.0,1.3,-5.37,4.46,-8.3,867.07,32.44
4614523,-0.02,-0.0,1.31,-5.43,3.97,-8.48,867.02,32.45
4614561,-0.02,0.0,1.33,-5.37,3.72,-8.54,867.09,32.45
4614599,-0.02,0.0,1.31,-5.43,4.27,-8.48,867.05,32.44
4614637,-0.02,0.0,1.33,-5.43,4.21,-8.42,867.08,32.44
4614675,-0.02,-0.0,1.32,-5.25,4.21,-8.61,867.06,32.44
4614725,-0.02,-0.0,1.28,-5.19,4.15,-8.48,867.09,32.43
4614763,-0.03,-0.0,1.26,-5.19,4.27,-8.24,867.1,32.45
4614801,-0.02,-0.01,1.24,-5.37,3.85,-8.36,867.08,32.44
4614839,-0.02,-0.01,1.26,-5.49,3.54,-8.24,867.09,32.44
4614878,-0.03,-0.01,1.26,-5.31,3.54,-8.24,867.08,32.43
4614916,-0.02,-0.0,1.27,-5.49,3.42,-8.06,867.07,32.43
4614954,-0.02,-0.01,1.27,-5.49,3.36,-8.18,867.1,32.43
4614992,-0.02,-0.0,1.27,-5.37,3.23,-7.87,867.1,32.44
4615030,-0.01,-0.01,1.27,-5.49,3.48,-8.06,867.1,32.43
4615080,-0.02,0.01,1.29,-5.37,3.91,-8.06,867.14,32.43
4615118,-0.03,0.0,1.28,-5.43,4.09,-8.0,867.1,32.43
4615156,-0.03,-0.01,1.29,-5.31,4.58,-8.06,867.1,32.43
4615194,-0.01,-0.01,1.3,-5.43,4.88,-8.36,867.13,32.45
4615232,-0.02,0.01,1.33,-5.37,4.88,-8.12,867.11,32.43
4615271,-0.04,0.01,1.33,-5.31,5.86,-8.18,867.12,32.44
4615309,-0.03,-0.01,1.29,-5.13,7.26,-8.24,867.21,32.43
4615347,-0.01,-0.0,1.33,-5.31,7.02,-8.24,867.16,32.44
4615385,-0.02,-0.01,1.3,-5.31,7.32,-8.24,867.22,32.45
4615423,-0.03,-0.02,1.26,-5.31,7.14,-8.18,867.14,32.44
4615473,-0.02,0.01,1.28,-5.43,6.41,-8.18,867.1,32.42
4615511,-0.02,-0.01,1.24,-5.68,6.23,-7.81,867.13,32.45
4615549,-0.02,-0.01,1.26,-5.55,5.31,-7.69,867.14,32.43
4615587,-0.02,-0.01,1.27,-5.49,5.55,-7.57,867.21,32.45
4615625,-0.02,-0.01,1.29,-5.43,4.7,-7.57,867.13,32.44
4615664,-0.02,-0.0,1.28,-5.31,4.64,-7.51,867.17,32.45
4615702,-0.02,-0.01,1.26,-5.25,3.97,-7.51,867.2,32.45
4615740,-0.02,-0.01,1.26,-5.43,4.15,-7.63,867.22,32.45
4615778,-0.01,-0.01,1.24,-5.31,3.6,-7.45,867.26,32.45
4615828,-0.02,-0.01,1.26,-5.31,3.85,-7.39,867.22,32.44
4615866,-0.02,-0.01,1.25,-5.37,3.36,-7.51,867.17,32.43
4615904,-0.02,-0.0,1.28,-5.49,3.05,-7.51,867.23,32.44
4615942,-0.02,-0.01,1.26,-5.49,3.11,-7.26,867.2,32.45
4615980,-0.02,-0.0,1.26,-5.8,3.23,-7.45,867.24,32.45
4616019,-0.01,0.0,1.27,-5.8,2.75,-7.39,867.17,32.45
4616057,-0.02,0.0,1.26,-5.8,2.69,-7.2,867.26,32.44
4616095,-0.03,0.0,1.26,-5.74,2.62,-7.2,867.25,32.46
4616133,-0.03,0.0,1.31,-5.8,3.3,-7.26,867.29,32.44
4616183,-0.02,0.01,1.32,-5.62,3.42,-7.32,867.26,32.43
4616221,-0.02,0.01,1.35,-5.55,3.3,-7.26,867.31,32.44
4616259,-0.02,0.0,1.32,-5.31,3.72,-7.26,867.28,32.44
4616297,-0.0,0.01,1.33,-5.31,3.42,-7.14,867.26,32.45
4616335,-0.01,0.01,1.32,-5.19,3.3,-7.08,867.21,32.44
4616373,-0.02,0.0,1.31,-5.19,2.93,-7.14,867.27,32.44
4616412,-0.02,0.0,1.31,-5.13,2.93,-7.02,867.24,32.44
4616450,-0.02,0.01,1.34,-5.31,2.99,-7.26,867.21,32.45
4616488,-0.01,0.01,1.35,-5.19,3.3,-7.2,867.19,32.43
4616526,-0.02,0.02,1.34,-5.37,3.36,-7.14,867.31,32.44
4616576,-0.01,0.0,1.34,-5.13,3.91,-7.45,867.23,32.45
4616614,-0.02,0.01,1.32,-5.19,3.97,-7.26,867.19,32.44
4616652,-0.01,0.01,1.33,-5.13,4.39,-7.57,867.26,32.45
4616690,-0.01,0.0,1.32,-5.0,4.46,-7.57,867.22,32.45
4616729,-0.01,0.01,1.32,-5.0,4.21,-7.51,867.22,32.45
4616767,-0.01,0.01,1.33,-4.82,3.91,-7.57,867.25,32.44
4616805,-0.01,0.01,1.32,-4.76,4.27,-7.63,867.26,32.45
4616843,-0.01,0.01,1.35,-4.88,3.85,-7.63,867.23,32.45
4616881,-0.01,0.01,1.36,-4.7,3.42,-7.51,867.29,32.46
4616931,-0.02,0.01,1.35,-4.82,3.17,-7.51,867.28,32.44
4616969,-0.01,0.01,1.35,-4.88,3.17,-7.57,867.22,32.43
4617007,-0.01,0.01,1.31,-5.07,3.48,-7.63,867.22,32.44
4617045,-0.02,0.01,1.31,-5.07,3.48,-7.51,867.26,32.44
4617083,-0.01,0.01,1.32,-5.0,3.72,-7.75,867.29,32.43
4617122,-0.01,0.01,1.33,-5.07,3.85,-7.69,867.23,32.43
4617160,-0.02,0.01,1.33,-5.0,3.72,-7.45,867.25,32.43
4617198,-0.02,0.0,1.31,-4.94,3.72,-7.63,867.23,32.44
4617236,-0.01,0.01,1.32,-4.64,3.72,-7.63,867.22,32.43
4617274,-0.0,-0.0,1.31,-4.64,3.72,-7.57,867.24,32.43
4617351,-0.02,0.01,1.3,-4.52,3.3,-7.57,867.26,32.41
4617389,-0.01,0.01,1.31,-4.76,2.99,-7.57,867.21,32.42
4617427,-0.01,0.01,1.32,-4.94,3.23,-7.69,867.19,32.42
4617517,-0.02,0.0,1.31,-5.0,3.23,-7.93,867.21,32.4
4617556,-0.01,0.01,1.3,-5.0,3.23,-7.81,867.28,32.41
4617594,-0.01,0.01,1.32,-5.13,3.3,-7.81,867.23,32.41
4617632,-0.02,0.01,1.32,-4.88,3.91,-7.75,867.22,32.43
4617670,-0.02,0.0,1.31,-4.76,3.97,-7.75,867.28,32.43
4617708,-0.01,0.01,1.33,-4.76,4.58,-7.93,867.26,32.43
4617758,-0.02,0.01,1.34,-4.52,5.13,-7.93,867.24,32.42
4617796,-0.02,0.0,1.32,-4.52,5.25,-8.0,867.22,32.41
4617834,-0.01,0.01,1.33,-4.52,5.68,-8.12,867.27,32.43
4617872,-0.02,0.01,1.32,-4.52,5.55,-7.87,867.23,32.44
4617911,-0.02,0.01,1.32,-4.46,5.8,-8.0,867.25,32.43
4617949,-0.02,0.01,1.32,-4.58,6.41,-7.81,867.27,32.44
4617987,-0.02,0.0,1.34,-4.7,6.53,-7.93,867.24,32.43
4618025,-0.02,0.0,1.32,-4.33,6.29,-7.57,867.25,32.43
4618063,-0.02,0.01,1.34,-4.33,6.16,-7.87,867.2,32.42
4618101,-0.02,0.01,1.32,-4.52,6.77,-7.81,867.23,32.44
4618151,-0.01,0.0,1.31,-4.39,6.23,-7.81,867.22,32.43
4618189,-0.02,-0.0,1.29,-4.33,6.53,-7.51,867.21,32.45
4618227,-0.02,0.0,1.28,-4.52,6.23,-7.63,867.2,32.43
4618266,-0.02,0.0,1.28,-4.33,5.92,-7.45,867.22,32.43
4618304,-0.01,-0.01,1.27,-4.33,5.68,-7.57,867.19,32.44
4618342,-0.01,-0.01,1.27,-4.64,4.94,-7.45,867.19,32.43
4618380,-0.02,-0.02,1.25,-4.64,5.07,-7.39,867.18,32.44
4618418,-0.01,-0.01,1.23,-5.07,4.15,-7.26,867.21,32.45
4618456,-0.01,0.0,1.25,-5.19,3.23,-7.32,867.2,32.45
4618506,-0.02,-0.01,1.25,-5.13,2.69,-7.26,867.17,32.43
4618544,-0.02,-0.01,1.27,-5.25,2.2,-6.96,867.15,32.43
4618582,-0.02,-0.0,1.29,-5.25,2.14,-7.26,867.19,32.43
4618620,-0.02,0.0,1.31,-5.31,2.32,-7.08,867.14,32.44
4618659,-0.02,0.0,1.35,-5.37,1.95,-7.14,867.23,32.44
4618697,-0.01,0.01,1.36,-5.31,2.32,-7.32,867.14,32.43
4618735,-0.03,0.03,1.39,-5.37,2.75,-7.45,867.21,32.44
4618773,-0.02,0.02,1.39,-5.31,4.21,-7.51,867.19,32.44
4618811,-0.01,0.01,1.39,-5.43,4.46,-7.75,867.08,32.42
4618861,-0.03,0.01,1.39,-5.49,5.31,-7.69,867.15,32.42
4618899,-0.03,0.0,1.36,-5.31,5.98,-7.63,867.14,32.43
4618937,-0.01,0.02,1.34,-5.0,6.35,-7.75,867.07,32.43
4618975,-0.03,0.02,1.31,-4.76,6.04,-7.69,867.17,32.43
4619013,-0.03,0.01,1.31,-4.58,5.8,-7.63,867.09,32.42
4619052,-0.02,-0.0,1.31,-4.39,6.1,-7.69,867.09,32.4
4619090,-0.01,0.0,1.32,-4.09,5.86,-7.57,867.05,32.43
4619128,-0.03,0.0,1.3,-4.09,5.8,-7.45,867.05,32.43
4619166,-0.02,0.01,1.31,-3.85,4.94,-7.39,867.09,32.44
4619204,-0.02,0.0,1.28,-3.72,4.27,-7.51,867.08,32.44
4619254,-0.03,-0.0,1.24,-3.3,3.42,-7.26,867.03,32.41
4619292,-0.02,-0.0,1.22,-2.99,2.56,-7.14,867.05,32.42
4619330,-0.02,-0.0,1.19,-2.93,1.59,-7.32,867.05,32.42
4619368,-0.02,-0.01,1.18,-2.81,0.98,-7.2,867.06,32.43
4619407,-0.02,-0.01,1.18,-2.56,0.73,-7.45,867.06,32.44
4619445,-0.02,-0.02,1.17,-2.62,0.49,-7.39,867.0,32.43
4619483,-0.03,-0.01,1.17,-2.26,-0.37,-7.26,867.01,32.44
4619521,-0.03,-0.01,1.15,-2.26,-0.24,-7.26,867.02,32.45
4619559,-0.03,-0.01,1.13,-2.2,-0.79,-7.45,867.0,32.43
4619609,-0.03,-0.02,1.09,-2.2,-0.85,-7.45,867.0,32.43
4619647,-0.04,-0.02,1.1,-2.08,-0.98,-7.32,866.95,32.42
4619685,-0.04,-0.02,1.08,-2.32,-1.1,-7.45,867.02,32.44
4619723,-0.04,-0.02,1.09,-2.38,-1.34,-7.32,867.0,32.43
4619762,-0.04,-0.03,1.09,-2.14,-0.98,-7.45,866.98,32.43
4619800,-0.04,-0.02,1.09,-2.2,-0.98,-7.39,866.98,32.43
4619838,-0.04,-0.02,1.09,-2.26,-0.61,-7.39,866.97,32.42
4619876,-0.04,-0.02,1.08,-2.38,-0.73,-7.2,866.96,32.44
4619914,-0.05,-0.02,1.09,-2.38,-0.98,-7.45,866.94,32.43
4619964,-0.05,-0.02,1.1,-2.26,-0.37,-7.32,866.97,32.43
4620002,-0.04,-0.02,1.13,-2.32,-0.73,-7.14,866.9,32.43
4620040,-0.04,-0.02,1.12,-2.38,-0.61,-7.02,866.95,32.43
4620078,-0.05,-0.01,1.14,-2.56,-0.61,-6.96,866.94,32.44
4620117,-0.05,-0.02,1.14,-2.2,-0.73,-6.71,867.02,32.43
4620155,-0.05,-0.02,1.15,-2.2,-0.79,-6.96,866.99,32.43
4620193,-0.05,-0.02,1.16,-2.2,-0.79,-6.71,866.96,32.42
4620231,-0.04,-0.01,1.16,-1.89,-0.85,-6.71,866.91,32.42
4620269,-0.05,-0.02,1.14,-1.89,-0.85,-6.71,866.93,32.44
4620345,-0.06,-0.03,1.14,-1.34,-0.67,-6.65,867.0,32.41
4620383,-0.04,-0.04,1.08,-1.16,-1.04,-6.77,866.96,32.41
4620421,-0.05,-0.03,1.05,-1.16,-1.16,-6.65,866.93,32.42
4620511,-0.05,-0.04,0.98,-1.16,-1.89,-6.41,866.9,32.39
4620549,-0.06,-0.05,0.98,-1.04,-2.93,-6.41,866.82,32.39
4620587,-0.05,-0.04,0.99,-1.16,-3.05,-6.16,866.87,32.4
4620625,-0.05,-0.03,1.01,-1.22,-3.48,-6.16,866.84,32.39
4620663,-0.06,-0.04,1.01,-1.16,-2.62,-6.23,866.85,32.4
4620701,-0.06,-0.04,1.03,-1.46,-2.26,-6.1,866.83,32.39
4620739,-0.06,-0.03,1.05,-1.59,-1.28,-6.35,866.84,32.38
4620789,-0.05,-0.03,1.05,-1.83,-1.34,-6.41,866.87,32.39
4620827,-0.06,-0.02,1.06,-1.71,-0.85,-6.23,866.85,32.39
4620866,-0.05,-0.03,1.07,-2.01,-0.55,-6.1,866.89,32.39
4620904,-0.05,-0.02,1.07,-2.08,-0.79,-6.16,866.84,32.4
4620942,-0.06,-0.02,1.1,-1.89,-0.98,-5.86,866.86,32.4
4620980,-0.06,-0.03,1.1,-1.77,-0.85,-5.92,866.87,32.4
4621018,-0.05,-0.03,1.12,-1.95,-1.16,-5.92,866.83,32.41
4621056,-0.05,-0.02,1.12,-1.77,-1.53,-5.74,866.84,32.4
4621094,-0.06,-0.03,1.1,-1.53,-2.26,-5.49,866.82,32.4
4621144,-0.07,-0.03,1.09,-1.59,-2.81,-5.43,866.76,32.39
4621182,-0.06,-0.03,1.07,-1.34,-2.93,-5.31,866.77,32.41
4621220,-0.06,-0.03,1.06,-1.46,-3.97,-5.25,866.84,32.42
4621259,-0.06,-0.03,1.06,-1.4,-3.97,-5.19,866.82,32.41
4621297,-0.06,-0.03,1.05,-1.22,-3.97,-5.07,866.87,32.41
4621335,-0.05,-0.03,1.08,-1.28,-4.33,-4.94,866.88,32.43
4621373,-0.06,-0.03,1.08,-1.22,-4.09,-4.94,866.83,32.41
4621411,-0.07,-0.02,1.08,-1.16,-4.39,-4.7,866.81,32.41
4621449,-0.07,-0.03,1.07,-1.16,-4.82,-4.7,866.87,32.4
4621499,-0.06,-0.03,1.06,-1.16,-4.7,-4.64,866.78,32.4
4621537,-0.05,-0.03,1.06,-1.1,-4.82,-4.58,866.78,32.41
4621575,-0.06,-0.03,1.03,-1.22,-4.52,-4.58,866.78,32.4
4621613,-0.06,-0.03,1.04,-0.98,-4.7,-4.52,866.81,32.4
4621652,-0.07,-0.03,1.04,-0.92,-4.64,-4.52,866.79,32.4
4621690,-0.07,-0.03,1.03,-0.92,-4.46,-4.27,866.8,32.41
4621728,-0.07,-0.03,1.03,-0.79,-4.27,-4.52,866.81,32.39
4621766,-0.06,-0.03,1.02,-0.98,-4.39,-4.39,866.78,32.41
4621804,-0.06,-0.03,1.03,-0.85,-4.21,-4.21,866.83,32.4
4621854,-0.07,-0.03,1.03,-0.67,-4.09,-4.21,866.82,32.39
4621892,-0.08,-0.03,1.04,-0.67,-3.97,-4.15,866.74,32.4
4621930,-0.08,-0.03,1.04,-0.73,-3.6,-4.15,866.78,32.41
4621969,-0.07,-0.03,1.05,-0.61,-3.78,-3.91,866.78,32.4
4622007,-0.08,-0.03,1.06,-0.55,-3.66,-3.78,866.8,32.4
4622045,-0.07,-0.03,1.04,-0.55,-3.42,-3.78,866.78,32.4
4622083,-0.08,-0.03,1.05,-0.61,-3.23,-3.66,866.78,32.41
4622121,-0.08,-0.03,1.07,-0.49,-2.87,-3.85,866.75,32.4
4622159,-0.07,-0.02,1.08,-0.49,-2.38,-3.66,866.77,32.41
4622209,-0.08,-0.02,1.1,-0.37,-2.26,-3.6,866.76,32.38
4622247,-0.08,-0.03,1.09,-0.31,-1.95,-3.42,866.77,32.4
4622285,-0.08,-0.02,1.08,-0.18,-2.5,-3.36,866.79,32.4
4622323,-0.08,-0.02,1.09,-0.31,-2.5,-3.17,866.81,32.41
4622362,-0.07,-0.03,1.06,-0.24,-2.62,-3.17,866.73,32.4
4622400,-0.07,-0.03,1.07,0.0,-2.38,-2.81,866.77,32.4
4622438,-0.07,-0.03,1.06,-0.24,-3.23,-2.75,866.74,32.39
4622476,-0.07,-0.03,1.07,-0.18,-3.97,-2.56,866.75,32.39
4622514,-0.08,-0.03,1.05,-0.24,-3.48,-2.5,866.79,32.39
4622564,-0.07,-0.02,1.11,-0.18,-3.78,-2.26,866.73,32.37
4622602,-0.07,-0.04,1.06,0.0,-2.75,-2.2,866.77,32.39
4622640,-0.08,-0.01,1.13,0.0,-3.17,-2.38,866.79,32.38
4622678,-0.08,-0.02,1.1,0.49,-2.01,-2.38,866.9,32.37
4622716,-0.07,-0.02,1.14,0.37,-1.53,-2.2,866.89,32.36
4622755,-0.09,-0.01,1.15,0.55,-0.43,-2.14,866.78,32.37
4622793,-0.09,-0.02,1.15,0.37,0.0,-2.14,866.86,32.37
4622831,-0.08,-0.01,1.19,1.04,1.22,-1.95,866.86,32.36
4622869,-0.07,-0.01,1.16,1.22,2.08,-1.83,866.89,32.37
4622907,-0.1,-0.0,1.17,1.71,2.5,-1.53,866.93,32.38
4622957,-0.08,-0.02,1.14,1.89,2.87,-1.28,866.9,32.38
4622995,-0.07,-0.01,1.18,2.32,2.93,-1.28,866.88,32.38
4623033,-0.07,-0.03,1.1,2.5,2.99,-0.61,866.88,32.37
4623071,-0.07,-0.03,1.13,2.44,2.99,-0.55,866.83,32.37
4623109,-0.06,-0.03,1.07,2.44,3.91,-0.61,866.91,32.37
4623148,-0.06,-0.03,1.06,2.5,2.93,-0.24,866.86,32.38
4623186,-0.06,-0.04,1.05,2.69,3.91,-0.18,866.89,32.38
4623224,-0.05,-0.04,1.01,2.44,3.6,-0.06,866.9,32.37
4623262,-0.06,-0.03,1.05,2.56,3.91,0.0,866.87,32.37
4623338,-0.06,-0.03,1.03,2.38,3.85,0.18,866.89,32.34
4623376,-0.05,-0.05,0.99,2.44,4.7,0.24,866.91,32.35
4623414,-0.04,-0.04,0.99,2.01,3.85,0.37,866.87,32.35
4623503,-0.05,-0.05,1.0,1.89,4.76,0.43,866.86,32.34
4623542,-0.05,-0.05,1.0,1.83,4.21,0.55,866.87,32.36
4623580,-0.06,-0.05,1.02,2.08,4.03,0.61,866.81,32.35
4623618,-0.04,-0.06,0.99,1.77,4.27,0.67,866.85,32.34
4623656,-0.02,-0.04,1.02,1.71,4.39,0.67,866.86,32.36
4623694,-0.04,-0.04,0.98,1.95,4.64,0.61,866.85,32.36
4623732,-0.05,-0.04,1.0,1.53,3.78,0.79,866.87,32.36
4623782,-0.03,-0.05,0.97,1.53,4.58,1.04,866.89,32.34
4623820,-0.04,-0.05,1.02,1.46,3.54,0.85,866.92,32.35
4623858,-0.05,-0.05,1.01,1.65,4.21,0.98,866.84,32.35
4623897,-0.04,-0.05,1.02,1.65,3.6,1.16,866.86,32.35
4623935,-0.02,-0.05,1.04,1.59,3.11,1.22,866.87,32.36
4623973,-0.03,-0.06,0.98,1.46,3.11,1.28,866.87,32.36
4624011,-0.02,-0.05,1.0,1.4,3.17,1.04,866.87,32.37
4624049,-0.02,-0.06,0.97,1.34,3.17,1.16,866.85,32.36
4624087,-0.03,-0.06,0.99,1.4,2.56,1.16,866.84,32.36
4624137,-0.03,-0.07,0.93,1.53,3.36,0.85,866.8,32.34
4624175,-0.04,-0.05,0.95,1.28,3.6,0.92,866.79,32.35
4624213,-0.03,-0.06,0.94,1.4,3.72,0.85,866.81,32.38
4624251,-0.03,-0.07,0.94,1.1,3.3,0.85,866.76,32.35
4624290,-0.03,-0.06,0.96,0.92,4.03,0.67,866.83,32.37
4624328,-0.03,-0.05,0.99,0.73,3.6,0.79,866.8,32.37
4624366,-0.02,-0.05,1.01,0.49,2.93,0.85,866.81,32.38
4624404,-0.03,-0.05,1.01,0.12,3.42,0.79,866.76,32.37
4624442,-0.02,-0.06,1.03,0.31,3.17,0.98,866.76,32.36
4624480,-0.02,-0.06,1.02,-0.06,3.11,0.79,866.78,32.37
4624530,-0.03,-0.05,1.03,-0.18,2.44,0.73,866.8,32.37
4624568,-0.03,-0.06,1.0,-0.31,3.05,0.73,866.74,32.37
4624606,-0.02,-0.06,1.0,-0.31,2.81,0.61,866.82,32.37
4624645,-0.02,-0.06,1.0,-0.06,3.36,0.61,866.74,32.38
4624683,-0.02,-0.07,0.96,-0.24,3.23,0.49,866.76,32.36
4624721,-0.02,-0.05,1.0,-0.12,4.21,0.18,866.72,32.37
4624759,-0.0,-0.07,0.96,-0.24,4.82,0.31,866.72,32.37
4624797,-0.02,-0.05,0.99,0.0,4.58,0.06,866.78,32.38
4624835,-0.02,-0.06,0.95,0.31,5.8,-0.06,866.78,32.38
4624873,-0.02,-0.06,0.99,0.06,5.31,-0.24,866.73,32.36
4624923,-0.02,-0.06,0.98,0.24,6.1,-0.31,866.75,32.35
4624961,-0.02,-0.06,1.02,0.37,6.16,-0.31,866.7,32.36
4624999,-0.02,-0.06,1.02,0.49,6.65,-0.43,866.72,32.37
4625038,-0.02,-0.05,1.04,0.55,5.98,-0.43,866.64,32.36
4625076,-0.02,-0.05,1.08,0.73,6.9,-0.61,866.67,32.35
4625114,-0.01,-0.07,1.05,0.67,7.14,-0.49,866.72,32.37
4625152,-0.03,-0.04,1.14,1.04,6.16,-0.55,866.65,32.35
4625190,-0.03,-0.06,1.1,1.34,8.3,-0.61,866.59,32.35
4625228,-0.02,-0.05,1.15,1.46,8.0,-0.61,866.68,32.36
4625278,-0.02,-0.05,1.16,1.83,9.34,-0.73,866.65,32.34
4625316,-0.04,-0.05,1.19,1.89,10.07,-0.73,866.63,32.35
4625354,-0.02,-0.04,1.21,2.01,10.07,-0.67,866.59,32.35
4625392,-0.01,-0.04,1.24,1.95,9.09,-0.73,866.6,32.36
4625430,-0.03,-0.05,1.24,2.32,10.01,-0.73,866.61,32.34
4625469,-0.02,-0.05,1.22,2.01,9.28,-0.61,866.66,32.35
4625507,-0.02,-0.05,1.26,2.32,9.28,-0.55,866.64,32.35
4625545,-0.0,-0.05,1.19,2.26,8.42,-0.55,866.64,32.35
4625583,-0.03,-0.04,1.2,1.95,8.12,-0.55,866.68,32.37
4625621,-0.04,-0.06,1.09,1.83,8.73,-0.43,866.54,32.36
4625671,-0.04,-0.05,1.07,0.98,8.18,-0.61,866.6,32.36
4625709,-0.04,-0.06,1.05,0.92,8.42,-0.49,866.62,32.36
4625747,-0.01,-0.07,0.97,0.61,9.46,-0.55,866.6,32.36
4625785,-0.03,-0.05,1.03,0.55,10.62,-0.85,866.56,32.35
4625823,-0.03,-0.06,0.99,0.49,10.86,-0.67,866.6,32.36
4625862,-0.04,-0.05,0.97,-0.31,11.11,-0.49,866.58,32.37
4625900,-0.01,-0.06,0.97,-0.37,10.44,-0.55,866.57,32.36
4625938,-0.03,-0.07,0.97,-0.61,10.19,-0.18,866.56,32.37
4625976,-0.06,-0.07,0.86,-0.98,9.16,-0.12,866.56,32.37
4626026,-0.02,-0.05,0.95,-0.79,11.05,-0.31,866.55,32.36
4626064,-0.0,-0.04,0.91,-0.85,8.61,0.12,866.5,32.36
4626102,-0.05,-0.03,1.1,-0.37,7.39,0.37,866.53,32.38
4626140,-0.04,-0.06,1.02,-0.31,7.39,0.24,866.53,32.38
4626178,-0.05,-0.05,1.21,-0.12,6.84,0.55,866.48,32.37
4626216,-0.0,-0.07,1.17,-0.12,6.23,0.61,866.49,32.36
4626255,-0.04,-0.02,1.2,-0.18,3.91,0.61,866.52,32.37
4626293,-0.02,-0.04,1.18,0.31,5.92,0.79,866.51,32.38
4626331,0.01,-0.04,1.16,0.55,4.15,0.79,866.42,32.36
4626407,-0.03,-0.06,1.12,1.1,3.91,0.85,866.42,32.34
4626445,-0.04,-0.03,1.22,0.92,3.36,0.85,866.39,32.35
4626483,-0.01,-0.04,1.19,0.85,3.3,0.73,866.4,32.36
4626572,-0.01,-0.04,1.15,0.92,4.76,0.49,866.33,32.32
4626610,-0.02,-0.03,1.2,1.4,6.23,0.37,866.39,32.34
4626649,-0.02,-0.04,1.16,1.83,6.59,0.31,866.39,32.34
4626687,-0.02,-0.05,1.16,2.38,7.87,0.0,866.35,32.36
4626725,-0.02,-0.06,1.11,2.56,10.38,-0.06,866.35,32.36
4626763,0.0,-0.05,1.07,2.87,10.86,-0.06,866.35,32.36
4626801,-0.01,-0.05,1.03,3.17,12.39,0.0,866.33,32.36
4626851,-0.01,-0.06,0.94,2.87,13.43,-0.18,866.27,32.36
4626889,0.01,-0.07,0.94,2.93,14.59,-0.24,866.19,32.36
4626927,0.0,-0.07,0.89,2.56,14.89,-0.24,866.2,32.37
4626965,0.0,-0.06,0.95,2.26,14.95,-0.18,866.19,32.36
4627003,0.01,-0.07,0.91,2.01,16.17,-0.24,866.15,32.35
4627041,-0.0,-0.06,0.97,1.53,15.26,-0.31,866.16,32.35
4627080,0.0,-0.07,0.95,1.22,16.24,-0.24,866.17,32.36
4627118,0.0,-0.07,0.94,0.92,15.93,-0.24,866.12,32.36
4627156,0.01,-0.06,0.96,0.67,16.54,-0.24,866.16,32.36
4627206,0.02,-0.06,0.97,0.12,14.95,-0.18,866.17,32.34
4627244,0.01,-0.07,0.95,-0.31,15.2,-0.31,866.11,32.36
4627282,0.01,-0.07,0.95,-0.55,14.71,-0.24,866.18,32.36
4627320,0.03,-0.06,0.97,-0.85,14.28,-0.31,866.09,32.34
4627358,0.02,-0.06,0.98,-1.28,12.88,-0.12,866.17,32.37
4627397,0.02,-0.06,1.01,-1.65,12.08,-0.31,866.12,32.36
4627435,0.03,-0.06,1.02,-2.32,11.72,-0.37,866.12,32.36
4627473,0.03,-0.06,1.03,-2.2,10.44,-0.55,866.1,32.35
4627511,0.02,-0.06,1.02,-2.56,9.46,-0.61,866.09,32.35
4627549,0.04,-0.06,1.02,-3.11,9.16,-0.79,866.1,32.37
4627599,0.03,-0.06,1.07,-2.93,8.24,-1.1,866.04,32.36
4627637,0.02,-0.05,1.06,-3.11,6.84,-1.53,866.07,32.36
4627675,0.01,-0.05,1.08,-3.17,5.8,-1.59,866.07,32.37
4627713,0.02,-0.06,1.11,-2.99,6.1,-1.71,866.05,32.36
4627752,0.02,-0.06,1.11,-3.3,5.0,-1.89,866.01,32.35
4627790,0.02,-0.05,1.14,-3.23,4.27,-2.01,865.98,32.37
4627828,0.01,-0.05,1.13,-2.99,4.58,-2.26,866.02,32.38
4627866,0.02,-0.05,1.14,-3.11,4.03,-2.5,866.01,32.38
4627904,0.03,-0.04,1.15,-2.99,4.39,-2.87,865.95,32.38
4627954,0.02,-0.05,1.15,-2.75,3.72,-3.17,865.93,32.37
4627992,0.03,-0.05,1.17,-2.87,4.46,-3.54,865.98,32.37
4628030,0.04,-0.05,1.14,-2.69,3.91,-3.78,865.96,32.37
4628068,0.02,-0.04,1.15,-2.38,4.7,-3.85,865.95,32.37
4628107,0.02,-0.05,1.11,-2.2,5.25,-4.39,865.93,32.36
4628145,0.03,-0.04,1.17,-1.89,5.37,-4.52,865.91,32.37
4628183,0.03,-0.06,1.08,-1.71,6.65,-5.0,865.8,32.37
4628221,0.03,-0.04,1.1,-2.01,6.59,-5.25,865.87,32.37
4628259,0.02,-0.04,1.13,-1.71,7.51,-5.62,865.85,32.37
4628297,0.03,-0.05,1.11,-1.83,7.45,-5.98,865.87,32.37
4628347,0.03,-0.05,1.14,-1.53,7.81,-6.41,865.9,32.36
4628385,0.02,-0.05,1.09,-1.65,7.57,-6.65,865.85,32.36
4628423,0.02,-0.04,1.13,-1.46,7.2,-6.84,865.86,32.37
4628462,0.02,-0.06,1.09,-1.53,7.63,-7.32,865.84,32.36
4628500,0.02,-0.05,1.11,-1.59,6.96,-7.32,865.85,32.37
4628538,0.01,-0.05,1.1,-1.4,7.51,-7.75,865.84,32.36
4628576,0.03,-0.05,1.08,-1.89,7.63,-8.06,865.82,32.38
4628614,0.02,-0.04,1.11,-1.77,7.93,-8.18,865.84,32.36
4628652,0.0,-0.06,1.05,-1.89,8.73,-8.3,865.86,32.37
4628702,0.0,-0.06,1.07,-1.89,9.28,-8.67,865.78,32.36
4628740,0.03,-0.06,1.02,-1.83,10.31,-8.97,865.81,32.37
4628778,0.02,-0.04,1.11,-1.83,8.91,-9.22,865.77,32.37
4628816,0.03,-0.05,1.03,-2.26,11.41,-9.4,865.76,32.36
4628855,0.0,-0.04,1.13,-2.01,8.48,-9.58,865.65,32.36
4628893,0.02,-0.06,1.16,-2.01,7.75,-9.46,865.69,32.38
4628931,0.02,-0.04,1.14,-2.44,5.92,-9.52,865.62,32.37
4628969,0.01,-0.02,1.19,-2.69,5.98,-9.46,865.68,32.37
4629007,-0.01,-0.04,1.12,-3.17,3.3,-9.52,865.67,32.37
4629045,0.02,-0.03,1.2,-4.03,1.34,-9.52,865.58,32.37
4629095,0.0,-0.05,1.07,-4.27,1.83,-9.89,865.58,32.35
4629133,-0.01,-0.03,1.12,-4.52,0.79,-9.95,865.64,32.37
4629171,-0.01,-0.04,1.08,-4.39,1.4,-9.89,865.62,32.36
4629210,-0.02,-0.03,1.06,-4.39,1.46,-10.25,865.65,32.35
4629248,-0.03,-0.03,1.13,-3.72,2.56,-10.56,865.59,32.36
4629286,-0.01,-0.05,1.1,-3.6,2.81,-10.86,865.57,32.36
4629324,-0.03,-0.03,1.14,-3.23,2.56,-10.93,865.63,32.37
4629362,-0.01,-0.02,1.15,-2.99,5.37,-11.05,865.62,32.37
4629400,-0.03,-0.02,1.12,-2.38,5.92,-11.35,865.62,32.36
4629476,-0.03,-0.04,1.1,-1.65,7.02,-11.41,865.64,32.33
4629514,-0.03,-0.02,1.07,-1.59,7.02,-11.6,865.6,32.34
4629553,-0.05,-0.01,1.11,-1.46,6.96,-11.47,865.51,32.35
4629642,-0.04,-0.01,1.12,-0.98,6.96,-10.99,865.55,32.32
4629680,-0.06,-0.02,1.12,-0.85,6.59,-11.05,865.48,32.32
4629718,-0.04,-0.02,1.11,-0.92,6.84,-10.93,865.49,32.32
4629756,-0.04,-0.02,1.12,-0.98,6.84,-10.99,865.49,32.33
4629795,-0.04,-0.01,1.15,-0.67,4.94,-10.8,865.45,32.34
4629833,-0.03,-0.02,1.09,-0.67,5.68,-10.68,865.37,32.33
4629883,-0.07,-0.0,1.16,-0.61,4.76,-10.62,865.36,32.32
4629921,-0.06,-0.01,1.15,-0.55,5.49,-10.56,865.37,32.33
4629959,-0.04,-0.01,1.18,-0.49,3.6,-10.44,865.27,32.32
4629997,-0.05,-0.01,1.14,-0.61,4.58,-10.62,865.33,32.33
4630035,-0.07,-0.0,1.13,-0.49,3.66,-10.38,865.32,32.34
4630074,-0.05,-0.0,1.21,-0.12,3.6,-10.01,865.31,32.34
4630112,-0.06,-0.02,1.12,-0.06,2.56,-9.7,865.28,32.33
4630150,-0.1,-0.0,1.11,0.12,1.46,-9.52,865.3,32.33
4630188,-0.07,-0.01,1.08,0.67,1.77,-9.46,865.29,32.34
4630238,-0.05,-0.01,1.06,0.98,-0.24,-9.03,865.27,32.33
4630276,-0.06,-0.03,1.0,1.16,-0.06,-8.79,865.28,32.33
4630314,-0.09,-0.02,1.03,1.16,-0.31,-8.54,865.31,32.33
4630352,-0.08,-0.03,1.03,1.22,-0.37,-8.54,865.3,32.34
4630390,-0.09,-0.03,1.02,1.34,-2.2,-8.18,865.25,32.34
4630429,-0.07,-0.03,1.0,1.1,-2.26,-8.0,865.26,32.34
4630467,-0.06,-0.03,0.97,1.04,-1.59,-7.87,865.27,32.34
4630505,-0.07,-0.03,0.98,1.22,-2.69,-7.57,865.26,32.35
4630543,-0.09,-0.03,0.93,1.16,-3.36,-7.26,865.26,32.34
4630581,-0.08,-0.03,0.95,0.98,-3.17,-7.08,865.22,32.35
4630631,-0.06,-0.04,0.94,0.73,-2.87,-7.2,865.22,32.33
4630669,-0.07,-0.03,0.96,0.67,-3.78,-7.08,865.18,32.33
4630707,-0.08,-0.04,0.93,0.79,-3.66,-6.65,865.23,32.33
4630746,-0.08,-0.04,0.92,0.61,-3.36,-6.41,865.25,32.34
4630784,-0.07,-0.03,0.92,0.67,-3.17,-6.29,865.19,32.33
4630822,-0.08,-0.04,0.89,0.49,-3.6,-6.1,865.27,32.32
4630860,-0.09,-0.04,0.9,0.49,-3.3,-5.98,865.22,32.32
4630898,-0.08,-0.04,0.87,0.43,-2.93,-5.86,865.23,32.35
4630936,-0.07,-0.04,0.93,0.18,-3.11,-5.74,865.23,32.33
4630986,-0.08,-0.04,0.89,0.06,-2.87,-5.43,865.18,32.31
4631024,-0.09,-0.03,0.95,0.06,-3.36,-5.49,865.24,32.34
4631062,-0.08,-0.04,0.94,0.12,-2.87,-5.25,865.21,32.34
4631101,-0.08,-0.03,0.96,0.06,-3.42,-5.0,865.2,32.32
4631139,-0.09,-0.03,0.96,0.18,-2.93,-4.94,865.23,32.32
4631177,-0.07,-0.04,0.95,0.49,-3.72,-4.76,865.23,32.33
4631215,-0.08,-0.03,0.97,0.24,-4.27,-4.64,865.21,32.32
4631253,-0.08,-0.04,0.92,0.49,-4.58,-4.52,865.22,32.33
4631291,-0.08,-0.04,0.94,0.55,-4.94,-4.15,865.23,32.33
4631341,-0.08,-0.04,0.91,0.67,-5.13,-3.97,865.2,32.32
4631379,-0.08,-0.03,0.92,0.67,-5.92,-3.78,865.21,32.34
4631417,-0.08,-0.04,0.9,0.85,-5.8,-3.54,865.23,32.31
4631456,-0.08,-0.04,0.91,0.73,-5.8,-3.48,865.26,32.33
4631494,-0.08,-0.04,0.92,0.85,-6.16,-3.36,865.27,32.32
4631532,-0.08,-0.04,0.9,0.79,-6.23,-2.99,865.2,32.31
4631570,-0.08,-0.04,0.91,0.85,-6.1,-3.11,865.3,32.31
4631608,-0.08,-0.04,0.92,0.79,-6.35,-2.87,865.24,32.32
4631646,-0.07,-0.04,0.91,0.92,-6.47,-2.62,865.26,32.32
4631696,-0.08,-0.04,0.92,1.04,-6.65,-2.56,865.28,32.3
4631734,-0.08,-0.04,0.9,0.73,-6.29,-2.32,865.21,32.29
4631772,-0.07,-0.04,0.92,1.04,-6.84,-2.14,865.31,32.32
4631811,-0.08,-0.04,0.92,1.22,-6.35,-2.08,865.29,32.31
4631849,-0.07,-0.05,0.9,1.28,-6.71,-2.08,865.27,32.29
4631887,-0.08,-0.04,0.91,1.65,-6.65,-1.83,865.26,32.29
4631925,-0.08,-0.05,0.86,1.77,-6.65,-1.77,865.32,32.3
4631963,-0.08,-0.04,0.88,2.08,-6.77,-1.71,865.31,32.29
4632001,-0.07,-0.04,0.85,2.38,-6.29,-1.59,865.34,32.29
4632039,-0.07,-0.05,0.84,2.5,-6.35,-1.46,865.37,32.28
4632089,-0.08,-0.05,0.85,2.81,-6.41,-1.04,865.41,32.29
4632127,-0.09,-0.06,0.82,2.99,-6.35,-0.85,865.4,32.3
4632166,-0.07,-0.05,0.84,3.23,-6.23,-0.92,865.38,32.3
4632204,-0.07,-0.05,0.82,3.3,-5.43,-0.73,865.44,32.29
4632242,-0.08,-0.05,0.79,3.23,-5.74,-0.55,865.43,32.31
4632280,-0.08,-0.05,0.79,3.42,-5.25,-0.43,865.46,32.3
4632318,-0.07,-0.05,0.77,3.54,-4.64,-0.43,865.41,32.31
4632356,-0.08,-0.05,0.8,3.48,-4.46,-0.18,865.49,32.29
4632394,-0.06,-0.06,0.78,3.72,-2.99,-0.18,865.51,32.29
4632470,-0.07,-0.05,0.78,3.54,-1.89,0.06,865.52,32.26
4632508,-0.07,-0.07,0.76,3.54,-0.85,0.18,865.52,32.27
4632547,-0.06,-0.05,0.79,3.6,-0.85,0.37,865.5,32.29
4632636,-0.05,-0.06,0.78,3.6,0.12,0.73,865.56,32.23
4632674,-0.05,-0.06,0.79,3.3,0.18,0.98,865.6,32.25
4632712,-0.05,-0.06,0.79,2.99,-0.18,1.22,865.59,32.26
4632750,-0.06,-0.07,0.82,2.75,0.79,1.4,865.61,32.27
4632789,-0.04,-0.06,0.83,2.44,-0.43,1.46,865.62,32.27
4632827,-0.05,-0.06,0.83,2.44,0.06,1.65,865.65,32.28
4632865,-0.06,-0.07,0.81,2.14,-0.12,1.83,865.68,32.28
4632915,-0.05,-0.06,0.87,2.2,0.31,2.01,865.67,32.27
4632953,-0.05,-0.06,0.85,2.08,-0.37,2.01,865.69,32.27
4632991,-0.04,-0.05,0.93,1.95,-0.06,2.14,865.7,32.29
4633029,-0.04,-0.07,0.84,1.89,0.73,2.26,865.72,32.29
4633067,-0.04,-0.05,0.89,1.71,-0.18,2.26,865.73,32.28
4633106,-0.03,-0.06,0.87,1.34,1.04,2.62,865.76,32.29
4633144,-0.04,-0.06,0.89,1.16,-0.31,2.62,865.72,32.28
4633182,-0.03,-0.05,0.96,1.1,-0.67,2.56,865.71,32.27
4633220,-0.02,-0.07,0.93,1.04,-0.43,2.87,865.76,32.27
4633270,-0.01,-0.05,1.02,1.34,-0.92,2.99,865.76,32.27
4633308,-0.03,-0.05,0.97,1.22,-1.22,2.93,865.78,32.28
4633346,-0.04,-0.05,1.0,1.46,-1.04,2.93,865.81,32.29
4633384,-0.0,-0.06,0.99,1.53,-0.85,2.62,865.8,32.29
4633423,-0.0,-0.04,1.05,1.53,-1.89,2.62,865.82,32.29
4633461,-0.01,-0.05,1.02,1.59,-1.34,2.62,865.86,32.3
4633499,0.0,-0.04,1.03,1.4,-1.4,2.5,865.87,32.29
4633537,0.01,-0.05,1.08,1.59,-1.4,2.44,865.77,32.3
4633575,-0.02,-0.06,1.02,1.77,-1.77,2.38,865.88,32.29
4633613,-0.01,-0.03,1.07,1.77,-2.38,2.38,865.85,32.3
4633663,0.01,-0.05,1.08,1.89,-1.4,1.95,865.87,32.29
4633701,0.02,-0.05,1.07,2.08,-1.77,2.14,865.85,32.29
4633740,0.01,-0.05,1.1,2.01,-2.08,1.77,865.91,32.29
4633778,-0.02,-0.06,1.13,2.26,-1.95,1.71,865.98,32.29
4633816,0.01,-0.05,1.1,2.01,-1.34,1.65,865.93,32.29
4633854,0.01,-0.04,1.15,2.38,-1.46,1.34,865.91,32.29
4633892,0.02,-0.06,1.09,2.44,-1.04,1.16,865.99,32.3
4633931,0.02,-0.04,1.09,2.44,-1.46,1.1,865.96,32.28
4633969,0.03,-0.04,1.07,2.56,-0.73,0.92,866.04,32.3
4634018,0.01,-0.05,1.05,2.26,-0.98,0.79,865.93,32.29
4634057,0.01,-0.04,1.12,2.2,-0.85,0.79,865.95,32.29
4634095,0.02,-0.06,1.1,2.14,-0.73,0.37,865.97,32.28
4634133,0.01,-0.06,1.13,2.44,-0.85,0.24,865.92,32.28
4634171,0.04,-0.04,1.11,2.69,-0.37,0.12,865.97,32.28
4634209,0.04,-0.05,1.11,2.81,-0.12,-0.06,866.02,32.3
4634247,0.02,-0.06,1.07,2.56,0.55,-0.37,866.09,32.29
4634285,0.0,-0.06,1.07,2.5,0.79,-0.49,865.98,32.3
4634324,0.01,-0.06,1.05,2.56,0.98,-0.67,866.08,32.29
4634362,0.01,-0.05,1.07,2.32,0.73,-0.79,866.12,32.31
4634412,0.01,-0.07,1.03,2.2,2.38,-0.92,866.09,32.29
4634450,0.01,-0.05,1.06,2.08,2.93,-0.98,866.07,32.3
4634488,-0.0,-0.07,1.01,2.08,4.27,-1.1,866.13,32.3
4634526,-0.01,-0.06,1.01,1.89,3.66,-1.34,866.1,32.31
4634564,-0.01,-0.06,1.0,1.89,5.43,-1.4,866.13,32.3
4634602,0.01,-0.08,0.94,1.89,5.49,-1.46,866.22,32.31
4634641,-0.01,-0.06,0.96,1.71,4.88,-1.53,866.19,32.32
4634679,0.0,-0.07,0.96,1.71,5.13,-1.46,866.13,32.32
4634717,0.01,-0.05,1.0,1.1,3.91,-1.34,866.22,32.31
4634755,-0.01,-0.05,1.07,0.98,3.72,-1.16,866.13,32.3
4634805,-0.01,-0.06,1.09,0.49,2.87,-1.28,866.22,32.3
4634843,-0.04,-0.06,1.12,0.49,3.05,-1.16,866.25,32.32
4634881,-0.0,-0.06,1.11,0.18,3.05,-1.1,866.23,32.31
4634919,-0.0,-0.04,1.12,0.31,2.87,-0.98,866.21,32.3
4634957,-0.04,-0.07,1.09,0.43,2.69,-0.85,866.2,32.32
4634995,-0.03,-0.08,1.05,0.31,2.75,-1.04,866.26,32.3
4635034,-0.0,-0.06,1.08,0.37,3.11,-1.1,866.33,32.31
4635072,-0.01,-0.07,1.05,0.49,2.99,-0.98,866.27,32.3
4635110,-0.02,-0.07,1.06,0.37,2.99,-0.98,866.32,32.3
4635160,-0.02,-0.07,1.11,0.61,2.81,-0.85,866.39,32.28
4635198,-0.02,-0.07,1.1,0.55,2.62,-0.85,866.27,32.28
4635236,-0.04,-0.07,1.1,0.49,1.95,-0.73,866.32,32.29
4635274,-0.02,-0.06,1.14,0.73,2.26,-0.61,866.41,32.3
4635312,-0.01,-0.08,1.1,0.43,1.77,-0.61,866.43,32.31
4635350,-0.03,-0.05,1.18,0.18,1.34,-0.37,866.38,32.3
4635388,-0.02,-0.07,1.12,0.24,2.14,-0.55,866.39,32.29
4635427,-0.04,-0.06,1.16,0.06,1.22,-0.49,866.4,32.29
