timestamp,acc_x,acc_y,acc_z,rot_x,rot_y,rot_z,qfe,temp
5193545,0.07,-0.07,1.13,-2.14,9.16,-1.22,881.23,30.7
5193583,0.06,-0.06,1.14,-1.77,9.34,-1.71,881.26,30.71
5193621,0.09,-0.06,1.12,-1.65,9.22,-2.08,881.18,30.71
5193659,0.08,-0.05,1.12,-1.53,8.73,-2.5,881.18,30.72
5193697,0.07,-0.07,1.06,-1.46,8.73,-2.87,881.18,30.72
5193735,0.08,-0.05,1.08,-1.59,8.67,-3.54,881.2,30.72
5193774,0.09,-0.06,1.1,-1.71,8.18,-3.85,881.17,30.72
5193812,0.08,-0.06,1.1,-1.77,7.75,-4.39,881.18,30.73
5193850,0.08,-0.06,1.09,-1.89,8.48,-4.76,881.16,30.72
5193888,0.08,-0.06,1.08,-2.2,7.87,-5.25,881.09,30.73
5193938,0.06,-0.05,1.09,-2.69,7.57,-5.86,881.12,30.72
5193976,0.06,-0.06,1.07,-2.99,7.69,-6.23,881.13,30.72
5194014,0.07,-0.07,1.07,-3.3,7.51,-6.84,881.12,30.73
5194052,0.06,-0.06,1.1,-3.36,7.02,-7.32,881.1,30.73
5194090,0.05,-0.05,1.08,-3.48,6.84,-7.57,881.13,30.73
5194128,0.05,-0.05,1.09,-3.97,7.14,-8.12,881.04,30.73
5194166,0.05,-0.05,1.06,-4.03,6.9,-8.48,881.17,30.75
5194205,0.04,-0.06,1.06,-4.03,6.53,-8.85,881.13,30.74
5194243,0.05,-0.06,1.04,-4.21,6.35,-9.09,881.1,30.74
5194293,0.04,-0.05,1.06,-4.21,5.62,-9.4,881.1,30.72
5194331,0.04,-0.06,1.07,-4.27,6.35,-9.77,881.04,30.73
5194369,0.04,-0.05,1.1,-4.27,5.74,-10.01,881.12,30.74
5194407,0.04,-0.05,1.1,-4.46,6.23,-10.25,881.08,30.74
5194445,0.02,-0.05,1.1,-4.52,6.53,-10.5,881.07,30.74
5194483,0.03,-0.04,1.15,-4.88,6.9,-10.93,881.13,30.76
5194522,0.03,-0.04,1.18,-4.7,6.96,-11.11,881.01,30.74
5194560,0.02,-0.04,1.18,-4.76,6.47,-11.17,881.09,30.74
5194598,0.01,-0.04,1.19,-4.94,7.02,-11.23,881.04,30.75
5194648,0.03,-0.04,1.25,-4.64,7.02,-11.72,881.0,30.73
5194686,0.01,-0.05,1.23,-4.52,7.08,-11.9,881.03,30.74
5194724,-0.01,-0.04,1.25,-4.46,6.96,-12.08,881.05,30.75
5194762,-0.0,-0.02,1.24,-4.64,7.87,-12.08,881.05,30.74
5194800,-0.0,-0.01,1.27,-4.82,8.73,-11.96,881.04,30.76
5194838,-0.02,-0.02,1.3,-4.76,8.85,-12.02,881.01,30.75
5194877,-0.02,-0.02,1.3,-4.94,8.91,-11.96,880.99,30.75
5194915,-0.01,-0.02,1.31,-5.13,9.7,-11.9,881.02,30.76
5194953,-0.01,-0.0,1.32,-5.13,9.64,-11.78,881.02,30.76
5194991,-0.03,-0.01,1.3,-5.0,9.83,-11.54,880.98,30.76
5195041,-0.04,-0.01,1.3,-5.07,10.19,-11.78,880.98,30.75
5195079,-0.0,-0.01,1.3,-5.19,10.25,-11.23,880.97,30.75
5195117,-0.02,-0.01,1.3,-5.31,10.93,-11.35,880.93,30.75
5195155,-0.04,-0.0,1.33,-5.07,11.66,-11.05,880.9,30.76
5195194,-0.03,0.0,1.39,-4.76,11.84,-10.99,880.87,30.76
5195232,-0.04,0.0,1.42,-4.39,12.21,-10.74,880.87,30.76
5195270,-0.04,-0.0,1.39,-4.52,12.82,-10.62,880.86,30.76
5195308,-0.06,0.01,1.41,-4.33,13.37,-10.44,880.84,30.76
5195346,-0.03,0.01,1.39,-4.27,13.73,-10.07,880.86,30.76
5195422,-0.05,0.01,1.4,-4.46,13.18,-9.64,880.78,30.72
5195460,-0.04,0.01,1.4,-4.27,13.85,-9.22,880.71,30.73
5195498,-0.03,0.01,1.43,-4.64,13.49,-8.91,880.72,30.75
5195588,-0.05,0.01,1.42,-4.64,11.11,-8.24,880.66,30.71
5195626,-0.03,-0.0,1.37,-4.94,10.86,-8.0,880.66,30.72
5195664,-0.03,0.01,1.39,-4.82,10.74,-8.12,880.65,30.74
5195702,-0.03,-0.0,1.33,-4.94,10.68,-7.63,880.64,30.73
5195740,-0.04,0.0,1.32,-4.64,9.77,-7.45,880.66,30.74
5195778,-0.02,-0.0,1.32,-5.0,10.19,-7.2,880.61,30.74
5195828,-0.04,-0.0,1.32,-5.25,9.09,-7.02,880.6,30.73
5195866,-0.04,-0.0,1.31,-5.13,9.03,-6.96,880.62,30.75
5195905,-0.02,-0.01,1.32,-5.13,8.54,-6.71,880.58,30.72
5195943,-0.03,0.0,1.36,-5.19,7.51,-6.47,880.59,30.75
5195981,-0.03,-0.0,1.32,-5.37,7.14,-6.35,880.64,30.76
5196019,-0.02,-0.01,1.34,-5.62,6.84,-6.47,880.55,30.75
5196057,-0.01,-0.01,1.32,-5.55,7.57,-6.35,880.54,30.75
5196095,-0.02,-0.0,1.3,-5.86,7.2,-6.1,880.51,30.76
5196133,-0.04,-0.0,1.3,-5.92,6.77,-6.35,880.47,30.76
5196183,-0.04,-0.0,1.33,-6.04,6.77,-6.16,880.49,30.74
5196221,-0.04,-0.0,1.34,-6.16,6.59,-6.1,880.45,30.75
5196259,-0.03,0.01,1.34,-6.23,6.96,-6.04,880.43,30.75
5196298,-0.03,0.0,1.36,-6.35,7.75,-6.04,880.4,30.76
5196336,-0.02,-0.01,1.35,-6.23,7.69,-6.04,880.4,30.74
5196374,-0.04,-0.0,1.37,-6.29,8.3,-6.04,880.35,30.75
5196412,-0.03,0.0,1.37,-6.16,8.42,-6.1,880.36,30.75
5196450,-0.03,0.0,1.36,-6.35,8.24,-6.04,880.34,30.75
5196488,-0.04,0.01,1.33,-6.59,8.18,-5.92,880.33,30.75
5196526,-0.04,-0.01,1.3,-6.65,8.12,-5.86,880.3,30.74
5196576,-0.03,0.01,1.34,-6.9,7.45,-5.8,880.33,30.75
5196614,-0.03,-0.0,1.33,-6.84,7.26,-5.43,880.27,30.74
5196652,-0.03,-0.0,1.31,-7.02,6.35,-5.37,880.23,30.73
5196691,-0.04,0.0,1.34,-7.08,6.1,-5.43,880.22,30.74
5196729,-0.03,-0.0,1.3,-7.02,4.88,-5.31,880.23,30.75
5196767,-0.02,0.0,1.31,-6.9,3.54,-5.31,880.2,30.74
5196805,-0.03,0.01,1.3,-6.71,3.78,-5.19,880.21,30.74
5196843,-0.02,-0.01,1.27,-6.65,3.78,-4.94,880.16,30.74
5196881,-0.04,0.01,1.29,-6.53,3.66,-5.13,880.13,30.75
5196931,-0.03,-0.0,1.3,-6.53,4.03,-4.88,880.11,30.73
5196969,-0.03,0.0,1.29,-6.65,3.42,-5.13,880.15,30.74
5197007,-0.02,0.01,1.31,-6.59,3.72,-5.0,880.14,30.76
5197045,-0.03,-0.01,1.25,-6.16,3.54,-5.07,880.12,30.74
5197084,-0.02,0.0,1.28,-6.04,2.99,-4.88,880.12,30.75
5197122,-0.03,0.01,1.26,-5.68,3.48,-4.94,880.08,30.76
5197160,-0.02,0.01,1.26,-5.68,3.48,-5.0,880.1,30.74
5197198,-0.02,0.01,1.27,-5.68,3.66,-5.13,880.0,30.76
5197236,-0.03,0.0,1.27,-5.19,4.15,-5.19,880.05,30.77
5197286,-0.01,-0.0,1.25,-5.31,3.78,-5.19,880.01,30.75
5197324,-0.01,-0.0,1.23,-5.31,3.54,-5.07,879.98,30.75
5197362,-0.01,0.0,1.21,-5.31,3.05,-5.19,879.94,30.75
5197400,-0.02,0.0,1.2,-5.13,3.54,-5.37,879.94,30.76
5197438,-0.03,0.0,1.21,-5.07,3.36,-5.25,879.94,30.76
5197476,-0.01,-0.0,1.2,-5.07,3.54,-5.31,879.96,30.76
5197514,-0.01,0.0,1.23,-5.07,3.17,-5.25,879.93,30.78
5197553,-0.01,-0.0,1.2,-4.82,3.42,-5.19,879.89,30.77
5197591,-0.02,-0.0,1.2,-4.7,3.42,-5.19,879.92,30.77
5197629,-0.02,-0.0,1.19,-4.58,4.21,-5.31,879.8,30.76
5197679,-0.01,-0.0,1.18,-4.76,4.27,-5.31,879.89,30.77
5197717,-0.01,-0.01,1.19,-4.64,3.85,-5.55,879.85,30.77
5197755,-0.02,-0.01,1.19,-4.52,4.03,-5.49,879.83,30.77
5197793,0.0,-0.0,1.21,-4.33,4.21,-5.49,879.87,30.78
5197831,-0.0,0.0,1.17,-4.21,4.09,-5.55,879.8,30.77
5197869,-0.02,-0.01,1.15,-4.09,4.21,-5.49,879.87,30.79
5197908,0.01,-0.01,1.13,-4.21,4.46,-5.68,879.81,30.79
5197946,-0.01,-0.0,1.14,-4.21,4.27,-5.62,879.83,30.8
5197984,-0.0,-0.02,1.12,-4.33,4.09,-5.62,879.84,30.78
5198034,0.01,-0.01,1.12,-4.52,4.03,-5.92,879.75,30.79
5198072,0.01,-0.02,1.09,-4.46,4.58,-5.86,879.76,30.8
5198110,0.01,-0.02,1.09,-4.82,3.72,-5.98,879.73,30.78
5198148,0.0,-0.01,1.07,-4.94,4.7,-6.41,879.66,30.79
5198186,0.0,-0.02,1.07,-5.07,3.72,-6.35,879.71,30.8
5198224,0.01,-0.03,1.08,-5.19,4.03,-6.35,879.69,30.8
5198262,-0.0,-0.03,1.05,-5.25,3.66,-6.65,879.7,30.79
5198301,0.01,-0.01,1.06,-5.37,3.17,-6.59,879.69,30.8
5198339,0.02,-0.02,1.03,-5.31,3.72,-6.71,879.65,30.8
5198377,0.01,-0.02,1.03,-5.31,2.87,-6.77,879.68,30.8
5198453,0.01,-0.03,1.01,-5.43,2.69,-6.96,879.55,30.76
5198491,0.01,-0.02,1.06,-5.43,2.38,-7.26,879.55,30.79
5198529,0.0,-0.03,1.03,-5.43,2.26,-7.26,879.6,30.78
5198618,0.0,-0.02,1.0,-5.68,2.01,-7.45,879.56,30.75
5198657,0.01,-0.02,1.03,-5.62,2.01,-7.81,879.62,30.78
5198695,0.01,-0.03,1.02,-5.55,1.95,-7.87,879.56,30.77
5198733,-0.0,-0.02,1.05,-5.74,1.34,-8.0,879.52,30.78
5198771,0.01,-0.02,1.04,-5.74,1.4,-8.12,879.51,30.78
5198809,0.01,-0.02,1.05,-5.92,1.22,-8.24,879.57,30.78
5198859,0.01,-0.02,1.05,-5.8,1.28,-8.18,879.58,30.78
5198897,0.01,-0.02,1.03,-5.98,1.1,-8.54,879.46,30.79
5198935,0.01,-0.01,1.05,-6.04,0.67,-8.79,879.49,30.79
5198973,0.01,-0.02,1.05,-6.16,0.61,-8.61,879.44,30.79
5199011,0.0,-0.01,1.08,-6.47,0.61,-8.97,879.48,30.8
5199050,-0.0,-0.01,1.09,-6.23,0.79,-9.16,879.5,30.79
5199088,-0.01,-0.01,1.09,-6.29,0.73,-9.09,879.46,30.78
5199126,-0.0,-0.01,1.09,-6.29,1.34,-9.34,879.47,30.8
5199164,-0.0,-0.0,1.1,-6.23,0.98,-9.4,879.44,30.79
5199202,0.0,0.0,1.12,-6.23,1.34,-9.58,879.44,30.79
5199252,-0.0,-0.0,1.11,-6.29,1.22,-9.64,879.51,30.77
5199290,-0.0,0.0,1.14,-6.23,1.77,-9.83,879.54,30.78
5199328,0.0,0.01,1.16,-6.1,1.95,-9.89,879.39,30.78
5199366,-0.0,0.02,1.21,-6.04,1.34,-9.95,879.42,30.81
5199404,-0.01,0.02,1.21,-6.29,1.4,-9.95,879.4,30.79
5199443,-0.01,0.03,1.25,-6.23,1.65,-10.07,879.47,30.79
5199481,-0.01,0.03,1.26,-6.04,2.14,-9.95,879.47,30.8
5199519,-0.01,0.03,1.28,-5.86,1.46,-10.01,879.49,30.79
5199557,-0.02,0.03,1.29,-5.55,1.83,-9.83,879.48,30.79
5199607,-0.01,0.03,1.29,-5.0,1.95,-10.13,879.44,30.79
5199645,-0.01,0.04,1.29,-4.94,1.89,-9.89,879.42,30.79
5199683,-0.01,0.03,1.26,-4.7,2.2,-9.89,879.44,30.77
5199721,-0.01,0.03,1.26,-4.39,1.95,-9.83,879.43,30.79
5199759,-0.03,0.04,1.27,-4.33,2.44,-9.7,879.48,30.79
5199798,-0.01,0.02,1.27,-3.91,2.56,-9.83,879.44,30.79
5199836,-0.01,0.04,1.3,-3.97,2.56,-9.89,879.42,30.78
5199874,-0.03,0.04,1.29,-3.42,2.87,-9.7,879.38,30.8
5199912,-0.02,0.04,1.28,-3.6,3.48,-9.7,879.43,30.8
5199962,-0.01,0.05,1.35,-3.72,3.11,-9.7,879.39,30.79
5200000,-0.03,0.05,1.34,-3.66,2.5,-9.4,879.35,30.78
5200038,-0.01,0.05,1.36,-3.72,2.62,-9.34,879.41,30.79
5200076,-0.01,0.05,1.33,-3.78,2.81,-9.34,879.39,30.8
5200114,-0.02,0.05,1.35,-4.03,2.56,-9.09,879.43,30.81
5200153,-0.02,0.03,1.29,-3.78,2.81,-8.97,879.4,30.8
5200191,-0.03,0.03,1.28,-3.85,2.87,-9.03,879.43,30.81
5200229,-0.01,0.03,1.25,-3.78,3.54,-9.03,879.41,30.79
5200267,-0.02,0.01,1.2,-3.66,3.36,-8.73,879.44,30.8
5200305,-0.01,-0.0,1.2,-3.6,3.36,-8.85,879.42,30.8
5200355,-0.01,-0.0,1.13,-3.78,3.3,-8.73,879.46,30.8
5200393,-0.02,0.0,1.17,-3.48,2.69,-8.48,879.43,30.8
5200431,-0.01,-0.02,1.08,-3.85,3.05,-8.18,879.39,30.8
5200469,-0.02,-0.01,1.14,-4.21,1.95,-8.24,879.4,30.8
5200507,-0.01,-0.02,1.1,-4.39,2.2,-8.12,879.46,30.82
5200546,0.0,-0.04,1.09,-4.64,1.46,-8.06,879.45,30.81
5200584,0.0,-0.02,1.11,-4.82,2.08,-8.24,879.42,30.81
5200622,-0.03,-0.02,1.1,-5.0,1.65,-8.18,879.4,30.81
5200660,-0.01,-0.02,1.11,-5.31,2.08,-8.06,879.45,30.82
5200710,-0.01,-0.03,1.08,-5.74,1.89,-8.12,879.48,30.8
5200748,-0.01,-0.03,1.12,-6.04,2.26,-8.3,879.44,30.8
5200786,0.01,-0.03,1.1,-6.16,2.26,-8.06,879.43,30.8
5200824,-0.01,-0.02,1.14,-6.35,2.32,-8.12,879.42,30.8
5200862,0.0,-0.03,1.11,-6.35,2.99,-8.3,879.43,30.8
5200900,0.0,-0.02,1.15,-6.59,2.69,-8.42,879.43,30.8
5200939,-0.01,-0.01,1.16,-6.71,2.93,-8.36,879.45,30.8
5200977,-0.0,-0.02,1.19,-6.71,2.75,-8.3,879.38,30.8
5201015,-0.01,-0.01,1.21,-6.96,2.32,-8.42,879.47,30.82
5201053,-0.01,-0.02,1.22,-7.08,2.62,-8.24,879.43,30.79
5201103,0.0,-0.01,1.23,-7.02,2.26,-8.42,879.5,30.79
5201141,0.01,-0.01,1.21,-7.02,2.75,-8.36,879.42,30.79
5201179,-0.01,-0.01,1.18,-6.77,2.75,-8.3,879.46,30.79
5201217,-0.01,-0.01,1.19,-6.9,3.42,-8.42,879.47,30.8
5201255,-0.0,-0.01,1.21,-6.71,3.48,-8.61,879.43,30.79
5201293,-0.01,-0.0,1.26,-6.71,3.42,-8.42,879.4,30.8
5201331,-0.01,0.0,1.29,-6.65,3.78,-8.42,879.36,30.78
5201370,-0.01,0.02,1.36,-6.65,3.78,-8.73,879.44,30.8
5201408,-0.01,0.02,1.37,-6.59,5.0,-8.73,879.41,30.78
5201483,-0.02,0.05,1.41,-6.59,5.62,-8.61,879.38,30.76
5201522,-0.01,0.04,1.43,-6.29,5.68,-8.79,879.42,30.77
5201560,-0.01,0.05,1.44,-6.35,5.74,-8.61,879.4,30.77
5201649,-0.0,0.04,1.46,-5.55,6.1,-8.36,879.43,30.75
5201687,-0.01,0.05,1.48,-5.25,6.1,-8.3,879.41,30.76
5201725,-0.02,0.04,1.44,-4.94,6.47,-8.18,879.42,30.77
5201763,-0.01,0.03,1.41,-5.0,6.29,-8.18,879.45,30.77
5201802,-0.02,0.04,1.4,-4.82,6.53,-7.93,879.45,30.78
5201840,-0.02,0.03,1.38,-4.76,6.23,-7.93,879.46,30.78
5201878,-0.02,0.02,1.36,-4.76,6.29,-7.75,879.43,30.78
5201928,-0.02,0.01,1.33,-4.64,5.8,-7.51,879.47,30.77
5201966,-0.01,0.01,1.32,-4.46,4.88,-7.26,879.43,30.77
5202004,-0.02,0.01,1.31,-4.64,4.64,-7.2,879.4,30.78
5202042,-0.0,0.01,1.28,-4.88,4.46,-6.9,879.45,30.77
5202080,-0.01,0.01,1.27,-5.0,4.15,-6.9,879.46,30.78
5202118,-0.01,-0.0,1.28,-5.37,3.48,-6.71,879.45,30.78
5202157,-0.02,-0.0,1.27,-5.49,3.42,-6.71,879.42,30.78
5202195,-0.0,-0.0,1.26,-5.62,3.05,-6.47,879.44,30.79
5202233,-0.0,0.0,1.26,-5.62,2.08,-6.41,879.43,30.78
5202283,-0.01,-0.0,1.26,-5.68,2.01,-6.29,879.39,30.77
5202321,0.0,-0.0,1.24,-5.68,1.53,-6.16,879.41,30.79
5202359,-0.0,0.0,1.25,-5.68,1.16,-6.23,879.42,30.78
5202397,-0.0,0.0,1.27,-5.74,0.79,-6.16,879.43,30.78
5202435,-0.01,-0.0,1.28,-5.8,0.67,-6.23,879.43,30.8
5202473,-0.0,-0.0,1.28,-5.62,0.37,-6.16,879.44,30.79
5202511,-0.01,0.0,1.3,-5.68,-0.06,-6.16,879.37,30.79
5202549,0.01,-0.0,1.29,-5.49,0.85,-6.23,879.4,30.8
5202588,-0.0,0.0,1.3,-5.49,0.79,-6.65,879.42,30.79
5202637,-0.0,-0.0,1.29,-5.43,1.22,-6.84,879.42,30.78
5202675,-0.0,-0.0,1.31,-5.37,1.4,-6.84,879.44,30.79
5202714,0.01,-0.0,1.3,-5.37,2.32,-6.96,879.45,30.8
5202752,0.0,0.0,1.32,-5.19,2.44,-7.02,879.35,30.78
5202790,-0.01,0.0,1.33,-5.07,3.05,-7.2,879.35,30.79
5202828,-0.0,0.0,1.33,-5.13,3.42,-7.32,879.38,30.8
5202866,0.01,0.02,1.36,-5.0,3.85,-7.32,879.36,30.79
5202904,0.0,0.01,1.38,-4.7,3.48,-7.32,879.39,30.8
5202942,-0.0,0.01,1.38,-4.27,3.6,-7.26,879.4,30.79
5202980,-0.01,0.0,1.37,-4.09,4.03,-7.32,879.32,30.8
5203030,-0.01,-0.0,1.33,-3.6,3.91,-7.32,879.47,30.8
5203068,-0.01,-0.01,1.29,-3.36,4.09,-7.32,879.44,30.79
5203107,-0.01,-0.01,1.27,-3.3,4.27,-7.26,879.35,30.79
5203145,-0.0,-0.01,1.24,-3.36,4.39,-7.32,879.38,30.8
5203183,-0.01,-0.02,1.23,-3.54,4.7,-7.51,879.4,30.8
5203221,-0.01,-0.02,1.2,-3.72,5.0,-7.39,879.42,30.8
5203259,-0.0,-0.03,1.2,-3.78,4.88,-7.14,879.41,30.79
5203297,-0.01,-0.04,1.15,-3.72,5.37,-7.39,879.35,30.78
5203336,-0.0,-0.04,1.12,-4.03,5.55,-7.45,879.42,30.79
5203385,0.01,-0.03,1.1,-4.27,5.92,-7.39,879.4,30.78
5203423,-0.0,-0.04,1.09,-4.58,5.86,-7.57,879.38,30.8
5203462,-0.01,-0.03,1.09,-4.94,5.86,-7.45,879.39,30.79
5203500,-0.01,-0.04,1.1,-5.13,6.41,-7.45,879.43,30.79
5203538,0.0,-0.04,1.09,-5.49,6.96,-7.57,879.35,30.79
5203576,0.0,-0.03,1.11,-5.74,6.77,-7.2,879.39,30.8
5203614,-0.0,-0.03,1.16,-5.98,7.02,-7.26,879.39,30.8
5203652,-0.01,-0.04,1.15,-6.23,7.63,-7.32,879.36,30.8
5203690,-0.01,-0.04,1.17,-6.59,6.96,-7.08,879.33,30.8
5203729,-0.02,-0.02,1.2,-6.71,6.96,-7.02,879.38,30.79
5203778,-0.01,-0.02,1.2,-6.96,6.96,-6.84,879.39,30.8
5203817,0.0,-0.02,1.27,-6.9,6.65,-6.84,879.42,30.8
5203855,0.0,-0.04,1.24,-6.9,6.84,-6.71,879.4,30.8
5203893,-0.01,-0.03,1.23,-7.14,6.71,-6.77,879.38,30.82
5203931,-0.0,-0.02,1.24,-6.9,6.84,-6.59,879.37,30.8
5203969,0.0,-0.03,1.23,-7.02,6.1,-6.41,879.34,30.8
5204007,-0.0,-0.02,1.25,-6.77,5.31,-6.41,879.34,30.82
5204045,0.01,-0.03,1.22,-6.77,4.82,-6.47,879.26,30.8
5204083,-0.01,-0.03,1.25,-6.71,4.27,-6.41,879.32,30.82
5204133,0.0,-0.03,1.24,-6.65,4.58,-6.29,879.35,30.8
5204171,-0.01,-0.03,1.26,-6.59,4.27,-6.41,879.37,30.8
5204210,-0.0,-0.03,1.24,-6.53,4.7,-6.41,879.39,30.8
5204248,0.0,-0.03,1.25,-6.53,4.94,-6.41,879.38,30.82
5204286,0.0,-0.03,1.25,-6.41,5.25,-6.53,879.37,30.81
5204324,0.0,-0.02,1.26,-6.41,4.76,-6.65,879.31,30.82
5204362,-0.0,-0.01,1.28,-6.29,5.19,-6.47,879.37,30.81
5204400,-0.0,-0.02,1.29,-6.23,4.7,-6.35,879.3,30.82
5204438,-0.0,-0.01,1.32,-6.23,5.19,-6.41,879.34,30.82
5204516,0.0,-0.01,1.34,-6.23,4.58,-6.29,879.29,30.8
5204554,0.0,-0.01,1.34,-6.23,4.64,-6.1,879.29,30.8
5204592,0.0,-0.01,1.33,-6.1,4.94,-6.04,879.34,30.81
5204682,0.0,-0.01,1.35,-5.86,3.85,-5.98,879.24,30.77
5204720,-0.0,-0.01,1.35,-5.8,3.78,-5.86,879.24,30.79
5204758,0.01,-0.01,1.36,-5.62,3.54,-5.86,879.31,30.79
5204796,0.01,-0.0,1.36,-5.62,3.54,-5.8,879.28,30.79
5204834,0.0,0.0,1.35,-5.49,3.17,-5.74,879.3,30.78
5204872,0.02,-0.01,1.34,-5.31,3.11,-5.86,879.33,30.8
5204910,0.02,-0.01,1.34,-5.13,2.81,-5.92,879.25,30.78
5204960,0.0,-0.01,1.32,-4.94,2.44,-5.8,879.22,30.79
5204998,0.01,-0.0,1.31,-5.13,2.38,-6.04,879.27,30.78
5205037,0.01,-0.0,1.33,-5.13,2.5,-6.1,879.24,30.79
5205075,0.01,-0.01,1.32,-4.94,2.44,-5.98,879.22,30.79
5205113,0.0,-0.01,1.32,-5.0,2.87,-6.1,879.23,30.79
5205151,0.01,-0.01,1.34,-4.88,2.93,-6.23,879.23,30.79
5205189,0.01,-0.0,1.35,-4.94,2.81,-6.29,879.2,30.8
5205227,0.0,-0.02,1.29,-5.07,2.87,-6.47,879.25,30.79
5205265,0.01,-0.01,1.31,-5.19,3.17,-6.53,879.2,30.79
5205315,0.02,-0.02,1.26,-5.19,3.54,-6.77,879.21,30.78
5205353,0.01,-0.01,1.25,-5.37,3.6,-6.71,879.2,30.79
5205392,0.01,-0.01,1.26,-5.55,4.21,-6.84,879.19,30.79
5205430,0.02,-0.02,1.25,-5.74,3.97,-6.9,879.18,30.79
5205468,0.01,-0.01,1.28,-5.8,3.97,-7.2,879.18,30.8
5205506,0.02,-0.01,1.27,-5.86,4.39,-7.08,879.21,30.77
5205544,0.02,-0.01,1.27,-6.04,3.91,-7.32,879.22,30.8
5205582,0.02,-0.01,1.28,-6.1,3.91,-7.32,879.24,30.79
5205620,0.01,-0.02,1.26,-5.98,3.66,-7.45,879.15,30.8
5205659,0.02,-0.01,1.28,-6.1,3.72,-7.51,879.22,30.8
5205708,0.02,-0.01,1.28,-6.16,3.42,-7.63,879.2,30.79
5205747,0.01,-0.01,1.29,-6.1,3.42,-7.63,879.16,30.8
5205785,0.01,-0.01,1.29,-6.1,3.54,-7.69,879.23,30.79
5205823,0.0,-0.02,1.29,-6.04,3.3,-7.87,879.18,30.79
5205861,0.01,-0.02,1.25,-6.04,3.72,-7.75,879.25,30.8
5205899,0.01,-0.01,1.28,-5.8,4.03,-7.93,879.24,30.79
5205937,0.01,-0.02,1.24,-6.1,4.39,-8.06,879.22,30.79
5205976,0.0,-0.01,1.28,-6.1,3.42,-8.24,879.24,30.8
5206014,-0.03,-0.01,1.28,-5.98,4.09,-8.24,879.2,30.8
5206063,0.0,-0.01,1.31,-6.23,4.21,-8.3,879.17,30.78
5206102,-0.01,-0.0,1.33,-6.23,4.58,-8.3,879.14,30.79
5206140,-0.01,-0.0,1.32,-6.41,4.58,-8.3,879.2,30.79
5206178,-0.01,-0.0,1.34,-6.29,4.7,-8.3,879.19,30.79
5206216,-0.0,-0.01,1.34,-6.1,4.46,-8.06,879.14,30.79
5206254,-0.02,-0.0,1.31,-6.29,4.7,-8.18,879.16,30.8
5206292,-0.01,-0.0,1.31,-6.23,4.39,-8.06,879.23,30.79
5206331,0.0,-0.0,1.33,-6.29,4.46,-8.12,879.18,30.79
5206369,-0.0,-0.01,1.34,-6.23,4.21,-8.0,879.15,30.79
5206407,-0.01,-0.01,1.33,-6.23,3.91,-7.93,879.22,30.79
5206457,-0.01,-0.01,1.34,-6.23,3.85,-8.06,879.15,30.79
5206495,-0.0,-0.02,1.34,-6.35,4.09,-8.06,879.12,30.79
5206533,-0.0,-0.02,1.33,-6.29,4.15,-8.06,879.11,30.79
5206571,-0.02,-0.01,1.29,-6.41,3.91,-7.93,879.16,30.8
5206609,-0.01,-0.01,1.27,-6.47,4.15,-8.06,879.15,30.79
5206647,-0.01,-0.01,1.29,-6.29,3.23,-7.87,879.15,30.79
5206686,-0.0,-0.01,1.29,-6.41,2.93,-7.63,879.15,30.8
5206724,-0.01,-0.0,1.34,-6.47,3.36,-7.87,879.09,30.8
5206762,-0.01,-0.01,1.34,-6.47,4.33,-7.75,879.08,30.79
5206812,-0.01,0.0,1.39,-6.9,3.48,-7.63,879.12,30.79
5206850,-0.01,0.0,1.39,-7.14,4.15,-7.81,879.06,30.79
5206888,-0.01,-0.01,1.4,-6.9,4.33,-7.57,879.07,30.79
5206926,-0.01,-0.01,1.4,-6.59,4.27,-7.39,879.11,30.8
5206964,-0.02,0.0,1.39,-6.53,3.85,-7.63,879.09,30.8
5207002,-0.01,0.0,1.36,-6.59,3.78,-7.51,879.09,30.81
5207041,-0.02,-0.0,1.35,-6.96,3.72,-7.45,879.04,30.8
5207079,-0.01,-0.0,1.38,-6.84,4.39,-7.26,879.04,30.82
5207117,0.01,-0.01,1.39,-6.41,3.78,-7.32,879.06,30.8
5207167,-0.02,-0.0,1.39,-6.29,3.66,-7.39,879.08,30.79
5207205,-0.01,-0.0,1.39,-6.35,3.66,-7.2,879.04,30.81
5207243,-0.01,0.0,1.4,-6.16,4.39,-7.2,879.08,30.8
5207281,-0.01,-0.0,1.41,-6.29,4.33,-7.26,879.05,30.8
5207319,-0.0,-0.01,1.39,-6.29,4.76,-7.45,879.06,30.82
5207357,-0.01,-0.0,1.39,-6.16,4.58,-7.45,879.06,30.8
5207395,-0.01,-0.01,1.38,-6.35,5.13,-7.32,879.04,30.81
5207434,-0.01,-0.01,1.36,-6.53,4.82,-7.2,878.98,30.81
5207472,-0.01,-0.01,1.35,-6.41,4.7,-7.14,879.0,30.8
5207510,-0.0,-0.01,1.33,-6.47,4.7,-7.26,879.07,30.82
5207638,-0.0,-0.01,1.35,-6.47,3.78,-7.14,878.99,30.75
5207676,-0.01,-0.01,1.33,-6.53,3.42,-7.02,878.93,30.77
5207714,-0.01,-0.01,1.37,-6.53,2.99,-7.08,879.01,30.78
5207803,-0.01,-0.0,1.38,-6.59,2.62,-6.84,878.97,30.74
5207842,-0.0,-0.0,1.35,-6.71,2.69,-6.96,878.96,30.76
5207880,-0.0,0.0,1.39,-6.71,2.14,-7.14,878.94,30.77
5207918,-0.01,-0.01,1.38,-6.53,2.5,-7.08,878.91,30.77
5207956,0.0,-0.01,1.39,-6.53,3.3,-7.02,878.89,30.77
5207994,-0.0,-0.0,1.4,-6.29,3.97,-7.02,878.93,30.79
5208044,-0.01,0.0,1.37,-6.41,3.72,-7.32,878.82,30.77
5208082,0.0,-0.0,1.38,-6.23,4.52,-7.45,878.85,30.78
5208120,0.01,-0.01,1.36,-6.47,3.97,-7.51,878.81,30.79
5208158,0.01,0.01,1.38,-6.29,4.27,-7.63,878.86,30.77
5208196,0.01,0.0,1.38,-6.1,4.52,-7.69,878.81,30.78
5208235,0.01,-0.01,1.39,-6.23,4.33,-7.57,878.82,30.79
5208273,0.0,-0.02,1.33,-6.1,4.64,-7.75,878.85,30.8
5208311,0.01,-0.01,1.33,-5.92,4.09,-7.87,878.83,30.79
5208349,0.01,-0.01,1.28,-6.04,4.39,-8.06,878.84,30.8
5208399,0.01,-0.01,1.28,-5.92,3.48,-7.93,878.78,30.78
5208437,0.01,-0.03,1.26,-5.98,3.91,-8.06,878.77,30.79
5208475,0.01,-0.02,1.29,-6.23,3.17,-8.12,878.8,30.81
5208513,0.01,-0.01,1.31,-5.98,3.11,-8.18,878.77,30.78
5208552,0.02,-0.01,1.29,-6.29,2.56,-8.48,878.8,30.79
5208590,0.02,-0.03,1.31,-6.41,2.38,-8.54,878.72,30.79
5208628,0.03,-0.03,1.28,-6.41,2.32,-8.54,878.75,30.79
5208666,0.01,-0.02,1.28,-6.35,1.59,-8.73,878.79,30.8
5208704,0.0,-0.01,1.25,-6.35,1.04,-8.79,878.7,30.79
5208742,0.01,-0.0,1.28,-6.9,0.43,-8.85,878.69,30.79
5208792,0.02,-0.02,1.32,-7.02,-0.06,-9.03,878.69,30.77
5208830,0.01,-0.01,1.34,-7.02,-0.24,-9.09,878.67,30.79
5208868,0.01,0.0,1.34,-6.9,-0.55,-9.34,878.67,30.79
5208906,0.0,0.01,1.35,-6.96,0.0,-9.16,878.67,30.79
5208944,0.0,-0.0,1.36,-6.84,-0.18,-9.4,878.71,30.8
5208983,-0.02,0.01,1.38,-6.71,0.18,-9.46,878.7,30.8
5209021,-0.01,-0.0,1.35,-6.47,0.55,-9.7,878.71,30.8
5209059,0.01,0.0,1.37,-6.35,0.55,-9.83,878.72,30.8
5209097,-0.0,-0.0,1.36,-6.23,0.24,-9.7,878.69,30.81
5209147,-0.01,-0.01,1.36,-5.8,0.61,-9.64,878.66,30.79
5209185,0.0,-0.0,1.34,-5.74,1.22,-9.83,878.67,30.81
5209223,0.0,-0.0,1.35,-5.43,1.1,-10.01,878.69,30.8
5209261,-0.01,-0.01,1.32,-5.31,1.71,-10.01,878.62,30.79
5209299,-0.01,-0.0,1.31,-5.25,2.14,-10.31,878.62,30.79
5209337,0.01,-0.0,1.33,-5.37,2.56,-10.31,878.62,30.8
5209376,-0.0,-0.02,1.27,-5.43,2.87,-10.31,878.69,30.8
5209414,-0.0,-0.01,1.3,-5.49,2.32,-10.01,878.66,30.81
5209452,-0.0,-0.02,1.26,-5.55,3.05,-10.25,878.58,30.8
5209490,-0.02,-0.01,1.28,-5.55,2.5,-10.19,878.59,30.79
5209540,-0.02,-0.01,1.3,-5.62,3.36,-10.25,878.63,30.79
5209578,-0.01,-0.01,1.3,-5.62,2.93,-10.13,878.55,30.8
5209616,-0.01,-0.0,1.34,-5.55,3.54,-10.19,878.62,30.81
5209654,-0.01,-0.01,1.32,-5.68,4.09,-10.19,878.58,30.81
5209692,-0.01,0.0,1.34,-5.68,4.58,-10.19,878.59,30.8
5209731,-0.02,-0.0,1.34,-5.55,4.39,-10.25,878.61,30.79
5209769,-0.01,-0.0,1.37,-5.62,4.39,-10.25,878.59,30.8
5209807,-0.01,-0.01,1.33,-5.74,4.21,-10.19,878.52,30.8
5209845,-0.01,0.01,1.34,-5.62,4.7,-10.01,878.56,30.8
5209895,0.0,-0.01,1.34,-5.49,4.64,-10.01,878.55,30.79
5209933,-0.02,-0.01,1.34,-5.31,4.58,-9.95,878.51,30.79
5209971,-0.01,-0.02,1.31,-5.25,5.07,-9.89,878.49,30.79
5210009,-0.02,-0.01,1.28,-5.43,4.82,-9.89,878.5,30.79
5210048,-0.02,-0.01,1.29,-5.55,4.58,-9.89,878.51,30.79
5210086,-0.02,-0.02,1.26,-5.62,4.39,-9.89,878.53,30.8
5210124,-0.02,-0.02,1.24,-5.92,4.15,-9.64,878.53,30.79
5210162,-0.02,-0.02,1.24,-5.8,4.21,-9.52,878.54,30.8
5210200,-0.02,-0.02,1.2,-5.68,3.48,-9.58,878.48,30.8
5210250,-0.03,-0.02,1.2,-5.92,3.54,-9.34,878.47,30.77
5210288,-0.02,-0.03,1.21,-5.8,2.99,-9.22,878.46,30.8
5210326,-0.03,-0.02,1.22,-5.92,2.26,-8.97,878.52,30.8
5210364,-0.03,-0.02,1.21,-6.29,2.5,-8.85,878.43,30.79
5210403,-0.02,-0.0,1.23,-6.35,2.62,-8.91,878.46,30.8
5210441,-0.02,-0.01,1.23,-6.65,2.81,-8.79,878.44,30.81
5210479,-0.03,-0.02,1.24,-6.53,2.99,-8.73,878.4,30.81
5210517,-0.03,-0.01,1.29,-6.35,3.54,-8.79,878.38,30.8
5210555,-0.03,-0.01,1.3,-6.1,3.85,-8.79,878.41,30.79
5210631,-0.03,-0.01,1.32,-6.1,3.78,-8.48,878.38,30.77
5210669,-0.0,-0.01,1.3,-5.98,4.7,-8.48,878.33,30.79
5210708,-0.03,-0.01,1.3,-6.35,4.09,-8.48,878.38,30.8
5210797,-0.02,-0.01,1.3,-6.84,3.97,-8.24,878.3,30.76
5210835,0.0,-0.0,1.36,-6.96,3.91,-8.24,878.3,30.77
5210873,-0.01,-0.01,1.36,-6.77,3.97,-8.12,878.32,30.78
5210912,-0.02,-0.01,1.31,-6.9,3.6,-8.3,878.34,30.8
5210950,-0.01,0.01,1.35,-6.77,3.78,-8.36,878.38,30.79
5210988,-0.02,-0.01,1.3,-6.59,3.85,-8.12,878.28,30.79
5211026,-0.03,-0.01,1.32,-6.65,3.3,-8.06,878.26,30.79
5211076,-0.02,-0.0,1.29,-6.53,4.03,-8.12,878.25,30.77
5211114,-0.01,0.0,1.33,-6.71,3.11,-7.69,878.24,30.78
5211152,-0.01,-0.01,1.31,-6.71,2.69,-7.81,878.19,30.79
5211190,-0.01,0.0,1.34,-6.96,2.14,-7.45,878.12,30.8
5211228,-0.02,-0.0,1.31,-7.32,2.38,-7.51,878.11,30.8
5211267,-0.02,0.01,1.35,-7.57,0.67,-7.32,878.1,30.79
5211305,-0.01,0.01,1.35,-7.26,1.83,-7.39,878.15,30.8
5211343,-0.01,0.02,1.36,-7.39,1.22,-7.26,878.13,30.8
5211381,-0.01,0.0,1.41,-7.08,2.2,-7.2,878.12,30.8
5211431,-0.0,0.01,1.44,-6.53,2.32,-7.39,878.17,30.78
5211469,-0.0,0.02,1.43,-6.47,3.6,-7.45,878.08,30.78
5211507,-0.02,0.02,1.41,-6.23,3.78,-7.63,878.1,30.8
5211545,-0.01,0.01,1.38,-6.16,5.0,-7.81,878.09,30.8
5211583,-0.01,0.01,1.37,-6.1,4.82,-7.81,878.04,30.79
5211621,-0.01,0.01,1.37,-6.16,4.64,-7.75,878.08,30.8
5211660,-0.02,0.03,1.36,-5.98,4.03,-7.75,878.06,30.79
5211698,-0.02,0.02,1.4,-5.92,4.94,-7.63,878.08,30.8
5211736,0.0,-0.0,1.36,-5.98,4.09,-7.63,878.06,30.8
5211774,-0.01,0.01,1.4,-5.98,3.85,-7.57,878.04,30.79
5211824,-0.01,0.01,1.34,-6.1,4.09,-7.45,878.0,30.77
5211862,0.0,0.02,1.37,-6.04,3.05,-7.51,877.99,30.79
5211900,-0.01,0.01,1.35,-5.98,2.81,-7.63,877.97,30.79
5211938,-0.01,-0.0,1.34,-6.04,3.11,-7.57,878.0,30.8
5211976,-0.0,0.01,1.34,-6.23,3.3,-7.63,877.96,30.8
5212014,0.01,0.01,1.34,-5.92,2.62,-7.81,877.91,30.8
5212053,-0.01,-0.0,1.32,-6.04,2.81,-7.75,877.99,30.79
5212091,-0.01,-0.01,1.29,-5.98,2.93,-7.93,877.92,30.79
5212129,0.0,-0.0,1.31,-5.86,3.23,-8.24,877.9,30.79
5212179,-0.01,-0.0,1.26,-5.8,2.75,-8.06,877.87,30.79
5212217,-0.01,0.0,1.28,-5.92,3.05,-8.24,877.88,30.79
5212255,-0.0,-0.01,1.24,-5.92,3.42,-8.36,877.86,30.79
5212293,0.0,-0.01,1.28,-6.1,2.99,-8.42,877.91,30.8
5212331,0.0,-0.01,1.25,-6.16,2.87,-8.42,877.9,30.8
5212369,-0.01,-0.01,1.25,-6.59,2.87,-8.73,877.83,30.78
5212407,-0.0,-0.01,1.24,-6.71,3.91,-8.67,877.82,30.79
5212446,-0.01,-0.01,1.24,-6.53,3.97,-8.85,877.85,30.81
5212484,-0.01,-0.01,1.22,-6.47,3.42,-8.79,877.87,30.81
5212533,-0.0,0.0,1.25,-6.77,3.78,-9.34,877.78,30.79
5212572,0.0,-0.01,1.23,-6.71,4.46,-9.34,877.77,30.8
5212610,-0.01,-0.01,1.24,-6.96,4.21,-9.16,877.74,30.82
5212648,-0.01,-0.01,1.27,-6.71,4.7,-9.58,877.83,30.8
5212686,-0.01,-0.01,1.24,-6.65,4.27,-9.7,877.72,30.79
5212724,-0.01,0.0,1.29,-6.59,4.39,-9.58,877.7,30.8
5212762,-0.01,-0.01,1.25,-6.59,4.52,-9.58,877.71,30.8
5212800,-0.02,-0.0,1.27,-6.41,4.46,-9.77,877.72,30.79
5212838,-0.0,-0.01,1.26,-6.47,4.46,-9.7,877.68,30.8
5212877,-0.01,0.0,1.26,-6.35,4.09,-9.77,877.68,30.8
5212926,-0.01,-0.01,1.25,-6.35,3.48,-9.83,877.67,30.8
5212964,-0.02,-0.01,1.23,-6.29,3.23,-9.7,877.7,30.8
5213003,-0.01,-0.01,1.24,-6.53,3.11,-9.64,877.6,30.79
5213041,-0.01,-0.0,1.25,-6.35,2.56,-9.77,877.59,30.8
5213079,-0.02,-0.01,1.26,-6.59,2.69,-9.83,877.6,30.81
5213117,-0.02,-0.01,1.25,-6.41,2.69,-9.77,877.58,30.81
5213155,-0.02,-0.0,1.27,-6.41,2.32,-9.64,877.59,30.81
5213193,-0.01,-0.0,1.26,-6.47,2.44,-9.58,877.56,30.82
5213231,-0.02,-0.0,1.26,-6.59,2.38,-9.77,877.58,30.81
5213281,-0.02,-0.0,1.26,-6.23,2.81,-9.83,877.55,30.79
5213319,-0.02,-0.01,1.27,-6.29,2.62,-9.64,877.56,30.8
5213357,-0.0,-0.0,1.29,-6.1,2.69,-10.01,877.54,30.81
5213395,-0.02,-0.0,1.29,-6.29,2.93,-9.89,877.55,30.81
5213434,-0.02,-0.0,1.27,-6.16,2.56,-9.89,877.5,30.8
5213472,-0.03,0.0,1.3,-6.16,2.75,-9.89,877.49,30.81
5213510,-0.02,0.0,1.3,-6.04,2.99,-9.89,877.42,30.8
5213548,-0.02,0.01,1.29,-6.1,2.93,-10.07,877.44,30.8
5213586,-0.03,0.01,1.31,-5.92,3.42,-9.83,877.41,30.81
5213624,-0.02,0.0,1.28,-6.04,3.6,-9.89,877.43,30.8
5213700,-0.02,0.0,1.31,-5.8,4.15,-9.7,877.38,30.76
5213738,-0.02,0.0,1.3,-5.86,4.09,-9.58,877.41,30.77
5213776,-0.03,0.01,1.29,-5.8,4.33,-9.95,877.42,30.78
5213866,-0.02,0.0,1.26,-5.68,4.09,-9.52,877.42,30.75
5213904,-0.02,0.0,1.26,-5.86,3.66,-9.58,877.34,30.76
5213942,-0.02,-0.0,1.24,-5.68,3.72,-9.34,877.35,30.76
5213980,-0.04,-0.0,1.26,-5.68,3.11,-9.22,877.35,30.77
5214018,-0.03,-0.01,1.26,-5.43,2.87,-9.4,877.33,30.78
5214056,-0.02,-0.0,1.24,-5.62,3.11,-9.16,877.34,30.78
5214106,-0.02,0.01,1.24,-5.68,3.11,-9.16,877.28,30.77
5214144,-0.03,0.0,1.25,-5.62,3.05,-9.09,877.31,30.77
5214182,-0.03,-0.0,1.25,-5.74,2.99,-8.97,877.27,30.78
5214221,-0.03,0.01,1.27,-5.74,2.44,-8.91,877.29,30.79
5214259,-0.03,0.0,1.25,-5.55,2.75,-8.73,877.27,30.79
5214297,-0.03,0.0,1.25,-5.74,2.69,-8.61,877.27,30.78
5214335,-0.02,0.0,1.26,-5.8,2.5,-8.42,877.3,30.8
5214373,-0.02,-0.0,1.24,-5.74,2.14,-8.54,877.28,30.8
5214411,-0.03,-0.0,1.24,-5.8,2.44,-8.36,877.22,30.8
5214461,-0.02,0.01,1.23,-5.62,2.14,-8.36,877.18,30.78
5214499,-0.02,0.0,1.24,-5.62,2.38,-8.3,877.24,30.79
5214537,-0.03,-0.0,1.21,-5.62,2.2,-8.3,877.23,30.8
5214575,-0.02,-0.0,1.24,-5.55,2.08,-8.48,877.22,30.79
5214614,-0.02,-0.01,1.2,-5.8,2.56,-8.3,877.23,30.81
5214652,-0.04,-0.0,1.22,-5.74,1.95,-8.18,877.17,30.8
5214690,-0.04,-0.01,1.19,-5.43,2.69,-8.24,877.2,30.8
5214728,-0.04,-0.01,1.17,-5.68,2.26,-8.12,877.21,30.79
5214766,-0.03,-0.0,1.18,-5.74,2.62,-8.24,877.21,30.81
5214804,-0.03,-0.01,1.15,-5.8,2.56,-8.18,877.16,30.81
5214854,-0.04,-0.01,1.16,-5.92,2.2,-8.06,877.12,30.78
5214892,-0.04,-0.02,1.15,-5.86,2.62,-7.87,877.05,30.79
5214931,-0.03,-0.01,1.15,-5.98,2.62,-7.69,877.08,30.79
5214969,-0.03,-0.0,1.19,-6.1,2.44,-7.75,877.1,30.8
5215007,-0.04,-0.01,1.18,-6.04,2.44,-7.57,877.11,30.8
5215045,-0.03,-0.01,1.2,-6.35,2.44,-7.39,877.08,30.79
5215083,-0.04,0.0,1.21,-6.35,2.32,-7.39,877.01,30.8
5215121,-0.03,0.01,1.22,-6.47,2.26,-7.26,877.01,30.8
5215159,-0.03,0.01,1.26,-6.23,2.2,-7.14,876.98,30.79
5215209,-0.03,0.01,1.29,-5.86,2.93,-7.02,877.03,30.8
5215247,-0.02,0.01,1.3,-5.68,3.36,-6.9,876.98,30.8
5215285,-0.02,0.02,1.3,-5.37,3.54,-6.9,877.03,30.79
5215324,-0.02,0.01,1.27,-5.19,3.85,-6.9,876.97,30.79
5215362,-0.02,0.02,1.27,-5.13,4.03,-6.71,876.99,30.79
5215400,-0.02,0.01,1.29,-4.88,4.46,-6.65,877.02,30.81
5215438,-0.01,0.01,1.28,-4.52,3.72,-6.59,876.93,30.8
5215476,-0.02,0.02,1.3,-4.52,3.66,-6.65,876.96,30.8
5215514,-0.01,0.0,1.28,-4.27,3.97,-6.71,876.96,30.8
5215552,0.0,0.01,1.3,-4.39,3.85,-6.84,876.86,30.8
5215602,-0.01,0.01,1.26,-4.33,3.85,-6.65,876.91,30.79
5215640,-0.02,0.0,1.24,-4.27,3.97,-6.96,876.92,30.8
5215678,-0.0,0.01,1.25,-4.03,4.27,-6.9,876.88,30.81
5215717,0.01,0.0,1.25,-4.09,3.91,-7.08,876.87,30.8
5215755,-0.01,0.01,1.22,-4.21,3.36,-6.96,876.88,30.8
5215793,-0.02,0.0,1.22,-4.09,3.97,-6.96,876.89,30.81
5215831,0.0,-0.01,1.21,-4.33,4.03,-7.08,876.85,30.8
5215869,-0.01,-0.0,1.22,-4.39,3.6,-7.2,876.87,30.8
5215907,-0.01,-0.01,1.19,-4.33,4.09,-7.2,876.89,30.8
5215957,-0.0,0.0,1.22,-4.09,3.66,-7.39,876.89,30.78
5215995,-0.0,-0.0,1.18,-4.15,3.85,-7.14,876.8,30.79
5216033,-0.01,0.0,1.17,-4.46,3.05,-7.2,876.81,30.8
5216071,-0.02,-0.0,1.17,-4.64,3.48,-7.32,876.76,30.8
5216109,-0.01,-0.01,1.16,-5.0,3.42,-7.14,876.78,30.8
5216147,-0.01,-0.0,1.18,-5.25,3.42,-7.14,876.75,30.79
5216186,-0.01,-0.01,1.18,-5.25,4.03,-7.39,876.79,30.79
5216224,-0.0,-0.01,1.21,-5.13,3.85,-7.26,876.77,30.78
5216262,-0.01,-0.0,1.21,-5.07,4.03,-7.39,876.75,30.79
5216312,-0.02,-0.0,1.18,-5.0,4.33,-7.51,876.73,30.79
5216350,-0.01,0.0,1.18,-5.07,4.27,-7.51,876.7,30.79
5216388,-0.0,0.0,1.21,-5.25,4.27,-7.51,876.67,30.8
5216426,-0.01,0.0,1.22,-5.43,4.82,-7.57,876.65,30.78
5216464,-0.0,0.02,1.28,-5.25,5.0,-7.63,876.69,30.79
5216502,-0.01,0.02,1.29,-5.25,5.13,-7.75,876.62,30.8
5216540,-0.01,0.0,1.32,-5.25,5.19,-7.63,876.7,30.8
5216578,-0.01,0.0,1.3,-5.19,5.37,-7.69,876.62,30.8
5216616,-0.02,0.02,1.28,-5.07,5.31,-7.75,876.68,30.8
5216655,-0.0,0.01,1.25,-5.07,5.31,-7.57,876.61,30.79
5216730,-0.0,0.0,1.24,-4.94,5.07,-7.51,876.62,30.78
5216768,-0.0,0.01,1.24,-4.82,4.46,-7.57,876.6,30.8
5216807,-0.02,0.01,1.27,-4.94,4.09,-7.57,876.64,30.79
5216896,-0.01,-0.0,1.26,-4.94,3.36,-7.63,876.54,30.77
5216934,-0.0,-0.01,1.22,-4.94,3.3,-7.57,876.59,30.77
5216972,-0.0,0.01,1.24,-4.82,2.87,-7.63,876.55,30.77
5217010,-0.01,0.01,1.2,-4.76,2.99,-7.51,876.59,30.79
5217049,-0.0,-0.01,1.18,-4.76,2.81,-7.51,876.52,30.78
5217087,-0.01,-0.0,1.21,-5.0,3.23,-7.69,876.55,30.79
5217136,-0.01,-0.0,1.21,-5.0,3.42,-7.63,876.52,30.77
5217175,-0.01,0.0,1.23,-5.13,3.54,-7.63,876.45,30.78
5217213,-0.01,-0.0,1.22,-5.13,3.78,-7.81,876.44,30.79
5217251,-0.01,0.0,1.24,-5.19,4.15,-7.75,876.48,30.8
5217289,0.0,-0.0,1.24,-5.13,4.58,-7.75,876.47,30.8
5217327,-0.01,0.01,1.23,-5.43,3.97,-7.81,876.49,30.8
5217365,-0.01,0.01,1.23,-5.43,4.03,-7.75,876.41,30.79
5217403,-0.01,0.0,1.23,-5.68,3.72,-7.75,876.37,30.8
5217441,-0.0,0.0,1.25,-5.74,3.3,-7.57,876.43,30.8
5217479,-0.01,-0.0,1.24,-5.74,3.36,-7.51,876.43,30.81
5217529,-0.01,0.01,1.25,-5.55,3.3,-7.45,876.43,30.79
5217567,-0.01,0.0,1.24,-5.43,3.66,-7.57,876.43,30.81
5217605,-0.01,0.0,1.24,-5.25,3.17,-7.57,876.35,30.8
5217643,-0.0,-0.0,1.22,-5.37,3.23,-7.75,876.31,30.8
5217681,-0.01,0.0,1.22,-4.94,2.81,-7.75,876.38,30.81
5217719,-0.01,0.0,1.23,-5.13,2.75,-7.81,876.39,30.79
5217758,0.0,-0.0,1.18,-5.07,2.38,-7.75,876.32,30.8
5217796,-0.01,-0.0,1.2,-5.13,2.08,-7.81,876.37,30.8
5217834,-0.01,-0.01,1.16,-5.13,1.89,-7.75,876.35,30.8
5217884,-0.01,-0.0,1.17,-5.19,1.34,-7.81,876.32,30.79
5217922,-0.01,-0.0,1.17,-5.19,1.71,-7.81,876.33,30.79
5217960,-0.01,-0.0,1.19,-5.43,1.77,-7.93,876.3,30.79
5217998,-0.01,-0.0,1.21,-5.37,1.77,-8.06,876.31,30.8
5218036,-0.02,-0.0,1.2,-5.25,2.44,-8.18,876.27,30.78
5218074,-0.01,0.0,1.22,-5.49,2.99,-8.24,876.33,30.79
5218113,-0.01,0.0,1.23,-5.37,2.69,-8.18,876.26,30.8
5218151,-0.03,0.01,1.23,-5.31,2.75,-8.18,876.25,30.78
5218189,-0.02,0.01,1.23,-5.49,3.23,-8.18,876.3,30.79
5218239,-0.01,0.01,1.22,-5.49,3.3,-8.24,876.28,30.79
5218277,-0.02,0.01,1.22,-5.19,3.6,-8.12,876.26,30.79
5218315,-0.02,0.0,1.2,-5.31,3.85,-8.24,876.2,30.79
5218353,-0.01,0.0,1.21,-5.25,4.03,-8.18,876.26,30.79
5218391,-0.02,0.0,1.2,-5.13,3.78,-8.0,876.26,30.8
5218429,-0.01,-0.0,1.18,-5.19,4.27,-7.87,876.21,30.79
5218468,-0.01,-0.0,1.15,-5.19,3.78,-7.69,876.22,30.8
5218506,-0.01,0.0,1.18,-5.19,3.23,-7.69,876.18,30.79
5218544,-0.0,-0.01,1.15,-5.31,2.87,-7.63,876.18,30.8
5218582,-0.01,0.01,1.17,-5.55,2.62,-7.51,876.18,30.81
5218632,0.0,0.0,1.22,-5.31,2.62,-7.57,876.08,30.78
5218670,-0.0,-0.0,1.23,-5.37,2.26,-7.63,876.14,30.8
5218708,-0.01,0.01,1.24,-5.13,2.38,-7.39,876.14,30.78
5218746,-0.01,0.0,1.22,-5.25,2.93,-7.45,876.13,30.8
5218785,0.01,-0.0,1.21,-5.07,3.48,-7.69,876.15,30.8
5218823,-0.0,-0.0,1.18,-5.0,2.99,-7.81,876.13,30.79
5218861,0.0,-0.01,1.15,-4.76,3.11,-7.75,876.13,30.8
5218899,0.01,-0.01,1.14,-4.7,3.42,-7.93,876.19,30.8
5218937,-0.01,-0.01,1.11,-4.52,3.6,-7.93,876.11,30.8
5218987,-0.01,-0.01,1.12,-4.33,3.72,-7.75,876.1,30.79
5219025,-0.01,-0.03,1.1,-4.21,3.72,-8.0,876.11,30.81
5219063,-0.01,-0.02,1.1,-4.58,4.15,-8.3,876.1,30.8
5219101,-0.0,-0.01,1.1,-4.64,4.15,-8.24,876.08,30.8
5219139,-0.0,-0.01,1.11,-4.64,4.76,-8.18,876.13,30.81
5219178,-0.0,-0.01,1.12,-4.88,4.64,-8.48,876.04,30.8
5219216,-0.0,-0.01,1.16,-4.82,4.76,-8.3,876.07,30.82
5219254,-0.01,-0.01,1.19,-5.13,5.0,-8.18,876.07,30.82
5219292,-0.02,-0.0,1.22,-5.13,4.64,-8.18,876.02,30.82
5219330,-0.01,0.01,1.23,-5.31,5.07,-8.36,876.02,30.82
5219380,-0.0,0.01,1.29,-5.19,4.94,-8.3,875.97,30.8
5219418,-0.0,0.01,1.27,-5.37,5.8,-8.3,876.03,30.81
5219456,-0.01,0.02,1.29,-5.07,6.1,-8.36,876.06,30.83
5219494,-0.01,0.01,1.31,-5.07,6.65,-8.48,875.97,30.8
5219532,-0.0,0.01,1.32,-4.82,6.59,-8.36,875.99,30.82
5219570,-0.01,0.02,1.31,-4.82,6.71,-8.42,875.97,30.81
5219609,-0.01,0.01,1.3,-4.64,6.77,-8.48,875.97,30.82
5219647,0.0,0.02,1.29,-4.76,6.35,-8.42,875.92,30.82
5219685,-0.01,0.01,1.29,-4.88,5.49,-8.3,875.94,30.82
5219761,-0.01,0.01,1.3,-4.58,5.68,-8.12,875.91,30.79
5219799,-0.01,0.01,1.3,-4.64,5.0,-8.12,875.88,30.81
5219837,-0.02,0.02,1.28,-4.33,4.58,-8.24,875.92,30.82
5219926,-0.01,0.0,1.25,-4.33,4.15,-7.93,875.94,30.79
5219965,-0.03,0.0,1.24,-4.33,4.33,-7.87,875.9,30.8
5220003,-0.02,-0.0,1.22,-4.52,4.15,-7.57,875.92,30.79
5220041,-0.03,0.0,1.23,-4.7,3.54,-7.51,875.93,30.8
5220079,-0.02,-0.0,1.22,-4.76,3.91,-7.45,875.99,30.81
5220117,-0.01,-0.0,1.22,-4.82,3.85,-7.39,875.92,30.79
5220155,-0.02,0.0,1.24,-4.88,4.03,-7.51,875.92,30.81
5220205,-0.02,-0.0,1.2,-5.07,4.09,-7.2,875.9,30.8
5220243,-0.02,0.0,1.22,-5.0,4.52,-7.26,875.86,30.81
5220281,-0.03,-0.0,1.2,-5.07,5.13,-7.2,875.88,30.8
5220320,-0.02,-0.0,1.2,-5.0,5.13,-7.32,875.85,30.8
5220358,-0.02,-0.0,1.2,-5.13,5.98,-7.26,875.89,30.81
5220396,-0.02,-0.01,1.21,-5.07,5.74,-7.26,875.82,30.8
5220434,-0.01,-0.0,1.21,-5.25,6.16,-7.32,875.85,30.82
5220472,-0.02,-0.0,1.21,-5.43,6.16,-7.39,875.88,30.82
5220510,-0.03,-0.0,1.2,-5.68,6.35,-7.08,875.88,30.8
5220560,-0.01,-0.01,1.18,-5.92,6.71,-7.08,875.84,30.8
5220598,-0.02,-0.0,1.2,-6.1,5.55,-6.96,875.77,30.81
5220636,-0.03,-0.01,1.19,-5.92,5.86,-6.96,875.79,30.8
5220675,-0.01,-0.01,1.19,-5.86,5.92,-6.71,875.76,30.8
5220713,-0.01,0.01,1.21,-5.8,5.74,-6.96,875.76,30.81
5220751,-0.01,0.0,1.22,-5.74,4.27,-6.84,875.74,30.8
5220789,-0.02,-0.01,1.21,-5.62,4.82,-6.9,875.74,30.8
5220827,0.0,-0.01,1.22,-5.49,4.64,-6.84,875.78,30.8
5220865,-0.01,0.01,1.21,-5.49,4.21,-6.84,875.71,30.81
5220915,-0.02,-0.0,1.2,-5.49,4.46,-6.96,875.75,30.8
5220953,-0.01,0.01,1.22,-5.19,5.07,-7.2,875.72,30.8
5220991,-0.01,0.0,1.24,-5.25,5.62,-7.02,875.68,30.8
5221030,-0.0,-0.0,1.27,-5.37,5.98,-7.14,875.74,30.82
5221068,-0.02,0.01,1.27,-5.37,5.55,-7.14,875.71,30.81
5221106,-0.01,0.01,1.26,-5.31,6.29,-7.26,875.65,30.8
5221144,0.0,0.01,1.24,-5.43,6.65,-7.32,875.7,30.82
5221182,-0.0,0.01,1.27,-5.43,6.71,-7.45,875.7,30.8
5221220,-0.0,0.01,1.26,-5.07,6.1,-7.39,875.67,30.8
5221259,-0.01,0.01,1.27,-5.19,5.86,-7.32,875.63,30.8
5221308,-0.02,0.02,1.25,-5.49,5.37,-7.2,875.61,30.79
5221347,-0.0,0.02,1.28,-5.55,5.62,-7.2,875.63,30.81
5221385,-0.01,0.01,1.28,-5.49,4.82,-7.14,875.66,30.81
5221423,-0.01,0.01,1.28,-5.25,3.78,-7.08,875.65,30.81
5221461,-0.02,0.0,1.24,-5.19,3.66,-7.2,875.64,30.82
5221499,-0.01,0.02,1.25,-5.13,3.23,-7.08,875.61,30.82
5221537,-0.0,0.0,1.22,-5.0,3.05,-7.02,875.58,30.81
5221576,-0.01,0.01,1.23,-5.13,2.14,-7.02,875.64,30.82
5221614,-0.02,0.01,1.24,-5.0,2.26,-6.77,875.63,30.82
5221664,-0.0,0.01,1.21,-5.07,2.08,-6.9,875.71,30.82
5221702,-0.01,0.02,1.24,-4.82,1.4,-6.96,875.61,30.83
5221740,-0.02,0.01,1.26,-4.52,2.26,-6.9,875.65,30.82
5221778,0.0,-0.01,1.19,-4.82,0.98,-7.02,875.7,30.84
5221816,-0.01,0.01,1.28,-4.7,0.24,-6.77,875.63,30.82
5221854,-0.02,-0.01,1.12,-4.58,0.98,-6.77,875.67,30.83
5221893,-0.0,0.03,1.18,-4.64,-0.24,-6.9,875.65,30.84
5221931,-0.0,0.01,1.18,-4.27,0.18,-6.9,875.58,30.83
5221969,-0.01,-0.02,1.17,-4.39,-0.43,-6.59,875.65,30.84
5222007,-0.0,-0.01,1.22,-4.52,0.18,-6.77,875.59,30.84
5222057,0.0,0.01,1.2,-5.07,0.24,-6.9,875.61,30.82
5222095,0.01,0.0,1.19,-5.07,-15.62,-6.96,875.61,30.82
5222133,0.0,-0.01,1.21,-5.13,0.67,-7.26,875.61,30.83
5222171,0.01,-0.01,1.17,-5.19,0.31,-7.32,875.63,30.83
5222209,0.01,0.01,1.18,-5.25,0.24,-7.32,875.55,30.82
5222247,0.01,0.0,1.14,-5.19,0.37,-7.63,875.63,30.82
5222286,-0.01,-0.0,1.16,-5.31,0.85,-7.87,875.58,30.82
5222324,0.01,-0.01,1.17,-5.19,1.4,-8.12,875.56,30.82
5222362,0.01,-0.0,1.18,-5.25,1.34,-8.18,875.6,30.84
5222412,-0.0,0.01,1.16,-5.37,1.4,-8.42,875.64,30.81
5222450,0.01,0.01,1.18,-5.0,1.89,-8.54,875.6,30.82
5222488,0.0,-0.01,1.17,-5.19,1.46,-8.67,875.6,30.82
5222526,-0.02,-0.0,1.17,-5.0,1.22,-8.61,875.63,30.83
5222564,-0.01,0.0,1.15,-4.94,1.34,-8.61,875.6,30.84
5222602,-0.0,0.01,1.14,-4.94,1.34,-8.73,875.63,30.83
5222641,0.0,0.01,1.14,-4.94,1.59,-9.16,875.6,30.84
5222679,-0.01,-0.01,1.15,-5.0,1.95,-8.97,875.57,30.84
5222717,-0.01,-0.01,1.13,-4.82,3.05,-9.28,875.64,30.83
5222755,-0.01,0.0,1.13,-4.7,3.3,-9.28,875.62,30.83
5222905,-0.0,0.0,1.17,-4.46,4.27,-9.64,875.58,30.77
5222944,-0.02,0.0,1.14,-4.27,4.21,-9.58,875.62,30.8
5222982,-0.01,0.0,1.17,-4.15,4.7,-9.58,875.64,30.8
5223071,-0.02,-0.0,1.14,-3.97,4.64,-9.52,875.6,30.76
5223109,-0.02,0.0,1.13,-3.97,4.52,-9.52,875.58,30.78
5223148,-0.01,-0.0,1.12,-4.03,4.76,-9.52,875.63,30.8
5223186,-0.02,0.0,1.12,-4.27,5.0,-9.4,875.67,30.8
5223224,-0.02,-0.0,1.13,-4.46,5.0,-9.34,875.59,30.8
5223262,-0.02,-0.01,1.15,-4.58,5.13,-9.4,875.59,30.82
5223312,-0.01,0.0,1.15,-4.7,5.37,-9.46,875.61,30.79
5223350,-0.01,0.01,1.18,-4.64,4.82,-9.34,875.59,30.8
5223388,-0.01,0.0,1.19,-4.88,5.0,-9.22,875.58,30.82
5223426,-0.02,0.01,1.2,-4.82,4.94,-9.4,875.58,30.82
5223465,-0.03,0.01,1.22,-4.76,5.31,-9.16,875.62,30.82
5223503,-0.02,0.0,1.2,-4.94,4.94,-9.16,875.6,30.82
5223541,-0.02,0.01,1.22,-5.0,4.88,-9.16,875.57,30.81
5223579,-0.02,0.0,1.21,-4.94,5.0,-9.16,875.61,30.82
5223617,-0.0,-0.0,1.21,-4.88,4.7,-9.09,875.57,30.82
5223667,-0.02,0.0,1.22,-4.88,4.82,-8.91,875.58,30.8
5223705,-0.03,0.0,1.2,-4.94,4.7,-8.67,875.59,30.81
5223743,-0.02,0.0,1.22,-4.88,4.58,-8.85,875.59,30.82
5223781,-0.01,0.01,1.23,-5.0,4.76,-8.79,875.65,30.82
5223819,-0.01,0.01,1.22,-5.13,4.46,-8.67,875.6,30.81
5223858,-0.01,0.01,1.24,-5.07,4.64,-8.67,875.62,30.84
5223896,-0.02,0.01,1.25,-5.43,5.13,-8.79,875.62,30.83
5223934,-0.02,0.01,1.28,-5.43,5.25,-8.67,875.59,30.81
5223972,-0.02,0.01,1.29,-5.43,5.0,-8.73,875.59,30.82
5224010,-0.03,0.0,1.26,-5.55,5.31,-8.54,875.65,30.81
5224060,-0.01,0.02,1.29,-5.49,5.31,-8.36,875.61,30.8
5224098,-0.01,0.0,1.27,-5.55,4.88,-8.24,875.62,30.81
5224136,-0.02,0.0,1.25,-5.8,4.52,-8.12,875.64,30.8
5224174,-0.02,0.0,1.23,-5.74,5.0,-8.24,875.59,30.8
5224212,-0.02,-0.01,1.25,-5.74,4.7,-8.0,875.59,30.82
5224251,-0.01,-0.01,1.25,-5.98,4.76,-7.93,875.61,30.82
5224289,-0.02,0.01,1.26,-5.8,4.33,-7.87,875.57,30.82
5224327,-0.02,0.0,1.29,-5.8,3.48,-7.75,875.59,30.81
5224365,-0.03,-0.0,1.3,-5.86,3.36,-7.57,875.55,30.82
5224415,-0.02,0.03,1.41,-6.04,3.78,-7.32,875.56,30.82
5224453,-0.02,0.03,1.44,-6.23,3.66,-7.45,875.54,30.82
5224491,-0.03,0.04,1.49,-6.35,4.03,-7.2,875.58,30.82
5224529,-0.01,0.03,1.51,-6.47,4.03,-7.08,875.56,30.82
5224567,-0.0,0.03,1.52,-6.47,4.94,-6.96,875.58,30.83
5224605,-0.03,0.05,1.51,-6.29,4.21,-6.65,875.63,30.84
5224644,-0.02,0.04,1.52,-6.04,4.39,-6.59,875.57,30.82
5224682,-0.0,0.03,1.51,-5.86,4.64,-6.77,875.57,30.85
5224720,-0.01,0.02,1.5,-5.68,4.58,-6.59,875.6,30.84
5224758,-0.0,0.02,1.51,-5.55,5.25,-6.47,875.63,30.84
5224808,-0.01,0.03,1.48,-5.55,4.64,-6.47,875.54,30.83
5224846,-0.0,0.02,1.48,-5.43,4.52,-6.65,875.56,30.84
5224884,-0.02,0.0,1.42,-5.74,4.15,-6.41,875.58,30.83
5224922,-0.0,0.01,1.45,-5.68,4.58,-6.47,875.55,30.83
5224961,0.0,-0.0,1.38,-5.68,4.46,-6.47,875.57,30.85
5224999,-0.01,0.01,1.37,-5.86,3.42,-6.41,875.47,30.83
5225037,-0.02,-0.01,1.35,-5.74,3.72,-6.47,875.59,30.85
5225075,-0.0,-0.02,1.29,-5.74,4.03,-6.47,875.6,30.84
5225113,0.0,-0.01,1.32,-6.16,3.3,-6.53,875.53,30.84
5225163,-0.02,-0.01,1.28,-5.86,3.72,-6.53,875.52,30.83
5225201,-0.01,-0.02,1.27,-6.16,4.27,-6.35,875.56,30.85
5225239,0.01,-0.03,1.26,-6.41,3.97,-6.53,875.61,30.86
5225277,-0.01,-0.02,1.24,-6.59,3.6,-6.59,875.58,30.84
5225315,-0.0,-0.02,1.26,-6.71,4.27,-6.53,875.56,30.86
5225354,0.0,-0.02,1.24,-6.71,3.66,-6.59,875.55,30.86
5225392,0.0,-0.02,1.26,-7.14,3.3,-6.47,875.57,30.86
5225430,-0.01,-0.02,1.26,-7.14,2.87,-6.71,875.52,30.85
5225468,-0.0,-0.01,1.29,-7.26,3.23,-6.77,875.53,30.86
5225506,-0.01,-0.02,1.3,-7.45,3.05,-6.65,875.51,30.85
5225556,-0.0,-0.01,1.33,-7.51,3.3,-6.77,875.51,30.84
5225594,-0.0,0.0,1.35,-7.75,3.3,-6.9,875.48,30.85
5225632,0.02,-0.0,1.39,-7.75,3.3,-6.71,875.51,30.86
5225670,0.01,-0.0,1.37,-7.87,3.11,-6.9,875.42,30.85
5225709,0.0,0.01,1.4,-7.75,3.17,-7.02,875.51,30.86
5225747,0.0,0.01,1.41,-7.45,3.17,-6.96,875.48,30.86
5225785,-0.01,0.01,1.41,-7.26,2.99,-7.08,875.4,30.86
5225823,0.0,0.01,1.42,-7.2,3.42,-7.02,875.44,30.83
5225861,-0.01,0.02,1.42,-6.96,3.6,-7.02,875.48,30.84
5225937,-0.01,0.01,1.41,-6.65,4.15,-7.14,875.42,30.81
5225975,-0.0,0.01,1.43,-6.41,3.91,-7.14,875.45,30.83
5226013,0.0,0.0,1.39,-6.23,3.78,-7.14,875.44,30.82
5226103,0.0,0.0,1.37,-5.98,3.91,-7.2,875.4,30.8
5226141,-0.0,0.0,1.39,-5.98,3.36,-7.14,875.44,30.81
5226179,-0.0,-0.0,1.36,-5.8,3.85,-7.32,875.43,30.81
5226217,-0.01,0.0,1.36,-5.68,3.91,-7.39,875.42,30.82
5226255,0.0,-0.0,1.34,-5.74,4.09,-7.51,875.4,30.82
5226293,0.01,-0.01,1.32,-5.62,3.72,-7.51,875.35,30.83
5226331,-0.02,-0.0,1.32,-5.55,3.85,-7.51,875.33,30.83
5226381,0.01,-0.01,1.3,-5.55,4.64,-7.26,875.37,30.82
5226419,-0.0,-0.0,1.29,-5.49,3.6,-7.57,875.39,30.84
5226457,-0.01,-0.01,1.29,-5.62,3.36,-7.63,875.47,30.84
5226496,0.0,-0.01,1.3,-5.68,3.54,-7.63,875.36,30.83
5226534,0.01,0.0,1.32,-5.43,2.87,-7.57,875.33,30.84
5226572,-0.0,0.0,1.31,-5.74,2.32,-7.32,875.33,30.83
5226610,-0.0,-0.0,1.29,-5.74,2.5,-7.39,875.38,30.83
5226648,-0.01,-0.01,1.3,-5.92,2.81,-7.45,875.4,30.84
5226686,-0.0,-0.02,1.28,-5.92,2.32,-7.51,875.39,30.84
5226736,-0.01,-0.01,1.24,-5.98,2.08,-7.57,875.33,30.82
5226774,-0.0,-0.02,1.2,-5.86,2.69,-7.57,875.36,30.84
5226812,-0.0,-0.03,1.17,-5.98,2.87,-7.69,875.37,30.83
5226851,-0.01,-0.04,1.15,-5.92,2.99,-7.81,875.27,30.83
5226889,0.0,-0.03,1.14,-6.1,3.3,-7.75,875.35,30.84
5226927,0.01,-0.02,1.15,-6.04,3.91,-8.0,875.29,30.83
5226965,0.01,-0.02,1.16,-6.23,3.3,-8.12,875.3,30.83
5227003,0.01,-0.03,1.21,-6.23,2.62,-8.0,875.26,30.84
5227041,-0.01,-0.03,1.2,-6.65,2.32,-8.06,875.28,30.84
5227091,-0.0,-0.01,1.29,-6.59,2.44,-8.06,875.23,30.82
5227129,0.0,-0.01,1.28,-6.47,2.87,-8.24,875.25,30.84
5227168,0.01,0.0,1.35,-6.41,2.99,-8.42,875.27,30.84
5227206,0.0,-0.01,1.34,-6.41,4.15,-8.67,875.26,30.85
5227244,-0.01,-0.01,1.38,-6.29,4.21,-8.85,875.26,30.85
5227282,0.0,-0.01,1.37,-6.1,4.58,-8.79,875.26,30.84
5227320,-0.0,-0.0,1.35,-6.23,3.72,-8.85,875.23,30.84
5227358,-0.01,-0.0,1.33,-6.1,4.64,-8.73,875.26,30.86
5227396,-0.0,-0.01,1.29,-6.16,4.39,-8.79,875.25,30.84
5227435,-0.0,-0.01,1.31,-6.16,4.15,-8.67,875.25,30.85
5227484,-0.01,-0.01,1.26,-6.16,3.78,-8.85,875.24,30.86
5227522,-0.0,-0.02,1.28,-6.1,3.97,-8.73,875.23,30.85
5227561,-0.0,-0.02,1.26,-6.29,3.72,-8.48,875.18,30.86
5227599,-0.01,-0.01,1.26,-6.35,3.05,-8.67,875.19,30.84
5227637,-0.01,-0.02,1.24,-6.29,3.3,-8.61,875.21,30.86
5227675,-0.0,-0.01,1.26,-6.23,3.05,-8.61,875.13,30.85
5227713,0.0,-0.02,1.25,-6.23,3.05,-8.67,875.17,30.86
5227751,-0.01,-0.02,1.24,-6.16,3.05,-8.48,875.19,30.87
5227789,-0.01,-0.02,1.24,-6.23,3.42,-8.67,875.16,30.87
5227839,-0.01,-0.01,1.25,-6.16,2.75,-8.61,875.18,30.85
5227877,-0.01,-0.01,1.24,-6.23,3.17,-8.61,875.15,30.87
5227915,-0.01,-0.01,1.25,-6.16,3.3,-8.67,875.08,30.86
5227954,-0.01,-0.02,1.25,-5.98,3.3,-8.73,875.14,30.87
5227992,-0.01,-0.01,1.23,-5.74,3.05,-8.61,875.15,30.86
5228030,-0.01,-0.01,1.26,-5.55,3.78,-8.85,875.11,30.86
5228068,-0.0,-0.02,1.22,-5.49,3.85,-8.73,875.05,30.86
5228106,-0.02,-0.0,1.25,-5.13,4.09,-8.48,875.1,30.86
5228144,-0.01,-0.02,1.23,-4.82,4.15,-8.61,875.03,30.86
5228194,-0.02,-0.01,1.22,-4.58,3.66,-8.3,875.08,30.84
5228232,-0.02,-0.02,1.22,-4.39,3.91,-8.24,875.1,30.85
5228270,-0.01,-0.02,1.22,-4.39,3.54,-8.12,875.09,30.85
5228309,-0.02,-0.01,1.22,-4.33,3.42,-8.12,875.05,30.87
5228347,-0.01,-0.01,1.21,-4.46,3.42,-8.0,875.01,30.86
5228385,-0.01,-0.01,1.22,-4.27,3.3,-7.81,875.03,30.85
5228423,-0.02,-0.01,1.23,-4.46,2.99,-7.75,875.01,30.87
5228461,-0.01,-0.01,1.22,-4.58,3.48,-7.69,874.98,30.86
5228499,-0.01,0.0,1.27,-4.21,3.78,-7.69,874.96,30.86
5228537,-0.02,-0.0,1.26,-4.27,5.49,-7.75,875.0,30.86
5228587,-0.03,0.0,1.3,-4.03,6.35,-7.87,874.98,30.85
5228625,-0.01,-0.01,1.26,-3.97,6.9,-7.81,874.96,30.84
5228664,-0.01,-0.01,1.28,-4.03,6.59,-7.75,874.94,30.85
5228702,-0.01,-0.01,1.24,-3.91,7.08,-7.75,874.95,30.86
5228740,-0.01,-0.0,1.21,-4.21,6.47,-7.63,874.91,30.84
5228778,-0.01,-0.01,1.22,-4.15,7.51,-7.63,874.99,30.86
5228816,-0.01,-0.02,1.2,-4.33,7.08,-7.63,874.94,30.86
5228854,-0.01,-0.02,1.21,-4.27,7.32,-7.75,874.93,30.84
5228893,-0.01,-0.02,1.18,-4.39,7.45,-7.75,874.89,30.85
5228968,-0.0,-0.0,1.21,-4.94,6.35,-7.63,874.88,30.82
5229007,-0.01,-0.01,1.23,-5.0,6.41,-7.51,874.88,30.83
5229045,0.0,-0.02,1.25,-5.25,6.41,-7.39,874.96,30.84
5229134,-0.02,0.0,1.22,-5.37,5.49,-7.32,874.88,30.81
5229172,-0.0,0.0,1.24,-5.49,5.31,-7.45,874.82,30.81
5229211,-0.0,-0.01,1.25,-5.74,5.43,-7.39,874.87,30.83
5229249,-0.01,-0.01,1.23,-5.86,5.0,-7.39,874.82,30.83
5229287,-0.0,-0.0,1.32,-5.8,5.43,-7.39,874.77,30.83
5229325,-0.01,-0.01,1.28,-5.68,6.1,-7.75,874.81,30.82
5229363,-0.02,0.0,1.32,-5.74,4.76,-7.51,874.8,30.82
5229413,-0.02,-0.02,1.23,-5.62,5.19,-7.39,874.81,30.81
5229451,-0.01,-0.01,1.25,-5.86,4.46,-7.32,874.8,30.82
5229489,-0.0,-0.01,1.23,-5.74,4.64,-7.39,874.73,30.83
5229527,-0.01,-0.01,1.21,-5.74,3.72,-7.32,874.75,30.83
5229565,-0.01,-0.02,1.22,-5.8,3.48,-7.26,874.8,30.82
5229604,-0.02,-0.02,1.22,-5.86,2.75,-7.2,874.71,30.83
5229642,-0.01,-0.01,1.25,-5.86,2.87,-7.08,874.7,30.81
5229680,-0.01,-0.01,1.21,-5.86,2.14,-7.2,874.74,30.82
5229718,-0.01,-0.01,1.24,-5.98,2.38,-7.2,874.77,30.82
5229768,0.0,-0.01,1.21,-5.98,2.26,-7.14,874.7,30.8
5229806,-0.0,-0.0,1.25,-5.86,1.83,-7.2,874.76,30.82
5229844,-0.01,-0.01,1.22,-5.92,1.83,-7.39,874.68,30.82
5229882,-0.01,-0.01,1.26,-5.8,1.71,-7.2,874.7,30.83
5229920,-0.0,-0.01,1.25,-5.92,1.34,-7.08,874.7,30.83
5229959,-0.01,-0.01,1.25,-5.8,1.16,-7.08,874.7,30.82
5229997,-0.02,-0.01,1.22,-5.68,1.65,-7.32,874.68,30.83
5230035,-0.02,-0.01,1.21,-5.62,2.38,-7.2,874.65,30.83
5230073,0.0,-0.01,1.2,-5.8,2.2,-7.26,874.64,30.82
5230123,-0.02,-0.01,1.21,-5.62,2.93,-7.39,874.63,30.81
5230161,-0.02,-0.02,1.21,-5.62,3.48,-7.39,874.64,30.83
5230199,-0.0,-0.01,1.22,-5.74,4.03,-7.51,874.66,30.82
5230237,-0.01,-0.0,1.23,-5.49,4.27,-7.75,874.63,30.82
5230275,-0.02,-0.01,1.23,-5.31,4.82,-7.51,874.68,30.83
5230314,-0.0,-0.01,1.26,-5.0,5.74,-7.69,874.61,30.83
5230352,-0.02,-0.0,1.26,-4.82,5.86,-7.93,874.59,30.83
5230390,-0.01,-0.01,1.25,-4.94,5.37,-7.57,874.53,30.83
5230428,-0.01,-0.01,1.25,-5.13,5.37,-7.81,874.58,30.84
5230478,-0.02,0.0,1.26,-5.19,5.68,-7.63,874.56,30.82
5230516,-0.0,-0.01,1.27,-5.31,5.37,-7.45,874.66,30.84
5230554,-0.01,-0.01,1.25,-4.94,5.68,-7.45,874.58,30.83
5230592,-0.02,-0.01,1.24,-5.13,6.1,-7.57,874.57,30.84
5230631,-0.01,0.0,1.24,-4.94,5.37,-7.26,874.53,30.84
5230669,-0.01,0.0,1.27,-5.0,4.88,-7.08,874.52,30.85
5230707,-0.02,-0.01,1.26,-4.76,4.52,-7.32,874.54,30.85
5230745,-0.01,0.0,1.29,-4.82,4.82,-7.14,874.55,30.84
5230783,-0.0,-0.01,1.29,-4.88,5.0,-7.08,874.56,30.84
5230821,-0.02,-0.0,1.26,-4.88,4.64,-7.08,874.53,30.85
5230871,-0.02,-0.0,1.24,-4.7,5.13,-7.02,874.59,30.84
5230909,-0.01,-0.02,1.21,-4.46,4.7,-6.96,874.57,30.83
5230948,0.0,-0.01,1.22,-4.88,4.33,-7.02,874.49,30.84
5230986,-0.01,-0.01,1.18,-4.94,4.33,-6.9,874.55,30.86
5231024,-0.01,-0.01,1.23,-5.13,4.21,-6.9,874.55,30.85
5231062,-0.0,-0.01,1.23,-5.19,4.03,-6.9,874.51,30.84
5231100,-0.02,-0.01,1.25,-5.43,3.54,-6.9,874.52,30.84
5231138,-0.01,-0.01,1.27,-5.31,3.6,-6.77,874.5,30.84
5231176,-0.0,-0.01,1.26,-5.19,3.85,-6.9,874.5,30.84
5231226,-0.01,-0.0,1.28,-5.25,3.54,-6.9,874.52,30.82
5231264,-0.02,-0.01,1.26,-5.19,3.17,-6.9,874.47,30.84
5231302,-0.01,0.0,1.29,-5.13,3.3,-6.96,874.46,30.84
5231341,-0.0,-0.0,1.29,-5.25,3.78,-6.96,874.49,30.84
5231379,-0.0,-0.01,1.26,-5.31,3.23,-6.96,874.49,30.84
5231417,-0.02,-0.01,1.24,-5.43,3.54,-6.77,874.49,30.85
5231455,0.0,-0.02,1.26,-5.37,3.42,-6.84,874.5,30.85
5231493,-0.01,-0.01,1.25,-5.43,3.3,-6.9,874.45,30.82
5231531,-0.01,-0.0,1.25,-5.19,3.05,-6.96,874.47,30.84
5231569,-0.0,-0.01,1.27,-5.13,3.42,-7.02,874.43,30.84
5231619,-0.01,-0.01,1.27,-5.55,2.81,-6.71,874.44,30.82
5231657,-0.0,-0.01,1.31,-5.62,2.99,-6.71,874.38,30.82
5231696,-0.0,-0.01,1.31,-5.8,3.17,-6.96,874.37,30.83
5231734,0.0,0.01,1.31,-5.86,2.81,-6.84,874.41,30.83
5231772,-0.01,-0.0,1.29,-5.62,3.23,-6.77,874.42,30.84
5231810,0.0,-0.0,1.29,-5.86,3.11,-6.96,874.33,30.83
5231848,-0.0,0.01,1.32,-5.92,3.6,-6.96,874.35,30.84
5231886,-0.01,0.01,1.33,-5.74,3.54,-7.08,874.39,30.85
5231924,0.0,-0.0,1.35,-5.74,3.91,-6.96,874.34,30.83
5232000,-0.01,0.01,1.37,-5.19,4.21,-6.96,874.34,30.81
5232038,0.02,-0.0,1.34,-5.07,4.52,-7.14,874.38,30.83
5232076,-0.0,0.01,1.32,-5.0,4.58,-7.26,874.35,30.82
5232165,0.01,-0.01,1.29,-4.52,5.55,-7.63,874.28,30.79
5232204,0.01,-0.0,1.32,-4.52,5.0,-7.63,874.29,30.8
5232242,-0.0,-0.01,1.29,-4.39,5.07,-7.51,874.31,30.82
5232280,0.0,-0.01,1.27,-4.46,5.19,-7.51,874.35,30.81
5232318,0.02,-0.01,1.28,-4.64,4.7,-7.69,874.31,30.82
5232356,0.0,-0.01,1.23,-4.64,4.58,-7.75,874.33,30.83
5232406,-0.0,-0.01,1.22,-4.7,4.27,-7.63,874.3,30.82
5232444,0.01,-0.02,1.2,-4.82,4.46,-7.81,874.31,30.82
5232482,0.01,-0.02,1.21,-4.82,3.85,-7.81,874.3,30.82
5232520,0.0,-0.02,1.2,-4.94,4.09,-7.81,874.32,30.81
5232559,0.01,-0.02,1.18,-4.88,4.52,-7.87,874.32,30.82
5232597,-0.0,-0.01,1.21,-5.13,3.78,-7.69,874.29,30.83
5232635,-0.0,-0.02,1.19,-5.07,3.85,-7.81,874.28,30.83
5232673,0.0,-0.02,1.18,-5.31,3.42,-7.81,874.28,30.84
5232711,0.01,-0.02,1.21,-5.19,3.6,-8.06,874.23,30.83
5232749,0.0,-0.01,1.21,-5.31,3.23,-7.93,874.24,30.83
5232799,-0.01,-0.02,1.2,-5.43,3.6,-8.06,874.31,30.82
5232837,0.0,-0.02,1.2,-5.49,3.6,-8.18,874.25,30.83
5232875,0.01,-0.02,1.22,-5.62,3.85,-8.18,874.2,30.81
5232913,0.01,-0.02,1.25,-5.55,4.15,-8.3,874.24,30.82
5232951,0.01,-0.02,1.21,-5.74,4.15,-8.3,874.23,30.84
5232990,-0.01,-0.02,1.19,-5.8,4.33,-8.3,874.24,30.83
5233028,0.01,-0.02,1.18,-5.74,4.64,-8.48,874.24,30.83
5233066,0.01,-0.02,1.19,-5.92,5.0,-8.79,874.18,30.83
5233104,0.01,-0.02,1.2,-5.92,4.94,-8.73,874.22,30.84
5233154,0.01,-0.02,1.21,-6.16,4.88,-8.73,874.2,30.82
5233192,0.02,-0.01,1.24,-6.29,4.21,-8.85,874.21,30.84
5233230,0.0,0.0,1.26,-6.71,3.66,-8.61,874.19,30.84
5233268,0.01,-0.0,1.26,-6.71,3.11,-8.67,874.2,30.85
5233306,0.01,-0.01,1.27,-6.71,2.14,-8.73,874.21,30.84
5233344,0.01,-0.0,1.29,-7.08,2.14,-8.67,874.22,30.84
5233383,0.01,-0.01,1.28,-6.84,1.59,-8.54,874.22,30.84
5233421,0.01,-0.0,1.29,-6.77,1.4,-8.67,874.19,30.84
5233459,0.0,-0.0,1.28,-6.77,1.34,-8.61,874.16,30.83
5233497,-0.01,-0.01,1.27,-6.47,1.95,-8.79,874.18,30.84
5233547,-0.0,0.0,1.29,-6.59,2.2,-8.91,874.2,30.84
5233585,-0.01,0.01,1.32,-6.23,2.81,-8.85,874.2,30.85
5233623,0.0,-0.01,1.31,-6.23,3.54,-9.09,874.24,30.85
5233661,0.01,0.01,1.36,-6.04,4.03,-9.46,874.16,30.85
5233699,0.01,-0.0,1.36,-5.74,3.78,-9.4,874.14,30.85
5233737,-0.01,0.0,1.34,-5.98,3.6,-9.28,874.17,30.83
5233775,-0.01,0.0,1.34,-5.86,4.15,-9.28,874.17,30.85
5233814,-0.01,-0.01,1.29,-5.86,4.46,-9.34,874.18,30.83
5233852,0.01,-0.0,1.31,-5.92,3.91,-9.28,874.11,30.84
5233901,0.0,-0.01,1.28,-5.74,4.21,-9.34,874.12,30.82
5233940,-0.0,-0.01,1.26,-5.86,4.15,-9.22,874.22,30.84
5233978,-0.01,-0.01,1.27,-5.8,3.97,-9.09,874.12,30.84
5234016,0.0,-0.01,1.27,-5.74,4.09,-9.22,874.14,30.84
5234054,0.0,-0.01,1.26,-5.8,3.91,-9.16,874.13,30.83
5234092,-0.0,-0.01,1.27,-6.04,3.91,-9.03,874.13,30.83
5234130,0.01,-0.01,1.27,-5.98,3.23,-9.03,874.11,30.84
5234168,-0.0,-0.01,1.3,-5.98,2.75,-8.97,874.17,30.84
5234206,-0.0,-0.01,1.26,-6.1,1.95,-8.85,874.12,30.83
5234244,-0.01,-0.01,1.25,-5.92,2.26,-8.91,874.19,30.84
5234294,0.0,-0.02,1.24,-5.8,1.71,-8.85,874.21,30.83
5234332,-0.0,-0.02,1.22,-5.8,1.28,-8.67,874.19,30.82
5234370,-0.01,-0.02,1.16,-5.74,0.49,-8.73,874.2,30.84
5234409,-0.01,-0.03,1.19,-5.98,0.92,-8.54,874.13,30.84
5234447,0.0,-0.02,1.21,-6.23,0.55,-8.54,874.12,30.82
5234485,-0.01,-0.01,1.25,-6.23,0.31,-8.48,874.09,30.84
5234523,-0.01,-0.02,1.22,-6.47,0.73,-8.48,874.12,30.83
5234561,0.0,-0.0,1.29,-6.96,0.61,-8.42,874.1,30.84
5234599,0.0,-0.01,1.3,-7.2,1.4,-8.61,874.09,30.83
5234649,-0.02,-0.01,1.29,-7.14,1.71,-8.54,874.11,30.83
5234687,0.01,0.0,1.32,-7.08,2.62,-8.61,874.15,30.83
5234725,0.0,-0.0,1.33,-7.2,2.62,-8.61,874.15,30.83
5234763,-0.01,0.0,1.3,-7.08,2.62,-8.67,874.13,30.84
5234801,-0.02,0.0,1.33,-7.02,2.44,-8.67,874.12,30.83
5234840,-0.0,-0.0,1.33,-6.65,2.44,-8.61,874.12,30.83
5234878,-0.0,0.0,1.35,-6.59,1.95,-8.61,874.11,30.82
5234916,-0.02,-0.0,1.31,-6.59,1.71,-8.36,874.12,30.83
5234954,-0.01,-0.0,1.31,-6.71,1.71,-8.24,874.1,30.83
5235030,-0.01,0.01,1.31,-6.59,1.65,-8.24,874.1,30.8
5235068,-0.0,0.01,1.33,-6.59,2.2,-8.24,874.04,30.8
5235106,0.0,-0.0,1.33,-6.47,2.26,-8.18,874.06,30.81
5235195,-0.02,0.0,1.32,-6.1,2.69,-8.18,874.11,30.78
5235234,-0.01,-0.0,1.33,-6.1,2.93,-8.36,874.1,30.81
5235272,-0.0,-0.0,1.31,-5.86,3.54,-8.36,874.11,30.81
5235310,-0.01,-0.0,1.3,-5.74,3.42,-8.42,874.09,30.81
5235348,-0.0,-0.01,1.3,-5.74,4.15,-8.36,874.06,30.82
5235386,-0.0,-0.0,1.31,-5.68,4.27,-8.36,874.1,30.81
5235424,-0.02,-0.0,1.33,-5.62,4.33,-8.42,874.08,30.83
5235474,-0.01,-0.0,1.33,-5.49,4.46,-8.48,874.1,30.82
5235512,-0.0,0.0,1.35,-5.55,5.37,-8.48,874.06,30.82
5235550,-0.01,0.0,1.36,-5.55,5.13,-8.48,874.02,30.83
5235588,-0.0,-0.0,1.36,-5.43,5.49,-8.42,874.01,30.83
5235626,-0.01,0.01,1.33,-5.49,5.25,-8.42,874.04,30.83
5235665,-0.01,0.0,1.36,-5.43,6.04,-8.3,874.05,30.84
5235703,-0.0,-0.0,1.33,-5.49,6.04,-8.36,874.04,30.82
5235741,-0.01,0.0,1.36,-5.55,5.43,-8.3,874.08,30.84
5235779,-0.01,-0.01,1.37,-5.43,5.74,-8.12,874.06,30.83
5235829,-0.01,-0.0,1.37,-5.43,5.31,-7.93,874.04,30.83
5235867,0.0,0.0,1.39,-5.43,5.43,-8.12,874.04,30.84
5235905,-0.01,0.0,1.35,-5.62,5.25,-8.12,873.98,30.83
5235943,-0.02,0.0,1.39,-5.55,5.43,-8.0,874.0,30.84
5235981,-0.01,0.0,1.39,-5.55,6.16,-8.12,874.01,30.83
5236019,-0.0,0.01,1.38,-5.68,5.8,-8.06,873.97,30.84
5236057,-0.01,0.0,1.39,-5.37,5.25,-7.81,873.99,30.83
5236095,-0.01,-0.01,1.33,-5.43,5.55,-7.81,873.96,30.85
5236134,-0.0,0.0,1.36,-5.43,4.82,-7.87,873.98,30.85
5236172,-0.0,0.0,1.34,-5.37,4.27,-7.63,873.95,30.85
5236221,-0.02,0.0,1.33,-5.43,4.09,-7.63,874.01,30.84
5236260,-0.01,-0.0,1.36,-5.49,4.76,-7.87,873.98,30.84
5236298,-0.0,-0.01,1.36,-5.43,3.97,-7.63,873.98,30.86
5236336,-0.01,-0.01,1.37,-5.49,4.27,-7.63,873.9,30.84
5236374,0.0,-0.02,1.36,-5.62,4.46,-7.69,873.98,30.85
5236412,-0.0,-0.01,1.31,-5.49,4.76,-7.69,874.0,30.85
5236450,-0.02,0.0,1.3,-5.49,4.27,-7.69,873.93,30.85
5236488,-0.01,-0.01,1.28,-5.74,4.52,-7.75,873.96,30.84
5236527,-0.0,-0.01,1.32,-5.92,4.03,-7.75,873.93,30.86
5236576,-0.01,-0.03,1.28,-6.1,3.85,-7.57,873.95,30.84
5236614,-0.02,-0.01,1.33,-6.04,4.33,-7.51,873.92,30.85
5236653,0.01,-0.01,1.29,-6.04,5.62,-7.81,873.97,30.86
5236691,0.0,-0.01,1.31,-6.16,4.76,-7.69,873.94,30.85
5236729,-0.0,-0.03,1.3,-5.8,5.62,-7.75,873.92,30.85
5236767,0.01,-0.03,1.27,-5.92,5.31,-8.06,873.92,30.85
5236805,-0.02,-0.0,1.3,-5.86,5.55,-8.0,873.88,30.84
5236843,0.0,-0.01,1.28,-6.1,5.49,-8.0,873.77,30.84
5236881,0.0,-0.01,1.33,-6.29,5.07,-7.93,873.79,30.84
5236931,-0.0,-0.0,1.35,-6.65,4.33,-7.81,873.84,30.84
5236969,0.0,-0.02,1.4,-6.41,5.13,-8.0,873.86,30.85
5237007,0.0,-0.01,1.39,-6.53,5.0,-8.0,873.8,30.84
5237046,0.01,-0.01,1.41,-6.35,5.19,-8.06,873.83,30.84
5237084,0.0,-0.02,1.37,-6.04,4.52,-8.06,873.82,30.84
5237122,0.0,-0.01,1.37,-6.29,4.21,-8.06,873.79,30.82
5237160,0.01,-0.01,1.35,-6.29,4.76,-8.06,873.83,30.83
5237198,0.0,-0.01,1.33,-6.04,4.52,-8.3,873.82,30.84
5237236,-0.01,-0.01,1.33,-6.29,4.21,-8.42,873.79,30.83
5237274,0.0,-0.0,1.38,-6.35,3.66,-8.3,873.77,30.83
5237324,-0.0,-0.01,1.4,-6.41,3.36,-8.36,873.72,30.82
5237362,0.0,-0.01,1.39,-6.29,3.42,-8.48,873.68,30.82
5237401,-0.0,-0.01,1.38,-6.16,3.3,-8.3,873.75,30.83
5237439,-0.01,-0.01,1.37,-6.23,2.87,-8.42,873.76,30.83
5237477,-0.01,-0.01,1.35,-6.16,2.99,-8.42,873.73,30.83
5237515,-0.01,-0.0,1.34,-6.29,2.99,-8.36,873.71,30.82
5237553,-0.0,-0.02,1.34,-6.1,2.75,-8.42,873.84,30.84
5237591,-0.01,-0.03,1.29,-6.23,2.14,-8.36,873.72,30.83
5237629,-0.0,-0.02,1.32,-6.16,1.95,-8.42,873.65,30.83
5237679,-0.0,-0.02,1.29,-5.98,2.01,-8.3,873.72,30.82
5237717,-0.02,-0.02,1.29,-6.04,1.46,-8.3,873.8,30.83
5237755,-0.01,-0.03,1.26,-6.1,1.89,-8.3,873.62,30.82
5237794,-0.02,-0.02,1.26,-6.41,1.46,-8.24,873.71,30.82
5237832,-0.01,-0.02,1.27,-6.35,1.53,-8.18,873.72,30.82
5237870,-0.02,-0.03,1.24,-6.41,1.34,-8.3,873.67,30.82
5237908,-0.02,-0.02,1.29,-6.59,0.85,-8.12,873.7,30.82
5237946,-0.01,-0.02,1.29,-6.71,0.92,-8.12,873.69,30.82
5237984,-0.01,-0.01,1.31,-6.84,0.98,-8.06,873.64,30.82
5238022,-0.02,-0.0,1.32,-6.84,1.28,-8.18,873.64,30.82
5238098,-0.01,-0.01,1.36,-6.71,2.56,-8.18,873.6,30.8
5238136,-0.01,-0.0,1.38,-6.77,2.75,-8.3,873.6,30.81
5238174,-0.02,-0.0,1.35,-6.65,2.99,-8.06,873.6,30.82
5238264,-0.0,-0.01,1.33,-6.23,4.15,-8.36,873.55,30.77
5238302,-0.0,-0.01,1.31,-6.29,4.33,-8.42,873.54,30.79
5238340,-0.02,-0.0,1.33,-6.1,4.21,-8.36,873.59,30.8
5238378,-0.01,-0.01,1.33,-6.04,4.94,-8.48,873.51,30.79
5238417,-0.01,-0.02,1.32,-6.1,4.82,-8.42,873.53,30.79
5238455,-0.02,-0.01,1.36,-5.98,4.39,-8.36,873.51,30.79
5238505,0.0,-0.02,1.32,-5.92,4.39,-8.48,873.5,30.79
5238543,-0.01,-0.02,1.33,-5.98,4.09,-8.79,873.49,30.8
5238581,0.0,-0.02,1.31,-5.86,3.36,-8.42,873.48,30.81
5238619,-0.01,-0.01,1.32,-5.98,2.62,-8.3,873.53,30.81
5238657,-0.01,-0.02,1.3,-5.98,2.93,-8.36,873.45,30.79
5238695,0.0,-0.01,1.31,-6.04,2.38,-8.36,873.49,30.81
5238733,-0.01,-0.02,1.31,-6.16,1.77,-8.42,873.41,30.81
5238772,-0.01,-0.02,1.31,-6.1,1.34,-8.36,873.44,30.82
5238810,-0.0,-0.01,1.31,-6.16,1.16,-8.3,873.45,30.82
5238859,-0.02,-0.02,1.32,-6.23,0.61,-8.24,873.44,30.8
5238898,-0.01,-0.02,1.29,-6.23,0.79,-8.06,873.45,30.82
5238936,-0.02,-0.01,1.27,-6.16,0.43,-8.18,873.46,30.81
5238974,-0.02,-0.01,1.27,-6.1,1.04,-8.3,873.43,30.8
5239012,-0.01,-0.02,1.25,-6.41,0.43,-8.24,873.37,30.82
5239050,-0.01,-0.02,1.27,-6.47,0.55,-8.12,873.41,30.81
5239088,-0.03,-0.02,1.25,-6.47,0.24,-8.3,873.4,30.81
5239126,-0.02,-0.02,1.27,-6.47,0.49,-8.12,873.35,30.81
5239165,-0.02,-0.01,1.28,-6.41,0.79,-8.06,873.34,30.82
5239203,-0.02,-0.01,1.3,-6.59,0.61,-8.24,873.32,30.82
5239252,-0.02,-0.01,1.3,-6.41,0.73,-8.06,873.3,30.82
5239291,-0.01,-0.01,1.32,-6.41,1.04,-8.18,873.28,30.82
5239329,-0.02,-0.01,1.32,-6.29,1.46,-8.18,873.31,30.82
5239367,-0.03,-0.0,1.34,-6.04,1.59,-8.06,873.31,30.83
5239405,-0.02,-0.01,1.35,-6.04,2.14,-8.12,873.27,30.84
5239443,-0.01,-0.01,1.34,-6.04,2.56,-7.87,873.31,30.85
5239481,-0.02,-0.0,1.37,-5.98,2.38,-8.0,873.28,30.82
5239519,-0.02,-0.01,1.36,-5.8,2.38,-8.0,873.18,30.82
5239557,-0.03,-0.0,1.37,-5.8,2.69,-7.87,873.28,30.84
5239607,-0.02,-0.01,1.34,-5.68,3.23,-7.63,873.19,30.81
5239645,-0.03,-0.01,1.35,-5.74,3.11,-7.81,873.21,30.82
5239684,-0.02,-0.0,1.35,-5.31,3.85,-7.87,873.17,30.81
5239722,-0.02,0.0,1.34,-5.43,4.58,-7.81,873.19,30.81
5239760,-0.01,-0.0,1.35,-5.62,4.33,-7.63,873.12,30.82
5239798,-0.02,-0.01,1.33,-5.74,4.39,-7.57,873.14,30.83
5239836,-0.03,-0.0,1.35,-5.68,4.64,-7.32,873.13,30.82
5239874,-0.0,-0.01,1.32,-5.62,4.64,-7.39,873.17,30.81
5239913,-0.02,-0.0,1.32,-5.43,4.21,-7.08,873.08,30.82
5239962,-0.01,-0.02,1.27,-5.37,4.94,-7.02,873.09,30.8
5240000,-0.01,-0.02,1.28,-5.62,4.03,-7.14,873.11,30.81
5240039,-0.02,-0.02,1.25,-5.37,4.82,-7.02,873.15,30.81
5240077,-0.02,-0.02,1.24,-5.49,4.94,-6.96,873.12,30.81
5240115,-0.01,-0.01,1.27,-5.49,4.58,-7.02,873.08,30.81
5240153,-0.01,-0.02,1.26,-5.74,4.27,-6.71,873.02,30.8
5240191,-0.02,-0.02,1.28,-6.04,4.03,-6.71,873.06,30.81
5240229,-0.02,-0.01,1.28,-6.16,4.46,-6.77,872.95,30.82
5240267,-0.01,-0.0,1.31,-6.23,3.78,-6.47,873.04,30.82
5240317,-0.02,-0.01,1.31,-6.41,3.48,-6.29,872.96,30.82
5240355,-0.01,-0.01,1.33,-6.41,3.42,-6.29,872.92,30.8
5240393,-0.01,-0.01,1.34,-6.1,3.91,-6.41,872.9,30.81
5240432,-0.01,-0.01,1.32,-6.16,3.23,-6.1,872.96,30.8
5240470,-0.02,-0.0,1.33,-5.86,3.97,-6.16,872.95,30.82
5240508,-0.01,-0.0,1.31,-5.68,4.03,-6.35,872.87,30.81
5240546,-0.0,-0.0,1.33,-5.62,4.09,-6.29,872.86,30.8
5240584,-0.01,-0.01,1.29,-5.49,4.64,-6.35,872.86,30.8
5240622,-0.02,-0.0,1.33,-5.55,4.39,-6.41,872.84,30.81
5240660,-0.0,-0.01,1.29,-5.31,4.52,-6.35,872.86,30.81
5240710,-0.03,0.0,1.32,-5.19,4.21,-6.23,872.77,30.78
5240748,-0.01,-0.01,1.28,-5.25,4.64,-6.23,872.83,30.8
5240786,-0.01,-0.0,1.31,-5.13,4.09,-6.35,872.81,30.8
5240824,-0.01,-0.01,1.28,-5.13,4.64,-6.23,872.8,30.81
5240863,-0.01,-0.01,1.28,-5.07,4.33,-6.16,872.77,30.81
5240901,-0.01,-0.01,1.29,-4.88,4.88,-6.23,872.76,30.81
5240939,-0.01,-0.01,1.27,-4.82,4.52,-6.41,872.75,30.82
5240977,-0.01,-0.01,1.27,-4.76,4.94,-6.53,872.71,30.82
5241015,-0.01,-0.01,1.25,-4.76,4.94,-6.47,872.67,30.81
5241091,-0.0,-0.02,1.25,-4.76,5.13,-6.29,872.7,30.77
5241129,-0.02,-0.01,1.26,-5.0,4.82,-6.29,872.68,30.8
5241167,-0.01,-0.01,1.25,-4.7,5.19,-6.41,872.64,30.79
5241257,-0.01,-0.01,1.25,-4.88,5.31,-6.53,872.6,30.76
5241295,-0.0,-0.01,1.23,-5.0,4.94,-6.47,872.6,30.77
5241333,-0.0,-0.01,1.26,-5.07,5.0,-6.59,872.6,30.79
5241371,-0.0,-0.01,1.21,-5.07,5.19,-6.47,872.58,30.8
5241409,-0.01,-0.01,1.24,-4.88,4.52,-6.47,872.51,30.79
5241447,0.0,-0.02,1.22,-5.0,4.94,-6.47,872.49,30.8
5241497,-0.01,-0.01,1.22,-4.88,4.03,-6.41,872.53,30.79
5241535,-0.01,-0.01,1.2,-4.88,4.15,-6.47,872.51,30.79
5241574,-0.0,-0.02,1.2,-4.82,3.66,-6.53,872.51,30.81
5241612,-0.0,-0.01,1.21,-4.88,3.85,-6.41,872.43,30.79
5241650,-0.0,-0.01,1.2,-5.0,3.85,-6.29,872.42,30.8
5241688,-0.0,-0.01,1.22,-5.07,3.85,-6.47,872.41,30.81
5241726,-0.0,-0.01,1.23,-4.94,3.78,-6.71,872.37,30.8
5241764,0.0,-0.01,1.25,-4.82,3.23,-6.41,872.37,30.8
5241802,-0.0,-0.02,1.24,-4.88,4.09,-6.53,872.35,30.8
5241841,0.01,-0.01,1.24,-4.88,3.78,-6.53,872.39,30.82
5241890,0.0,0.0,1.27,-4.7,3.97,-6.59,872.24,30.77
5241929,0.0,-0.01,1.23,-4.64,4.39,-6.53,872.25,30.79
5241967,0.01,-0.01,1.27,-4.7,4.52,-6.96,872.34,30.8
5242005,0.01,-0.01,1.24,-4.39,4.76,-7.02,872.23,30.8
5242043,0.0,-0.01,1.21,-4.46,4.94,-7.14,872.32,30.79
5242081,0.0,-0.01,1.21,-4.09,4.94,-7.39,872.24,30.8
5242119,0.02,-0.01,1.21,-4.21,5.13,-7.75,872.24,30.8
5242157,0.0,-0.01,1.2,-4.46,5.0,-7.45,872.22,30.82
5242196,0.01,-0.0,1.24,-4.39,5.0,-7.57,872.18,30.81
5242245,0.0,-0.0,1.25,-4.64,5.43,-7.93,872.22,30.81
5242284,-0.0,-0.0,1.27,-4.82,5.55,-7.87,872.23,30.81
5242322,0.0,-0.01,1.28,-4.76,5.31,-7.93,872.12,30.8
5242360,-0.01,-0.0,1.25,-4.76,5.43,-8.06,872.18,30.81
5242398,0.0,-0.01,1.24,-4.76,5.25,-8.12,872.11,30.81
5242436,-0.0,-0.01,1.22,-4.94,5.0,-8.18,872.1,30.79
5242474,0.01,-0.01,1.19,-4.7,4.88,-8.24,872.18,30.81
5242512,-0.01,-0.01,1.19,-4.7,4.64,-8.18,872.09,30.81
5242550,-0.0,-0.02,1.18,-4.58,4.88,-8.18,872.01,30.81
5242589,0.0,-0.01,1.2,-4.88,4.46,-8.18,872.03,30.81
5242638,-0.01,-0.01,1.23,-4.88,4.52,-7.87,872.09,30.8
5242677,-0.0,-0.01,1.26,-5.0,4.39,-8.12,872.05,30.8
5242715,-0.01,-0.01,1.25,-4.94,4.33,-8.18,872.03,30.81
5242753,-0.01,-0.0,1.23,-4.94,4.15,-8.18,872.0,30.81
5242791,0.01,-0.02,1.21,-5.19,4.64,-8.18,872.02,30.82
5242829,0.0,-0.02,1.17,-4.94,4.64,-8.48,872.02,30.81
5242867,0.0,-0.01,1.18,-4.82,4.33,-8.24,872.0,30.82
5242905,0.0,-0.02,1.17,-4.7,4.15,-8.36,871.9,30.81
5242943,0.0,-0.02,1.15,-4.94,4.15,-8.48,871.95,30.81
5242993,-0.0,-0.02,1.15,-5.25,4.21,-8.24,871.87,30.8
5243031,-0.01,-0.02,1.15,-5.37,4.27,-8.48,871.86,30.8
5243069,-0.01,-0.01,1.16,-5.55,4.15,-8.48,871.85,30.8
5243108,-0.01,-0.01,1.17,-5.62,4.27,-8.61,871.83,30.81
5243146,-0.0,-0.02,1.17,-5.8,4.09,-8.61,871.93,30.8
5243184,-0.0,-0.01,1.19,-5.8,3.85,-8.48,871.78,30.8
5243222,-0.01,-0.02,1.16,-5.92,3.66,-8.61,871.81,30.8
5243260,-0.01,-0.02,1.16,-5.86,3.05,-8.61,871.84,30.8
5243298,-0.02,-0.02,1.14,-5.98,3.42,-8.48,871.85,30.8
5243348,-0.01,-0.01,1.16,-5.92,3.17,-8.48,871.85,30.79
5243386,-0.0,-0.01,1.15,-5.98,3.36,-8.67,871.8,30.8
5243424,-0.01,-0.01,1.14,-5.98,3.97,-8.73,871.77,30.79
5243462,-0.01,-0.01,1.17,-6.04,3.97,-8.79,871.75,30.8
5243500,-0.01,-0.02,1.14,-6.04,3.97,-8.79,871.71,30.79
5243539,-0.01,-0.0,1.15,-6.16,3.78,-8.67,871.74,30.79
5243577,-0.01,-0.0,1.17,-6.1,3.78,-8.54,871.65,30.79
5243615,-0.01,-0.02,1.15,-6.04,3.6,-8.85,871.68,30.8
5243653,-0.02,-0.01,1.17,-6.04,3.6,-8.67,871.7,30.81
5243691,-0.02,-0.02,1.13,-5.98,4.39,-8.61,871.72,30.81
5243741,-0.02,0.0,1.18,-6.29,4.03,-8.61,871.73,30.8
5243779,-0.01,-0.01,1.15,-6.29,4.15,-8.54,871.64,30.79
5243817,-0.02,-0.01,1.18,-6.41,3.54,-8.36,871.64,30.81
5243856,-0.01,-0.01,1.19,-6.35,4.7,-8.42,871.64,30.82
5243894,-0.01,-0.0,1.16,-6.35,3.78,-8.42,871.6,30.8
5243932,-0.02,0.02,1.21,-6.41,4.03,-8.06,871.59,30.82
5243970,-0.02,-0.0,1.18,-6.23,4.64,-8.18,871.53,30.81
5244008,-0.02,0.01,1.24,-6.23,3.97,-8.12,871.62,30.81
5244046,-0.0,0.0,1.22,-6.04,4.15,-8.12,871.58,30.81
5244124,-0.01,0.02,1.26,-5.8,3.97,-7.69,871.52,30.79
5244162,-0.01,0.01,1.26,-5.62,3.97,-7.69,871.57,30.8
5244200,-0.02,0.02,1.28,-5.55,3.85,-7.63,871.46,30.8
5244290,0.0,0.03,1.28,-5.62,4.03,-7.57,871.39,30.77
5244328,-0.01,0.03,1.31,-5.43,4.15,-7.51,871.48,30.77
5244366,-0.01,0.02,1.29,-5.13,4.52,-7.45,871.46,30.79
5244404,-0.01,0.02,1.29,-4.94,4.58,-7.39,871.42,30.78
5244442,0.0,0.02,1.27,-4.76,4.94,-7.26,871.39,30.79
5244480,0.0,0.02,1.26,-4.58,5.19,-7.32,871.4,30.79
5244518,-0.01,0.01,1.26,-4.27,4.76,-7.32,871.39,30.8
5244568,-0.01,0.02,1.25,-3.91,5.07,-7.32,871.4,30.79
5244606,-0.01,0.01,1.22,-3.91,5.25,-7.39,871.38,30.8
5244645,0.0,0.01,1.23,-3.72,5.19,-7.39,871.39,30.8
5244683,0.0,0.01,1.22,-3.66,5.62,-7.45,871.35,30.81
5244721,-0.0,0.01,1.19,-3.72,5.37,-7.45,871.37,30.79
5244759,-0.0,0.01,1.17,-3.48,5.25,-7.51,871.39,30.81
5244797,0.01,0.01,1.17,-3.6,5.07,-7.63,871.42,30.8
5244835,0.01,-0.01,1.12,-3.54,5.13,-7.63,871.4,30.81
5244874,-0.0,-0.0,1.11,-3.66,4.52,-7.69,871.35,30.81
5244923,0.01,-0.01,1.09,-3.85,5.37,-7.75,871.4,30.8
5244961,0.01,-0.0,1.1,-4.03,5.0,-7.87,871.35,30.8
5245000,0.0,-0.0,1.06,-4.15,4.88,-7.87,871.34,30.81
5245038,-0.02,-0.01,1.06,-4.21,4.64,-7.69,871.31,30.8
5245076,0.0,-0.02,1.06,-4.58,5.55,-7.93,871.35,30.81
5245114,0.01,-0.01,1.06,-4.76,5.0,-7.93,871.32,30.8
5245152,0.0,-0.02,1.05,-4.82,5.19,-8.18,871.33,30.8
5245190,-0.0,-0.03,1.02,-5.0,5.62,-8.18,871.32,30.81
5245228,0.01,-0.01,1.07,-4.94,5.68,-8.36,871.34,30.82
5245267,0.01,-0.01,1.04,-5.13,5.55,-8.3,871.27,30.82
5245316,-0.01,-0.01,1.07,-5.31,5.25,-8.3,871.19,30.81
5245354,-0.0,-0.02,1.04,-5.25,6.04,-8.61,871.26,30.81
5245393,-0.01,-0.01,1.08,-5.68,5.13,-8.36,871.28,30.82
5245431,-0.0,-0.01,1.08,-5.62,4.52,-8.36,871.22,30.8
5245469,-0.01,-0.01,1.06,-5.8,3.72,-8.36,871.25,30.82
5245507,-0.01,-0.01,1.11,-5.68,4.33,-8.42,871.24,30.82
5245545,0.0,-0.01,1.1,-5.49,3.6,-8.36,871.21,30.83
5245583,-0.02,-0.01,1.11,-5.55,2.99,-8.36,871.22,30.83
5245621,-0.0,-0.0,1.1,-5.37,3.48,-8.36,871.13,30.82
5245671,0.01,0.0,1.15,-5.0,2.93,-8.54,871.18,30.82
5245709,-0.01,-0.01,1.13,-5.07,2.87,-8.48,871.16,30.82
5245748,0.0,-0.02,1.14,-5.07,2.81,-8.54,871.17,30.82
5245786,-0.01,0.0,1.17,-5.07,2.87,-8.73,871.17,30.83
5245824,-0.01,0.01,1.16,-4.82,3.23,-8.79,871.23,30.84
5245862,-0.0,0.01,1.17,-4.76,2.87,-8.85,871.19,30.83
5245900,-0.01,-0.0,1.16,-4.82,3.54,-8.97,871.15,30.82
5245938,-0.0,-0.01,1.16,-4.82,3.78,-9.03,871.14,30.82
5245977,0.01,0.01,1.17,-4.88,4.64,-9.03,871.19,30.82
5246026,-0.0,0.01,1.18,-4.64,4.33,-9.09,871.16,30.8
5246065,0.0,0.0,1.17,-4.52,4.39,-9.22,871.15,30.82
5246103,-0.01,-0.0,1.19,-4.7,4.58,-9.28,871.17,30.83
5246141,0.0,0.0,1.17,-4.58,3.66,-9.22,871.12,30.81
5246179,-0.0,0.01,1.18,-4.58,3.3,-9.34,871.12,30.8
5246217,-0.0,0.01,1.2,-4.46,3.54,-9.28,871.07,30.81
5246255,-0.0,0.0,1.21,-4.58,3.3,-9.52,871.1,30.82
5246293,-0.02,0.02,1.25,-4.7,2.56,-9.58,871.1,30.8
5246332,-0.02,0.02,1.23,-4.64,2.99,-9.52,871.12,30.81
5246370,-0.01,0.03,1.25,-4.88,3.23,-10.01,871.04,30.81
5246419,-0.01,0.02,1.28,-5.31,3.05,-9.89,871.07,30.8
5246458,-0.02,0.03,1.29,-5.31,2.26,-9.77,871.09,30.81
5246496,-0.03,0.04,1.34,-4.94,2.5,-9.77,871.07,30.8
5246534,-0.02,0.05,1.35,-4.76,2.69,-9.83,871.15,30.8
5246572,-0.02,0.02,1.35,-4.39,2.38,-9.77,871.13,30.81
5246610,-0.01,0.01,1.31,-4.09,0.37,-9.46,871.16,30.82
5246648,-0.04,0.01,1.23,-3.97,0.43,-9.34,871.07,30.81
5246687,-0.03,0.02,1.15,-3.91,0.12,-9.28,871.13,30.8
5246725,-0.02,0.02,1.14,-3.66,0.37,-9.22,871.11,30.8
5246775,-0.05,-0.01,1.16,-2.99,-0.12,-9.16,871.21,30.81
5246813,-0.05,-0.02,1.15,-2.75,1.65,-9.34,871.25,30.8
5246851,-0.04,0.0,1.18,-2.38,2.44,-9.4,871.21,30.8
5246889,-0.04,-0.0,1.15,-2.14,4.46,-9.46,871.23,30.8
5246927,-0.04,-0.02,1.08,-2.14,4.27,-9.46,871.2,30.81
5246965,-0.05,-0.02,1.01,-2.56,4.82,-9.46,871.21,30.8
5247004,-0.04,-0.01,1.02,-2.75,5.74,-9.52,871.26,30.8
5247042,-0.03,-0.0,0.99,-3.6,6.35,-8.97,871.22,30.8
5247080,-0.02,-0.01,1.08,-3.78,3.66,-9.03,871.23,30.8
5247118,-0.04,-0.04,1.01,-4.46,4.52,-8.67,871.26,30.8
5247194,-0.0,-0.02,1.09,-5.31,2.99,-8.24,871.23,30.79
5247232,-0.02,-0.01,1.05,-5.74,2.38,-8.3,871.29,30.79
5247270,-0.02,-0.0,1.09,-5.98,2.75,-8.3,871.25,30.8
5247360,-0.02,-0.01,1.17,-6.35,3.17,-8.24,871.29,30.77
5247398,-0.02,-0.0,1.19,-6.23,2.93,-8.54,871.23,30.78
5247436,-0.03,-0.01,1.18,-6.29,3.72,-8.42,871.26,30.78
5247475,-0.01,-0.0,1.18,-6.35,3.11,-8.24,871.22,30.79
5247513,-0.03,0.0,1.19,-6.47,3.23,-8.18,871.26,30.79
5247551,-0.03,-0.0,1.16,-6.41,2.62,-8.12,871.3,30.79
5247601,-0.03,0.01,1.21,-6.41,3.05,-8.06,871.3,30.79
5247639,-0.02,-0.0,1.2,-6.16,2.62,-7.93,871.25,30.78
5247677,-0.02,0.01,1.25,-6.1,2.81,-7.93,871.32,30.79
5247715,-0.02,0.0,1.21,-5.92,2.99,-7.75,871.27,30.79
5247754,-0.02,0.01,1.25,-5.68,2.62,-7.63,871.31,30.8
5247792,-0.01,0.0,1.23,-5.62,3.17,-7.75,871.26,30.79
5247830,-0.01,0.01,1.25,-5.68,2.69,-7.69,871.27,30.8
5247868,-0.02,0.01,1.24,-5.43,2.62,-7.63,871.3,30.81
5247906,-0.02,0.01,1.25,-5.25,2.26,-7.51,871.29,30.8
5247956,-0.01,0.0,1.26,-5.13,2.44,-7.63,871.34,30.79
5247994,-0.02,-0.0,1.26,-4.94,2.26,-7.45,871.39,30.8
5248033,-0.01,-0.0,1.22,-5.0,2.87,-7.51,871.39,30.81
5248071,-0.01,-0.0,1.19,-4.82,3.05,-7.75,871.39,30.81
5248109,-0.02,0.0,1.18,-4.94,2.93,-7.81,871.38,30.81
5248147,-0.01,-0.01,1.18,-4.94,2.62,-7.81,871.41,30.81
5248185,-0.02,-0.01,1.2,-5.25,2.93,-7.69,871.37,30.82
5248224,-0.02,0.01,1.25,-5.19,2.2,-8.0,871.39,30.8
5248262,-0.01,0.01,1.28,-5.49,0.73,-7.69,871.39,30.82
5248300,-0.02,0.01,1.31,-5.68,0.37,-7.57,871.4,30.82
5248350,-0.02,-0.0,1.3,-5.74,0.24,-7.51,871.39,30.81
5248388,-0.02,0.01,1.26,-5.92,-0.18,-7.32,871.41,30.81
5248426,-0.02,0.01,1.25,-5.62,-0.85,-7.32,871.45,30.81
5248465,-0.02,0.01,1.23,-5.37,-0.24,-7.26,871.5,30.8
5248503,-0.02,-0.01,1.25,-5.37,0.67,-7.39,871.46,30.82
5248541,-0.03,-0.01,1.24,-5.07,0.0,-7.51,871.42,30.79
5248579,-0.03,0.01,1.27,-4.94,0.73,-7.45,871.45,30.81
5248617,-0.03,0.0,1.28,-5.13,1.1,-7.32,871.4,30.8
5248655,-0.03,0.0,1.3,-5.0,0.85,-7.32,871.44,30.8
5248705,-0.02,-0.01,1.31,-5.0,1.59,-7.39,871.46,30.79
5248743,-0.02,-0.01,1.3,-5.13,1.95,-7.39,871.45,30.8
5248781,-0.02,0.01,1.29,-5.19,2.14,-7.26,871.45,30.8
5248820,-0.02,0.0,1.27,-5.13,2.87,-7.57,871.5,30.8
5248858,-0.02,-0.0,1.29,-5.25,2.93,-7.51,871.54,30.8
5248896,-0.03,-0.0,1.31,-5.13,3.42,-7.69,871.47,30.79
5248934,-0.03,-0.0,1.29,-5.13,3.97,-7.63,871.55,30.8
5248972,-0.02,0.01,1.34,-4.88,3.54,-7.57,871.53,30.8
5249011,-0.02,-0.0,1.32,-4.94,3.91,-7.63,871.55,30.8
5249049,-0.02,-0.01,1.29,-5.25,3.91,-7.75,871.51,30.81
5249099,-0.02,0.01,1.29,-5.13,4.27,-7.32,871.52,30.78
5249137,-0.02,0.01,1.31,-5.37,4.03,-7.39,871.59,30.82
5249175,-0.02,0.01,1.36,-5.49,4.09,-7.39,871.55,30.81
5249213,-0.03,0.0,1.4,-5.49,4.15,-7.26,871.5,30.81
5249251,-0.02,-0.0,1.4,-5.49,4.33,-7.08,871.53,30.82
5249290,-0.02,0.02,1.48,-5.37,4.09,-6.84,871.56,30.82
5249328,-0.02,0.02,1.46,-5.31,4.15,-6.9,871.55,30.81
5249366,-0.03,0.01,1.4,-5.25,4.46,-6.65,871.49,30.82
5249404,-0.02,0.01,1.45,-5.0,4.76,-6.65,871.54,30.81
5249454,-0.02,-0.01,1.37,-4.82,4.7,-6.71,871.57,30.8
5249492,-0.03,0.01,1.37,-4.7,4.27,-6.65,871.59,30.8
5249530,-0.02,-0.01,1.34,-4.39,5.43,-6.65,871.56,30.8
5249569,-0.0,-0.01,1.34,-4.39,4.46,-6.53,871.57,30.81
5249607,-0.02,-0.01,1.32,-4.15,3.66,-6.16,871.53,30.8
5249645,-0.04,-0.01,1.28,-4.39,3.23,-6.1,871.59,30.8
5249683,-0.02,-0.01,1.31,-4.21,3.78,-6.41,871.66,30.8
5249721,-0.01,-0.02,1.34,-4.21,3.11,-6.16,871.59,30.81
5249759,-0.01,-0.03,1.29,-4.52,2.93,-5.98,871.69,30.82
5249809,-0.02,-0.01,1.28,-4.58,2.99,-5.8,871.62,30.8
5249847,-0.01,-0.02,1.26,-4.76,2.99,-5.86,871.61,30.81
5249886,-0.02,-0.03,1.22,-5.37,1.65,-5.74,871.64,30.81
5249924,-0.03,-0.02,1.24,-5.43,0.73,-5.68,871.6,30.81
5249962,-0.01,-0.04,1.18,-5.68,1.04,-5.68,871.63,30.82
5250000,-0.01,-0.02,1.23,-5.8,0.24,-5.62,871.68,30.81
5250038,-0.02,-0.02,1.27,-5.68,0.85,-5.55,871.63,30.81
5250077,-0.03,-0.02,1.26,-5.92,0.92,-5.49,871.68,30.8
5250115,-0.01,-0.01,1.4,-5.55,1.22,-5.49,871.65,30.81
5250153,-0.01,-0.04,1.36,-5.31,1.65,-5.55,871.63,30.81
5250229,-0.01,0.0,1.42,-5.13,2.32,-5.43,871.69,30.78
5250267,-0.02,-0.01,1.41,-5.07,1.59,-5.55,871.68,30.79
5250305,-0.03,-0.0,1.45,-4.88,0.73,-5.13,871.61,30.8
5250395,-0.02,0.01,1.5,-4.82,1.1,-5.07,871.55,30.75
5250433,-0.01,-0.0,1.46,-4.64,1.04,-4.88,871.58,30.78
5250471,-0.02,-0.01,1.45,-4.82,1.22,-4.82,871.56,30.79
5250509,-0.02,-0.0,1.45,-4.46,2.2,-5.0,871.64,30.79
5250548,-0.01,-0.01,1.42,-4.39,2.38,-4.88,871.66,30.79
5250586,-0.03,-0.0,1.45,-3.78,1.89,-4.7,871.6,30.79
5250636,-0.01,-0.02,1.43,-3.23,2.75,-4.64,871.64,30.78
5250674,-0.01,-0.02,1.46,-3.23,2.62,-4.64,871.72,30.79
5250712,-0.02,-0.02,1.38,-3.11,2.38,-4.46,871.61,30.78
5250750,-0.01,-0.03,1.36,-3.17,2.56,-4.27,871.61,30.79
5250788,-0.01,-0.03,1.32,-2.99,2.99,-4.33,871.6,30.78
5250826,0.0,-0.04,1.32,-2.93,2.56,-4.27,871.56,30.79
5250865,-0.03,-0.05,1.21,-2.93,2.26,-4.27,871.63,30.79
5250903,-0.01,-0.03,1.25,-3.05,2.44,-4.21,871.63,30.79
5250941,0.0,-0.05,1.21,-3.11,4.21,-4.46,871.64,30.8
5250991,-0.01,-0.04,1.22,-3.23,2.87,-4.33,871.66,30.79
5251029,-0.0,-0.06,1.2,-3.11,3.54,-4.64,871.61,30.79
5251067,-0.0,-0.05,1.21,-3.23,3.85,-4.76,871.61,30.8
5251105,0.01,-0.03,1.24,-3.42,3.91,-4.64,871.62,30.8
5251144,0.0,-0.05,1.2,-3.42,4.03,-4.64,871.57,30.79
5251182,0.01,-0.05,1.21,-3.3,3.72,-4.64,871.66,30.8
5251220,0.01,-0.05,1.21,-3.48,4.15,-4.88,871.57,30.8
5251258,0.01,-0.04,1.2,-3.66,3.72,-4.88,871.59,30.79
5251296,-0.0,-0.04,1.22,-3.42,3.36,-5.0,871.55,30.8
5251334,0.01,-0.05,1.23,-3.36,3.36,-5.07,871.54,30.8
5251384,-0.0,-0.04,1.22,-3.23,3.23,-5.13,871.58,30.79
5251422,0.02,-0.04,1.23,-3.48,2.99,-5.13,871.57,30.8
5251461,0.0,-0.04,1.24,-3.48,3.23,-5.0,871.52,30.79
5251499,0.0,-0.05,1.23,-3.72,2.69,-5.13,871.56,30.81
5251537,0.01,-0.04,1.23,-3.6,2.81,-5.31,871.54,30.81
5251575,0.0,-0.04,1.2,-3.72,2.81,-5.37,871.53,30.8
5251613,0.01,-0.04,1.22,-3.72,2.69,-5.43,871.53,30.79
5251651,-0.0,-0.05,1.21,-3.97,3.05,-5.43,871.52,30.81
5251690,-0.01,-0.04,1.21,-4.03,2.81,-5.43,871.46,30.8
5251739,0.01,-0.04,1.27,-4.09,3.17,-5.62,871.5,30.79
5251777,-0.01,-0.04,1.28,-4.03,2.93,-5.62,871.47,30.8
5251816,0.01,-0.04,1.27,-4.15,2.93,-5.74,871.48,30.81
5251854,0.0,-0.04,1.26,-3.97,2.99,-5.8,871.43,30.8
5251892,0.01,-0.04,1.26,-4.21,3.11,-5.8,871.46,30.8
5251930,-0.0,-0.04,1.24,-4.09,2.75,-5.98,871.44,30.79
5251968,-0.0,-0.04,1.24,-4.15,2.99,-5.8,871.43,30.81
5252007,0.0,-0.04,1.22,-3.78,2.93,-5.8,871.46,30.8
5252045,0.0,-0.04,1.24,-3.91,2.62,-5.92,871.45,30.8
5252083,-0.01,-0.04,1.23,-3.85,2.69,-5.92,871.41,30.79
5252133,0.01,-0.04,1.24,-3.91,2.5,-5.92,871.46,30.78
5252171,-0.0,-0.04,1.23,-3.85,2.75,-5.86,871.43,30.81
5252209,-0.0,-0.04,1.23,-3.78,2.75,-5.92,871.4,30.79
5252247,-0.01,-0.04,1.24,-3.72,2.81,-5.92,871.39,30.79
5252285,-0.01,-0.05,1.22,-3.66,2.81,-5.92,871.41,30.8
5252324,-0.0,-0.04,1.22,-3.66,3.3,-6.1,871.4,30.79
5252362,-0.0,-0.04,1.24,-3.72,3.05,-6.16,871.36,30.79
5252400,-0.0,-0.05,1.21,-3.66,3.3,-6.04,871.38,30.79
5252438,-0.01,-0.04,1.2,-3.66,2.99,-6.16,871.45,30.8
5252488,-0.0,-0.05,1.18,-3.78,2.99,-6.16,871.38,30.79
5252526,-0.01,-0.04,1.18,-4.27,2.69,-6.1,871.36,30.8
5252564,-0.01,-0.05,1.19,-4.03,2.56,-6.04,871.38,30.79
5252602,-0.0,-0.05,1.16,-4.27,2.14,-6.04,871.29,30.8
5252640,-0.02,-0.05,1.18,-4.15,2.01,-6.16,871.35,30.79
5252679,-0.01,-0.05,1.16,-4.03,2.38,-5.92,871.35,30.79
5252717,-0.01,-0.04,1.2,-4.27,1.65,-6.04,871.28,30.78
5252755,-0.02,-0.05,1.19,-4.21,2.14,-5.86,871.32,30.79
5252793,-0.0,-0.04,1.2,-4.09,1.89,-5.8,871.32,30.79
5252843,-0.01,-0.04,1.21,-3.97,2.01,-5.86,871.26,30.79
5252881,-0.01,-0.04,1.21,-3.85,1.53,-5.8,871.26,30.79
5252919,-0.02,-0.03,1.2,-3.85,1.95,-5.86,871.24,30.79
5252957,-0.01,-0.04,1.21,-3.97,2.44,-5.92,871.17,30.79
5252996,-0.0,-0.04,1.23,-3.85,2.69,-5.98,871.2,30.79
5253034,-0.01,-0.04,1.24,-3.66,3.23,-5.86,871.18,30.79
5253072,-0.01,-0.04,1.22,-3.48,3.17,-6.16,871.31,30.8
5253110,-0.01,-0.03,1.25,-3.54,3.05,-6.16,871.15,30.8
5253148,-0.01,-0.04,1.21,-3.36,3.54,-6.23,871.14,30.79
5253186,-0.01,-0.04,1.21,-3.42,3.91,-6.16,871.16,30.79
5253262,-0.02,-0.04,1.19,-3.23,4.21,-6.23,871.15,30.77
5253300,-0.0,-0.03,1.22,-3.23,4.03,-6.29,871.18,30.79
5253338,-0.0,-0.04,1.21,-3.23,3.91,-6.41,871.16,30.77
5253428,0.0,-0.03,1.24,-3.23,4.21,-6.29,871.06,30.74
5253466,-0.01,-0.03,1.22,-3.11,3.85,-6.1,871.05,30.75
5253504,-0.01,-0.03,1.23,-3.05,4.46,-6.1,871.13,30.76
5253543,-0.01,-0.03,1.24,-3.05,4.46,-6.04,871.03,30.75
5253581,-0.01,-0.04,1.23,-3.05,4.21,-6.1,871.06,30.75
5253619,-0.01,-0.03,1.22,-2.87,3.6,-6.04,871.09,30.77
5253669,-0.0,-0.04,1.22,-2.69,3.66,-5.98,871.06,30.76
5253707,0.01,-0.04,1.22,-2.44,3.36,-6.1,871.05,30.76
5253745,-0.03,-0.04,1.16,-2.75,2.93,-6.16,871.08,30.76
5253783,-0.02,-0.04,1.16,-2.56,3.85,-5.92,870.98,30.76
5253821,-0.0,-0.05,1.17,-2.81,3.42,-6.1,871.02,30.77
5253859,-0.0,-0.04,1.16,-2.93,3.05,-6.1,870.96,30.77
5253898,-0.03,-0.04,1.15,-3.05,2.93,-6.04,870.99,30.78
5253936,-0.0,-0.04,1.18,-3.05,3.42,-5.98,870.95,30.77
5253974,0.0,-0.04,1.19,-2.99,3.17,-5.98,870.99,30.78
5254024,-0.02,-0.04,1.18,-2.99,2.44,-5.98,870.94,30.75
5254062,-0.02,-0.05,1.16,-2.87,2.62,-5.98,870.95,30.77
5254100,-0.01,-0.04,1.18,-2.87,2.87,-6.23,870.94,30.78
5254138,-0.01,-0.04,1.16,-2.99,3.05,-5.98,870.86,30.77
5254176,-0.02,-0.04,1.14,-3.05,3.23,-5.98,870.88,30.77
5254214,-0.01,-0.04,1.16,-3.11,3.66,-6.1,870.83,30.78
5254252,-0.01,-0.05,1.16,-2.87,3.72,-6.04,870.86,30.78
5254291,-0.02,-0.04,1.16,-3.42,3.42,-5.92,870.82,30.78
5254329,-0.02,-0.03,1.18,-3.23,3.66,-6.04,870.8,30.77
5254367,-0.01,-0.04,1.19,-3.36,4.39,-6.16,870.82,30.79
5254417,-0.02,-0.04,1.19,-3.3,4.15,-6.04,870.86,30.78
5254455,-0.03,-0.04,1.16,-3.11,4.33,-5.86,870.83,30.79
5254493,-0.01,-0.03,1.19,-3.23,3.72,-6.04,870.78,30.79
5254531,-0.01,-0.03,1.18,-2.93,4.03,-5.92,870.78,30.79
5254570,-0.01,-0.04,1.15,-2.81,4.15,-5.92,870.8,30.8
5254608,-0.01,-0.05,1.16,-2.87,3.85,-5.68,870.77,30.8
5254646,-0.02,-0.04,1.14,-2.69,3.78,-5.68,870.73,30.8
5254684,-0.02,-0.03,1.15,-2.87,3.78,-5.62,870.76,30.8
5254722,-0.01,-0.04,1.14,-2.62,4.03,-5.68,870.73,30.81
5254772,-0.02,-0.04,1.16,-2.5,4.33,-5.68,870.66,30.78
5254810,-0.02,-0.04,1.18,-2.75,4.76,-5.98,870.7,30.8
5254849,-0.02,-0.03,1.19,-2.56,5.37,-5.98,870.71,30.79
5254887,-0.01,-0.03,1.23,-2.69,5.31,-5.8,870.66,30.77
5254925,-0.02,-0.03,1.23,-2.44,5.0,-5.8,870.62,30.78
5254963,-0.03,-0.03,1.23,-2.2,4.82,-5.62,870.63,30.8
5255001,-0.02,-0.04,1.21,-2.08,5.0,-5.68,870.62,30.79
5255040,-0.02,-0.02,1.2,-2.01,4.88,-5.62,870.6,30.79
5255078,-0.03,-0.03,1.19,-1.95,4.7,-5.43,870.52,30.78
5255128,-0.03,-0.04,1.17,-2.01,4.52,-5.37,870.58,30.79
5255166,-0.02,-0.04,1.15,-2.08,5.0,-5.55,870.57,30.78
5255204,-0.02,-0.03,1.16,-2.08,4.52,-5.43,870.52,30.79
5255242,-0.02,-0.03,1.14,-1.89,4.82,-5.37,870.49,30.77
5255280,-0.02,-0.04,1.12,-1.95,4.15,-5.31,870.49,30.78
5255319,-0.03,-0.04,1.14,-1.77,4.21,-5.25,870.53,30.79
5255357,-0.01,-0.05,1.1,-1.95,4.03,-5.13,870.51,30.78
5255395,-0.02,-0.04,1.1,-1.83,3.42,-5.19,870.47,30.78
5255433,-0.02,-0.04,1.08,-1.83,3.6,-5.25,870.49,30.78
5255483,-0.02,-0.04,1.07,-2.08,2.69,-5.19,870.44,30.78
5255521,-0.02,-0.04,1.07,-2.01,2.08,-5.25,870.39,30.77
5255559,-0.02,-0.04,1.07,-2.01,1.34,-5.07,870.36,30.77
5255597,-0.01,-0.04,1.08,-2.32,0.43,-5.19,870.35,30.78
5255636,-0.01,-0.04,1.1,-2.14,-0.31,-5.07,870.32,30.78
5255674,-0.02,-0.04,1.08,-2.08,-1.16,-5.07,870.38,30.79
5255712,-0.02,-0.05,1.07,-1.83,-1.83,-5.07,870.28,30.78
5255750,-0.03,-0.04,1.07,-1.83,-2.69,-5.19,870.26,30.78
5255788,-0.03,-0.04,1.05,-1.59,-3.11,-5.13,870.23,30.77
5255827,-0.03,-0.04,1.04,-1.46,-3.91,-5.13,870.24,30.78
5255876,-0.03,-0.04,1.04,-0.92,-3.78,-5.25,870.27,30.78
5255915,-0.04,-0.04,1.03,-0.61,-4.09,-5.25,870.18,30.78
5255953,-0.05,-0.04,1.02,-0.18,-4.09,-5.37,870.17,30.78
5255991,-0.04,-0.05,1.01,0.12,-3.97,-5.31,870.19,30.77
5256029,-0.03,-0.04,1.0,0.49,-4.09,-5.31,870.15,30.77
5256067,-0.04,-0.04,0.96,0.61,-4.15,-5.37,870.19,30.78
5256105,-0.04,-0.04,0.96,1.04,-4.21,-5.49,870.16,30.78
5256144,-0.04,-0.05,0.95,1.16,-3.66,-5.31,870.13,30.78
5256182,-0.04,-0.04,0.95,1.04,-3.3,-5.31,870.15,30.78
5256257,-0.05,-0.05,0.95,1.71,-3.05,-5.31,870.16,30.76
5256296,-0.05,-0.03,0.96,1.95,-2.69,-5.37,870.19,30.77
5256334,-0.04,-0.04,0.95,2.2,-2.87,-5.31,870.07,30.77
5256423,-0.04,-0.04,0.94,2.93,-3.54,-5.19,870.1,30.73
5256461,-0.05,-0.04,0.94,3.23,-3.72,-5.13,870.08,30.75
5256500,-0.04,-0.05,0.92,3.48,-3.72,-5.0,870.05,30.76
5256538,-0.04,-0.04,0.93,3.54,-3.91,-5.13,870.05,30.77
5256576,-0.04,-0.04,0.91,3.78,-4.03,-5.0,870.06,30.76
5256614,-0.05,-0.05,0.87,3.91,-4.03,-5.07,869.97,30.77
5256664,-0.04,-0.05,0.82,3.97,-3.85,-5.0,870.07,30.75
5256702,-0.05,-0.05,0.82,4.21,-4.21,-4.94,870.02,30.77
5256740,-0.05,-0.05,0.8,4.27,-4.21,-4.94,870.01,30.77
5256778,-0.04,-0.05,0.78,4.15,-4.15,-4.82,870.01,30.76
5256817,-0.04,-0.05,0.78,4.21,-4.27,-4.94,870.01,30.77
5256855,-0.04,-0.05,0.78,4.21,-4.03,-4.82,869.97,30.78
5256893,-0.05,-0.06,0.77,4.15,-3.97,-4.76,869.98,30.77
5256931,-0.05,-0.05,0.77,3.85,-4.58,-4.58,869.91,30.79
5256969,-0.06,-0.06,0.76,3.66,-4.58,-4.46,869.95,30.77
5257007,-0.03,-0.06,0.74,3.3,-5.74,-4.33,869.89,30.78
5257057,-0.03,-0.05,0.77,2.87,-5.98,-4.33,869.91,30.77
5257095,-0.04,-0.06,0.76,2.69,-6.23,-4.33,869.96,30.78
5257134,-0.03,-0.05,0.83,2.14,-6.23,-4.27,869.87,30.77
5257172,-0.04,-0.06,0.89,2.2,-7.2,-4.27,869.9,30.78
5257210,-0.09,-0.04,0.92,1.83,-7.75,-4.21,869.89,30.78
5257248,-0.04,-0.04,0.96,1.77,-7.81,-4.09,869.92,30.78
5257286,-0.03,-0.04,1.0,1.53,-9.52,-4.15,869.86,30.78
5257325,-0.04,-0.03,1.02,1.53,-9.83,-4.09,869.89,30.77
5257363,-0.05,-0.03,1.07,1.65,-8.67,-4.09,869.8,30.78
5257413,-0.06,-0.03,1.12,1.95,-8.97,-4.27,869.83,30.76
5257451,-0.07,-0.03,1.12,2.14,-9.4,-4.09,869.83,30.78
5257489,-0.07,-0.02,1.1,2.5,-8.61,-4.15,869.81,30.77
5257527,-0.06,-0.02,1.12,2.87,-7.32,-4.39,869.79,30.77
5257565,-0.06,-0.01,1.08,3.23,-6.65,-4.46,869.85,30.79
5257604,-0.07,-0.01,1.1,3.48,-5.62,-4.46,869.84,30.77
5257642,-0.08,-0.04,1.06,3.72,-4.58,-4.52,869.86,30.78
5257680,-0.06,-0.03,1.09,3.6,-4.94,-4.52,869.88,30.78
5257718,-0.07,-0.02,1.07,3.72,-5.07,-4.15,869.85,30.78
5257768,-0.06,-0.03,1.05,3.6,-4.39,-4.33,869.8,30.76
5257806,-0.06,-0.03,1.04,3.6,-3.91,-4.21,869.84,30.77
5257844,-0.06,-0.03,1.03,3.6,-5.68,-4.03,869.83,30.77
5257882,-0.08,-0.04,1.0,3.42,-4.7,-3.72,869.83,30.76
5257921,-0.08,-0.03,0.97,3.17,-3.85,-3.6,869.82,30.76
5257959,-0.07,-0.03,0.98,3.23,-3.72,-3.6,869.83,30.78
5257997,-0.08,-0.05,0.92,2.93,-4.03,-3.42,869.81,30.78
5258035,-0.07,-0.05,0.95,3.05,-3.42,-3.17,869.8,30.77
5258073,-0.07,-0.05,0.89,3.3,-2.5,-3.23,869.82,30.77
5258123,-0.08,-0.04,0.89,3.17,-2.81,-2.81,869.89,30.77
5258161,-0.09,-0.05,0.86,2.99,-2.87,-2.56,869.8,30.75
5258200,-0.08,-0.05,0.89,3.17,-2.44,-2.5,869.86,30.77
5258238,-0.06,-0.06,0.83,2.75,-1.83,-2.26,869.88,30.76
5258276,-0.08,-0.05,0.86,2.75,-2.5,-2.08,869.85,30.77
5258314,-0.08,-0.06,0.83,2.69,-1.95,-1.89,869.85,30.78
5258352,-0.08,-0.05,0.84,2.56,-1.34,-1.71,869.84,30.76
5258391,-0.09,-0.06,0.85,2.62,-0.55,-1.46,869.81,30.76
5258429,-0.1,-0.06,0.8,2.56,-0.18,-1.46,869.83,30.77
5258467,-0.07,-0.05,0.85,2.5,0.98,-1.4,869.81,30.75
5258517,-0.07,-0.05,0.84,2.32,1.71,-1.04,869.86,30.76
5258555,-0.06,-0.06,0.88,2.2,1.77,-0.79,869.86,30.75
5258593,-0.08,-0.06,0.86,1.95,2.5,-0.61,869.89,30.75
5258631,-0.07,-0.05,0.92,1.89,1.53,-0.31,869.88,30.76
5258669,-0.05,-0.06,0.92,1.83,2.14,-0.12,869.87,30.77
5258708,-0.07,-0.05,0.93,1.83,1.1,0.12,869.89,30.76
5258746,-0.06,-0.05,0.95,1.77,1.22,0.37,869.92,30.76
5258784,-0.04,-0.06,0.94,1.77,0.61,0.49,869.93,30.76
5258822,-0.05,-0.05,0.96,1.46,0.24,0.73,869.88,30.76
5258872,-0.05,-0.06,0.94,1.53,0.49,0.98,869.94,30.76
5258910,-0.06,-0.06,0.96,1.46,0.37,1.16,869.88,30.77
5258948,-0.05,-0.06,0.95,1.71,0.18,1.16,869.91,30.77
5258987,-0.05,-0.05,0.95,1.46,-0.12,1.46,869.89,30.76
5259025,-0.05,-0.05,0.96,1.65,0.55,1.28,869.92,30.75
5259063,-0.04,-0.06,0.95,1.4,0.55,1.53,869.85,30.75
5259101,-0.06,-0.05,0.96,1.77,0.31,1.59,869.89,30.77
5259139,-0.05,-0.06,0.91,1.89,0.37,1.83,869.86,30.75
5259177,-0.05,-0.04,0.94,1.95,0.24,1.77,869.88,30.76
5259216,-0.05,-0.05,0.91,2.14,0.85,1.77,869.9,30.76
5259291,-0.05,-0.05,0.92,2.14,1.65,2.14,869.85,30.72
5259330,-0.04,-0.07,0.92,2.2,0.55,2.2,869.94,30.75
5259368,-0.02,-0.06,0.94,2.08,0.49,2.14,869.95,30.75
5259457,-0.04,-0.05,0.9,1.83,0.24,2.2,869.94,30.7
5259495,-0.03,-0.05,0.93,1.65,0.24,2.26,869.97,30.73
5259534,-0.03,-0.05,0.97,1.71,-0.12,2.32,869.9,30.72
5259572,-0.04,-0.06,0.92,1.71,0.43,2.14,869.86,30.72
5259610,-0.03,-0.05,0.95,1.71,0.12,2.14,869.94,30.73
5259648,-0.04,-0.06,0.93,1.89,0.98,2.01,869.94,30.74
5259686,-0.03,-0.06,0.9,1.83,0.49,2.08,869.98,30.74
5259736,-0.02,-0.06,0.92,1.83,0.85,2.01,870.01,30.73
5259774,-0.03,-0.07,0.9,1.65,0.31,1.83,869.98,30.75
5259812,-0.03,-0.06,0.93,1.65,0.43,2.01,869.94,30.73
5259850,-0.02,-0.07,0.91,1.59,1.1,2.01,869.91,30.74
5259889,-0.04,-0.06,0.92,1.28,0.06,1.95,869.97,30.75
5259927,-0.04,-0.06,0.94,1.28,0.49,1.83,869.95,30.75
5259965,-0.03,-0.06,0.93,1.1,0.12,1.95,869.93,30.75
5260003,-0.01,-0.05,0.95,0.92,0.06,1.83,869.95,30.75
5260041,-0.03,-0.06,0.95,1.04,0.12,1.95,869.91,30.76
5260091,-0.03,-0.06,0.96,0.92,0.37,1.65,870.0,30.75
5260129,-0.03,-0.05,0.98,1.16,0.0,1.65,870.0,30.75
5260167,-0.03,-0.06,0.99,1.22,-0.61,1.53,869.94,30.74
5260206,-0.02,-0.06,0.99,1.16,-0.43,1.53,869.91,30.76
5260244,-0.02,-0.05,0.99,1.16,-0.31,1.59,869.96,30.76
5260282,-0.02,-0.06,0.98,1.28,-0.73,1.65,869.94,30.76
5260320,-0.03,-0.06,0.97,1.28,-1.1,1.65,869.91,30.76
5260358,-0.03,-0.06,0.98,1.53,-1.1,1.4,869.91,30.76
5260396,-0.03,-0.05,0.98,1.22,-0.73,1.4,869.99,30.75
5260434,-0.03,-0.05,1.01,1.16,-0.79,1.46,869.94,30.75
5260484,-0.03,-0.06,1.02,1.04,-0.79,1.34,869.95,30.74
5260522,-0.04,-0.06,1.04,0.92,-0.43,1.28,869.99,30.75
5260561,-0.03,-0.06,1.02,0.92,-0.12,1.22,869.96,30.75
5260599,-0.03,-0.05,1.02,0.73,-0.43,1.16,869.94,30.73
5260637,-0.03,-0.05,1.01,0.92,-0.18,1.28,869.95,30.74
5260675,-0.03,-0.06,1.0,0.79,-0.06,1.28,869.91,30.72
5260713,-0.03,-0.06,0.98,0.79,0.24,1.1,869.96,30.74
5260751,-0.03,-0.06,0.97,0.85,-0.06,1.1,869.99,30.74
5260789,-0.03,-0.06,0.96,0.92,0.37,1.1,869.97,30.74
5260839,-0.03,-0.06,0.96,1.22,0.92,0.98,870.01,30.74
5260877,-0.03,-0.06,0.96,0.98,1.04,0.92,869.97,30.74
5260915,-0.05,-0.06,0.93,0.67,0.85,0.85,869.97,30.75
5260954,-0.04,-0.06,0.96,0.79,1.16,1.1,869.98,30.74
5260992,-0.04,-0.06,0.93,0.61,1.28,0.85,869.99,30.75
5261030,-0.04,-0.06,0.97,0.67,1.34,0.79,869.99,30.75
5261068,-0.04,-0.07,0.97,0.67,1.95,0.92,870.01,30.74
5261106,-0.04,-0.07,0.98,0.49,1.83,0.79,869.98,30.75
5261144,-0.05,-0.06,0.98,0.37,2.2,0.92,870.02,30.74
5261183,-0.05,-0.05,0.98,0.49,2.5,1.04,870.03,30.73
5261232,-0.05,-0.06,0.97,0.55,2.81,0.92,869.96,30.7
5261271,-0.05,-0.07,0.96,0.49,2.99,1.04,870.04,30.72
5261309,-0.04,-0.06,0.95,0.61,3.17,1.04,870.03,30.73
5261347,-0.03,-0.06,0.95,0.31,2.69,1.04,870.08,30.73
5261385,-0.04,-0.06,0.95,0.49,2.2,1.16,870.07,30.73
5261423,-0.05,-0.07,0.96,0.43,2.26,1.22,870.05,30.73
5261461,-0.04,-0.06,0.95,0.31,1.53,1.34,870.05,30.72
5261499,-0.05,-0.06,0.97,0.55,0.85,1.28,870.05,30.72
5261537,-0.04,-0.07,0.94,0.18,1.22,1.4,870.04,30.73
5261576,-0.05,-0.06,0.96,0.12,0.43,1.53,870.1,30.73
5261625,-0.05,-0.06,0.95,0.31,0.43,1.53,870.03,30.71
5261663,-0.06,-0.06,0.99,0.06,-0.49,1.71,870.05,30.72
5261702,-0.05,-0.06,1.01,-0.06,-0.24,1.71,870.03,30.71
5261740,-0.04,-0.06,1.03,-0.18,-0.55,1.71,870.05,30.72
5261778,-0.05,-0.05,1.03,0.24,0.06,1.77,870.07,30.72
5261816,-0.05,-0.05,1.07,0.18,-0.49,1.95,870.01,30.72
5261854,-0.05,-0.05,1.06,0.55,0.43,1.95,870.05,30.7
5261892,-0.05,-0.05,1.05,0.92,0.98,2.01,870.03,30.72
5261930,-0.07,-0.05,1.08,1.4,1.71,1.95,870.09,30.7
5261980,-0.06,-0.05,1.05,1.53,2.44,1.83,870.09,30.68
5262018,-0.05,-0.06,1.04,1.89,1.59,2.01,870.08,30.7
5262056,-0.04,-0.06,1.08,2.08,1.53,2.2,870.0,30.69
5262095,-0.05,-0.07,1.04,1.89,2.62,2.14,870.1,30.7
5262133,-0.06,-0.05,1.04,1.89,2.14,2.32,870.07,30.71
5262171,-0.05,-0.05,1.06,1.89,1.53,2.38,870.09,30.71
5262209,-0.05,-0.07,1.01,1.89,1.53,2.38,870.13,30.7
5262247,-0.05,-0.05,1.04,1.83,1.46,2.56,870.13,30.71
5262285,-0.05,-0.06,1.0,1.77,1.65,2.69,870.09,30.7
5262324,-0.06,-0.06,0.99,1.65,0.67,2.75,870.08,30.72
5262399,-0.04,-0.06,0.99,1.53,0.31,3.05,870.07,30.68
5262437,-0.05,-0.05,1.01,1.4,0.31,3.05,870.02,30.7
5262476,-0.05,-0.09,1.0,1.1,0.43,3.11,870.04,30.68
5262641,-0.04,-0.06,1.05,0.24,1.22,3.3,870.15,30.64
5262679,-0.04,-0.05,1.06,0.37,1.22,3.36,870.11,30.65
5262717,-0.05,-0.06,1.04,0.43,1.22,3.36,870.15,30.66
5262755,-0.04,-0.06,1.06,0.31,1.65,3.42,870.09,30.65
5262793,-0.04,-0.06,1.05,0.43,1.59,3.36,870.12,30.67
5262831,-0.04,-0.06,1.03,0.43,1.28,3.42,870.14,30.68
5262881,-0.04,-0.06,1.02,0.49,1.59,3.42,870.11,30.68
5262919,-0.05,-0.06,1.01,0.67,1.65,3.48,870.17,30.69
5262957,-0.03,-0.06,1.02,0.49,1.59,3.36,870.15,30.69
5262995,-0.03,-0.07,1.04,0.67,1.71,3.36,870.12,30.7
5263034,-0.04,-0.06,1.04,0.67,2.38,3.3,870.14,30.7
5263072,-0.04,-0.07,1.03,0.67,2.81,3.17,870.2,30.71
5263110,-0.04,-0.06,1.02,0.49,3.3,3.11,870.15,30.7
5263148,-0.04,-0.06,1.0,0.43,3.3,3.05,870.17,30.71
5263186,-0.04,-0.06,0.99,0.37,3.72,3.17,870.19,30.7
5263224,-0.05,-0.06,1.02,0.61,3.6,3.05,870.19,30.71
5263274,-0.05,-0.07,1.01,0.67,3.78,3.05,870.16,30.72
5263312,-0.04,-0.06,1.03,0.61,3.48,3.05,870.16,30.71
5263351,-0.04,-0.06,1.04,0.67,3.85,3.23,870.1,30.72
5263389,-0.05,-0.06,1.01,0.73,3.48,3.3,870.18,30.71
5263427,-0.05,-0.06,1.03,0.92,3.91,3.3,870.14,30.72
5263465,-0.05,-0.06,1.01,0.98,3.91,3.48,870.14,30.71
5263503,-0.06,-0.06,0.98,1.28,3.36,3.54,870.16,30.71
5263541,-0.06,-0.06,0.98,1.16,3.3,3.66,870.17,30.7
5263579,-0.04,-0.07,0.98,1.28,2.93,3.72,870.13,30.7
5263617,-0.04,-0.06,0.98,1.4,2.2,3.78,870.13,30.72
5263667,-0.05,-0.07,0.99,1.28,2.5,3.85,870.12,30.7
5263705,-0.05,-0.07,0.99,1.28,2.38,4.09,870.15,30.7
5263744,-0.05,-0.07,0.97,1.28,2.62,4.09,870.16,30.7
5263782,-0.05,-0.07,0.99,1.28,2.26,3.91,870.18,30.69
5263820,-0.06,-0.07,0.97,1.04,2.38,4.21,870.19,30.69
5263858,-0.05,-0.07,0.96,1.16,2.08,4.21,870.16,30.7
5263896,-0.05,-0.07,0.98,1.16,2.01,4.09,870.15,30.69
5263934,-0.05,-0.07,0.97,0.98,2.32,4.33,870.18,30.7
5263973,-0.05,-0.06,0.99,1.1,1.95,4.27,870.11,30.69
5264022,-0.06,-0.07,0.98,1.16,2.69,4.21,870.17,30.68
5264061,-0.06,-0.07,0.96,1.34,2.2,4.33,870.13,30.68
5264099,-0.05,-0.06,1.0,1.53,2.5,4.33,870.16,30.69
5264137,-0.04,-0.07,0.99,1.77,2.62,4.39,870.18,30.69
5264175,-0.05,-0.07,0.99,1.83,2.93,4.52,870.18,30.69
5264213,-0.04,-0.07,0.98,2.2,2.99,4.64,870.19,30.7
5264251,-0.06,-0.08,0.96,2.01,2.87,4.64,870.21,30.7
5264289,-0.04,-0.08,0.94,2.38,2.44,4.7,870.14,30.7
5264328,-0.03,-0.07,0.95,2.2,2.44,4.52,870.18,30.69
5264366,-0.04,-0.07,0.94,2.01,3.05,4.7,870.17,30.7
5264415,-0.03,-0.08,0.94,1.95,2.69,4.58,870.12,30.69
5264454,-0.06,-0.08,0.94,1.95,2.44,4.64,870.14,30.7
5264492,-0.05,-0.07,0.97,1.89,2.62,4.58,870.12,30.7
5264530,-0.05,-0.08,0.95,1.65,3.36,4.64,870.12,30.7
5264568,-0.05,-0.06,0.93,1.34,3.05,4.52,870.17,30.7
5264606,-0.05,-0.07,0.95,1.46,4.03,4.58,870.16,30.7
5264644,-0.04,-0.08,0.93,1.22,4.27,4.58,870.2,30.7
5264682,-0.06,-0.07,0.95,1.28,3.66,4.46,870.18,30.72
5264721,-0.05,-0.08,0.93,1.46,3.97,4.7,870.22,30.72
5264759,-0.04,-0.07,0.97,1.22,3.05,4.82,870.22,30.71
5264808,-0.04,-0.08,0.99,0.92,2.44,4.88,870.12,30.7
5264847,-0.05,-0.08,0.95,0.98,2.26,4.88,870.16,30.7
5264885,-0.03,-0.08,0.95,0.61,2.08,4.94,870.2,30.7
5264923,-0.04,-0.07,0.94,0.85,2.32,4.82,870.23,30.71
5264961,-0.05,-0.08,0.9,0.61,2.44,4.94,870.21,30.71
5264999,-0.05,-0.07,0.95,0.49,2.56,4.88,870.2,30.71
5265037,-0.03,-0.08,0.95,0.37,2.81,4.76,870.23,30.71
5265076,-0.04,-0.08,0.94,0.06,2.75,4.88,870.17,30.7
5265114,-0.03,-0.07,0.96,0.18,2.75,4.7,870.19,30.7
5265164,-0.03,-0.07,0.93,-0.24,3.11,4.58,870.26,30.71
5265202,-0.05,-0.06,0.98,0.0,2.69,4.52,870.23,30.71
5265240,-0.04,-0.08,0.96,-0.31,2.99,4.39,870.25,30.7
5265278,-0.04,-0.07,1.01,-0.37,2.99,4.46,870.25,30.7
5265316,-0.02,-0.07,1.02,-0.37,3.54,4.46,870.31,30.7
5265354,-0.04,-0.08,1.0,0.0,3.05,4.33,870.29,30.71
5265392,-0.05,-0.07,1.03,-0.18,2.81,4.27,870.35,30.7
5265431,-0.04,-0.07,1.0,0.0,3.23,4.39,870.23,30.68
5265469,-0.04,-0.07,1.03,0.24,3.17,4.46,870.24,30.69
