timestamp,acc_x,acc_y,acc_z,rot_x,rot_y,rot_z,qfe,temp,Unnamed: 10
4903528,-0.03,-0.07,0.89,3.05,0.49,1.77,911.78,21.91,
4903567,-0.02,-0.07,0.89,2.93,0.61,1.77,911.75,21.92,
4903605,-0.02,-0.07,0.91,3.11,1.04,1.77,911.79,21.9,
4903643,-0.01,-0.07,0.89,2.99,1.04,1.65,911.83,21.93,
4903682,-0.02,-0.07,0.89,3.05,0.92,1.77,911.81,21.9,
4903732,-0.03,-0.07,0.87,2.99,1.28,1.71,911.76,21.9,
4903770,-0.02,-0.07,0.88,2.87,1.53,1.77,911.75,21.91,
4903808,-0.02,-0.07,0.88,2.56,1.46,1.71,911.71,21.9,
4903847,-0.03,-0.07,0.89,2.69,1.4,1.59,911.75,21.9,
4903885,-0.03,-0.07,0.9,2.08,1.59,1.77,911.74,21.91,
4903923,-0.02,-0.06,0.93,2.14,1.4,1.65,911.74,21.91,
4903962,-0.02,-0.06,0.93,2.01,1.77,1.77,911.69,21.91,
4904000,-0.02,-0.06,0.93,2.01,1.95,1.53,911.73,21.91,
4904038,-0.02,-0.06,0.96,1.77,2.44,1.71,911.78,21.91,
4904076,-0.02,-0.06,0.95,1.83,2.44,1.59,911.8,21.91,
4904153,-0.03,-0.06,0.97,2.32,2.69,1.59,911.79,21.89,
4904191,-0.02,-0.06,0.95,2.75,2.93,1.59,911.74,21.9,
4904229,-0.02,-0.06,0.96,2.99,3.17,1.65,911.75,21.91,
4904319,-0.02,-0.06,0.92,3.54,3.42,1.77,911.74,21.86,
4904358,-0.03,-0.06,0.92,3.85,3.36,1.89,911.75,21.88,
4904396,-0.02,-0.06,0.91,3.72,4.03,1.83,911.76,21.88,
4904434,-0.02,-0.06,0.88,3.6,3.6,2.01,911.75,21.91,
4904472,-0.02,-0.06,0.89,3.6,3.17,1.77,911.74,21.89,
4904511,-0.03,-0.06,0.86,3.54,3.48,2.01,911.78,21.9,
4904549,-0.02,-0.06,0.87,3.48,3.11,1.95,911.79,21.9,
4904599,-0.03,-0.07,0.87,3.17,3.42,1.83,911.75,21.89,
4904638,-0.02,-0.06,0.87,3.23,3.23,1.89,911.74,21.9,
4904676,-0.02,-0.06,0.85,3.05,3.48,1.95,911.71,21.89,
4904714,-0.02,-0.06,0.87,2.93,3.42,1.95,911.8,21.89,
4904752,-0.02,-0.06,0.88,3.05,3.66,2.01,911.78,21.9,
4904791,-0.02,-0.07,0.88,2.99,3.72,2.14,911.79,21.91,
4904829,-0.01,-0.07,0.89,3.17,3.91,1.95,911.72,21.9,
4904867,-0.02,-0.06,0.87,3.05,3.6,2.01,911.74,21.9,
4904906,-0.02,-0.07,0.85,2.87,3.66,1.95,911.77,21.91,
4904956,-0.01,-0.06,0.87,2.99,3.54,2.01,911.78,21.9,
4904994,-0.02,-0.07,0.82,2.81,4.03,1.89,911.83,21.92,
4905032,-0.01,-0.06,0.84,3.17,3.17,1.89,911.83,21.92,
4905071,-0.02,-0.06,0.81,3.05,3.6,1.95,911.75,21.91,
4905109,-0.01,-0.06,0.81,2.99,2.93,1.95,911.84,21.92,
4905147,-0.02,-0.07,0.82,2.93,2.93,1.83,911.81,21.92,
4905186,-0.02,-0.07,0.8,2.56,3.42,1.95,911.75,21.91,
4905224,-0.02,-0.06,0.84,2.75,2.81,1.83,911.8,21.93,
4905262,-0.02,-0.06,0.82,2.14,3.23,1.89,911.83,21.92,
4905301,-0.02,-0.06,0.84,2.2,2.5,1.83,911.81,21.92,
4905351,-0.02,-0.06,0.85,1.89,2.87,1.95,911.83,21.91,
4905389,-0.01,-0.06,0.87,1.89,2.62,1.71,911.79,21.91,
4905427,-0.02,-0.06,0.87,1.95,2.81,1.89,911.88,21.93,
4905466,-0.02,-0.06,0.87,1.89,2.62,1.83,911.86,21.91,
4905504,-0.02,-0.06,0.87,2.14,2.87,1.89,911.9,21.92,
4905542,-0.01,-0.06,0.87,2.26,2.93,1.89,911.89,21.91,
4905581,-0.02,-0.06,0.9,2.32,2.69,1.59,911.91,21.93,
4905619,-0.01,-0.06,0.89,2.44,3.11,1.71,911.91,21.92,
4905657,-0.01,-0.06,0.9,2.56,2.75,1.53,911.96,21.92,
4905707,-0.01,-0.06,0.93,2.69,2.75,1.77,911.94,21.92,
4905746,-0.01,-0.06,0.91,2.69,2.75,1.65,911.99,21.91,
4905784,-0.01,-0.06,0.92,2.75,2.56,1.4,911.99,21.92,
4905822,-0.02,-0.06,0.91,2.62,2.5,1.28,911.97,21.91,
4905860,-0.01,-0.06,0.91,2.5,2.32,1.34,911.97,21.9,
4905899,-0.01,-0.06,0.92,2.44,2.14,1.22,911.9,21.91,
4905937,-0.01,-0.06,0.92,2.5,2.26,1.4,911.91,21.91,
4905975,-0.01,-0.06,0.95,2.56,2.32,1.22,911.98,21.92,
4906014,-0.0,-0.06,0.96,2.5,2.38,1.4,911.92,21.9,
4906052,-0.01,-0.06,0.99,2.5,1.65,1.16,912.02,21.92,
4906102,-0.01,-0.06,1.01,2.44,1.83,1.04,912.02,21.9,
4906140,-0.0,-0.06,1.02,2.44,1.46,1.1,911.98,21.9,
4906179,-0.01,-0.05,1.03,2.5,1.4,0.79,912.02,21.9,
4906217,-0.02,-0.05,1.03,2.5,1.4,0.79,912.01,21.89,
4906255,-0.01,-0.05,1.04,2.32,1.53,0.92,912.06,21.9,
4906293,-0.01,-0.05,1.04,2.56,1.28,0.85,912.04,21.9,
4906332,-0.01,-0.06,1.05,2.56,1.59,0.61,912.07,21.9,
4906370,0.01,-0.05,1.07,2.81,1.59,0.55,912.06,21.89,
4906408,-0.0,-0.05,1.06,2.87,2.38,0.43,912.02,21.88,
4906447,-0.01,-0.05,1.07,3.05,2.5,0.49,912.05,21.89,
4906497,-0.01,-0.05,1.07,3.05,2.99,0.24,912.08,21.9,
4906535,-0.03,-0.05,1.09,3.17,2.93,0.37,912.11,21.9,
4906573,-0.0,-0.06,1.06,2.99,3.11,0.31,912.07,21.89,
4906612,-0.01,-0.05,1.07,3.17,2.38,0.24,912.12,21.9,
4906650,-0.01,-0.05,1.07,3.11,2.75,0.18,912.11,21.9,
4906688,-0.01,-0.05,1.02,2.81,2.69,0.18,912.11,21.9,
4906727,-0.02,-0.05,1.02,3.23,2.32,0.24,912.09,21.9,
4906765,-0.02,-0.07,1.0,3.17,2.5,0.12,912.13,21.89,
4906803,-0.02,-0.06,1.0,3.3,2.26,0.12,912.14,21.92,
4906853,-0.01,-0.06,1.0,2.93,3.17,0.12,912.04,21.89,
4906892,-0.03,-0.05,1.02,3.42,2.81,0.12,912.14,21.91,
4906930,-0.04,-0.06,0.98,2.99,3.54,0.24,912.17,21.91,
4906968,-0.02,-0.05,0.99,2.99,2.5,0.31,912.15,21.92,
4907007,-0.04,-0.06,0.99,3.23,2.75,0.31,912.12,21.93,
4907045,-0.05,-0.07,0.93,2.75,3.91,0.24,912.16,21.92,
4907083,-0.03,-0.06,0.96,3.11,4.09,0.24,912.17,21.91,
4907122,-0.02,-0.06,0.94,2.93,4.52,0.24,912.2,21.91,
4907160,-0.04,-0.06,0.91,2.69,4.58,0.24,912.16,21.92,
4907198,-0.04,-0.06,0.94,2.62,5.55,0.43,912.21,21.92,
4907276,-0.04,-0.06,0.96,2.5,5.74,0.49,912.24,21.88,
4907314,-0.04,-0.07,0.95,2.62,6.23,0.49,912.22,21.9,
4907352,-0.03,-0.06,0.96,2.5,6.65,0.49,912.19,21.9,
4907443,-0.03,-0.04,0.97,2.44,6.47,0.55,912.27,21.88,
4907481,-0.04,-0.06,0.98,2.44,6.59,0.79,912.2,21.89,
4907519,-0.03,-0.06,0.99,2.5,6.59,0.79,912.26,21.9,
4907558,-0.03,-0.06,0.99,2.69,6.04,0.98,912.26,21.9,
4907596,-0.03,-0.06,0.97,2.75,6.04,0.85,912.25,21.9,
4907634,-0.03,-0.06,0.97,2.87,6.23,0.92,912.25,21.89,
4907673,-0.03,-0.06,0.96,2.69,6.1,1.04,912.3,21.91,
4907722,-0.03,-0.06,0.95,2.81,5.86,1.22,912.22,21.89,
4907761,-0.04,-0.06,0.94,2.75,5.8,1.28,912.31,21.91,
4907799,-0.02,-0.07,0.95,2.69,5.74,1.34,912.25,21.91,
4907837,-0.03,-0.06,0.95,2.38,5.37,1.28,912.29,21.92,
4907876,-0.03,-0.07,0.95,2.44,5.07,1.46,912.35,21.91,
4907914,-0.03,-0.07,0.97,2.2,5.25,1.53,912.32,21.9,
4907952,-0.02,-0.06,0.97,2.08,5.49,1.46,912.32,21.91,
4907990,-0.03,-0.06,0.97,1.95,4.82,1.53,912.35,21.91,
4908029,-0.04,-0.06,0.98,1.83,4.64,1.65,912.32,21.9,
4908079,-0.02,-0.06,0.99,1.95,4.82,1.65,912.32,21.89,
4908117,-0.02,-0.06,1.0,2.01,4.58,1.71,912.33,21.89,
4908156,-0.02,-0.07,1.0,2.44,4.33,1.83,912.41,21.9,
4908194,-0.02,-0.06,1.0,2.38,4.15,1.83,912.34,21.9,
4908232,-0.02,-0.06,1.0,2.62,3.54,1.71,912.39,21.9,
4908270,-0.03,-0.07,1.0,2.87,3.54,1.77,912.43,21.9,
4908309,-0.02,-0.07,0.98,2.81,3.48,1.65,912.4,21.91,
4908347,-0.02,-0.06,0.98,2.75,3.17,1.89,912.41,21.9,
4908385,-0.02,-0.06,0.97,2.87,3.11,1.77,912.42,21.9,
4908424,-0.02,-0.07,0.96,2.75,3.11,1.77,912.44,21.9,
4908474,-0.03,-0.07,0.97,2.56,2.87,1.71,912.45,21.9,
4908512,-0.03,-0.07,0.96,2.44,2.81,1.89,912.44,21.89,
4908550,-0.02,-0.07,0.97,2.44,2.87,1.53,912.49,21.91,
4908589,-0.01,-0.07,0.94,2.2,2.93,1.59,912.45,21.9,
4908627,-0.02,-0.07,0.96,2.2,2.56,1.65,912.52,21.91,
4908665,-0.01,-0.07,0.94,2.14,3.11,1.53,912.51,21.91,
4908704,-0.03,-0.07,0.95,2.38,3.23,1.65,912.47,21.91,
4908742,-0.02,-0.07,0.97,2.2,3.72,1.46,912.49,21.93,
4908780,-0.01,-0.08,0.97,2.14,4.15,1.22,912.47,21.92,
4908819,-0.03,-0.07,0.99,2.2,4.27,1.28,912.48,21.91,
4908869,-0.02,-0.07,0.98,2.14,4.82,1.4,912.51,21.91,
4908907,-0.02,-0.07,1.0,2.08,4.94,1.16,912.49,21.91,
4908945,-0.02,-0.07,1.0,1.95,5.37,1.28,912.56,21.92,
4908983,-0.02,-0.07,1.0,2.2,4.82,1.28,912.51,21.92,
4909022,-0.02,-0.07,0.99,2.2,4.82,1.1,912.59,21.9,
4909060,-0.01,-0.07,0.97,2.14,4.52,1.28,912.56,21.9,
4909098,-0.01,-0.08,0.99,2.2,4.46,1.1,912.55,21.92,
4909136,-0.01,-0.08,0.98,2.26,4.39,1.22,912.59,21.91,
4909175,-0.02,-0.07,0.97,2.14,4.27,1.04,912.54,21.92,
4909225,-0.01,-0.07,0.98,2.01,4.27,1.1,912.6,21.91,
4909263,-0.01,-0.07,0.99,1.83,4.09,0.85,912.6,21.91,
4909302,-0.02,-0.07,0.98,1.95,4.58,1.04,912.65,21.91,
4909340,-0.02,-0.08,1.0,1.95,4.88,0.98,912.62,21.91,
4909378,-0.01,-0.07,1.0,1.83,5.13,0.92,912.69,21.91,
4909416,-0.0,-0.07,1.01,1.95,4.76,0.79,912.68,21.92,
4909455,-0.01,-0.07,1.01,1.83,4.94,0.92,912.63,21.91,
4909493,-0.02,-0.08,0.99,1.83,5.25,0.79,912.7,21.91,
4909531,-0.0,-0.07,1.03,2.01,5.25,0.67,912.74,21.91,
4909570,0.0,-0.07,1.01,1.71,5.37,0.73,912.71,21.92,
4909620,-0.01,-0.06,1.03,1.89,4.82,0.61,912.73,21.9,
4909658,0.0,-0.07,1.0,1.77,6.1,0.43,912.69,21.9,
4909696,-0.01,-0.08,1.0,1.89,5.31,0.31,912.67,21.91,
4909735,-0.0,-0.08,1.02,1.65,5.37,0.43,912.69,21.9,
4909773,-0.01,-0.08,0.99,1.77,5.43,0.37,912.74,21.9,
4909811,-0.01,-0.08,1.0,1.77,5.55,0.18,912.78,21.9,
4909850,-0.01,-0.08,0.99,1.83,5.43,0.18,912.8,21.92,
4909888,-0.01,-0.08,1.01,1.83,5.37,0.18,912.79,21.91,
4909926,-0.01,-0.08,0.98,1.71,5.92,0.06,912.78,21.91,
4909965,-0.01,-0.07,1.0,1.71,5.98,0.06,912.72,21.91,
4910015,-0.01,-0.08,0.99,2.14,6.16,-0.06,912.83,21.9,
4910053,-0.01,-0.08,0.99,2.01,5.98,-0.12,912.77,21.91,
4910091,-0.0,-0.08,1.0,2.14,6.16,-0.18,912.78,21.9,
4910130,-0.01,-0.07,0.99,1.89,5.74,-0.37,912.79,21.91,
4910168,-0.01,-0.07,1.0,2.08,5.37,-0.37,912.8,21.92,
4910206,0.0,-0.07,1.01,1.95,4.82,-0.43,912.84,21.91,
4910244,-0.01,-0.08,1.02,2.01,4.39,-0.55,912.81,21.91,
4910283,-0.01,-0.08,1.01,1.71,4.09,-0.55,912.81,21.91,
4910321,-0.01,-0.07,1.0,1.89,3.36,-0.73,912.81,21.91,
4910397,-0.0,-0.07,1.0,1.83,2.44,-0.67,912.84,21.89,
4910435,-0.01,-0.08,0.98,1.83,2.26,-1.04,912.87,21.9,
4910473,-0.0,-0.07,0.98,1.95,1.46,-1.16,912.85,21.9,
4910563,-0.02,-0.08,0.98,2.08,0.49,-1.22,912.91,21.87,
4910602,-0.01,-0.08,0.98,1.89,0.24,-1.59,912.88,21.89,
4910640,-0.02,-0.08,0.94,2.08,0.12,-1.59,912.88,21.89,
4910678,-0.02,-0.08,0.94,2.26,-0.37,-1.71,912.88,21.9,
4910717,-0.02,-0.08,0.93,2.26,-0.61,-1.83,912.89,21.9,
4910755,-0.02,-0.08,0.91,2.01,-0.79,-1.77,912.9,21.9,
4910793,-0.02,-0.08,0.89,2.14,-0.43,-1.95,912.9,21.9,
4910843,-0.02,-0.08,0.88,2.2,-0.67,-2.2,912.88,21.88,
4910882,-0.02,-0.08,0.88,2.32,-0.55,-2.32,912.9,21.9,
4910920,-0.03,-0.08,0.85,2.38,-0.61,-2.26,912.92,21.89,
4910958,-0.03,-0.08,0.86,2.38,-0.67,-2.32,912.92,21.9,
4910997,-0.04,-0.08,0.84,2.2,-0.37,-2.32,912.93,21.9,
4911035,-0.03,-0.08,0.84,2.26,-0.49,-2.44,912.9,21.89,
4911073,-0.03,-0.08,0.86,2.2,-0.55,-2.38,912.96,21.9,
4911111,-0.03,-0.08,0.86,2.08,-0.85,-2.62,912.92,21.9,
4911150,-0.04,-0.08,0.88,2.08,-0.98,-2.5,912.92,21.9,
4911200,-0.04,-0.08,0.89,2.14,-0.98,-2.44,912.92,21.89,
4911238,-0.04,-0.08,0.9,1.89,-1.16,-2.38,912.98,21.9,
4911276,-0.05,-0.08,0.91,2.26,-0.79,-2.44,913.0,21.9,
4911315,-0.06,-0.08,0.91,2.26,-0.67,-2.32,912.96,21.91,
4911353,-0.06,-0.08,0.91,2.44,-0.43,-2.2,913.0,21.9,
4911391,-0.06,-0.08,0.9,2.32,-0.43,-2.14,912.94,21.89,
4911430,-0.06,-0.08,0.91,2.5,-0.49,-1.95,913.0,21.9,
4911468,-0.06,-0.08,0.91,2.5,-0.18,-2.01,913.02,21.91,
4911506,-0.05,-0.08,0.92,2.75,-0.43,-1.71,913.03,21.9,
4911556,-0.06,-0.08,0.93,2.62,-0.43,-1.53,913.04,21.9,
4911595,-0.06,-0.08,0.96,2.93,-0.55,-1.53,912.99,21.9,
4911633,-0.06,-0.08,0.96,2.81,-0.55,-1.46,913.04,21.9,
4911671,-0.07,-0.08,0.94,2.69,-0.61,-1.4,913.06,21.91,
4911710,-0.06,-0.07,0.94,2.93,-0.67,-1.16,913.09,21.91,
4911748,-0.06,-0.07,0.93,3.05,-0.92,-0.92,913.04,21.9,
4911786,-0.06,-0.07,0.91,3.11,-1.16,-0.73,913.06,21.91,
4911824,-0.06,-0.08,0.89,2.93,-1.16,-0.67,913.08,21.91,
4911863,-0.06,-0.08,0.89,3.3,-1.22,-0.49,913.08,21.9,
4911901,-0.05,-0.08,0.87,2.99,-1.59,-0.43,913.11,21.92,
4911951,-0.06,-0.08,0.89,3.05,-1.89,-0.18,913.14,21.89,
4911989,-0.06,-0.07,0.87,2.99,-2.26,0.0,913.2,21.9,
4912028,-0.06,-0.08,0.88,3.11,-2.32,0.0,913.2,21.89,
4912066,-0.07,-0.07,0.87,2.87,-2.08,0.18,913.24,21.91,
4912104,-0.05,-0.08,0.89,3.11,-2.2,0.18,913.15,21.9,
4912143,-0.07,-0.08,0.88,2.81,-2.26,0.31,913.2,21.89,
4912181,-0.08,-0.08,0.91,2.93,-2.5,0.37,913.22,21.9,
4912219,-0.06,-0.08,0.88,2.69,-1.77,0.55,913.23,21.9,
4912258,-0.06,-0.07,0.93,2.93,-2.5,0.49,913.24,21.89,
4912308,-0.08,-0.08,0.91,2.62,-1.95,0.73,913.27,21.89,
4912346,-0.08,-0.08,0.97,2.93,-2.26,0.79,913.28,21.9,
4912384,-0.07,-0.08,0.94,2.81,-1.89,0.98,913.3,21.9,
4912423,-0.07,-0.07,0.98,2.99,-2.62,1.28,913.37,21.92,
4912461,-0.07,-0.08,0.96,2.56,-2.01,1.34,913.31,21.91,
4912499,-0.08,-0.07,0.96,2.87,-2.56,1.46,913.29,21.9,
4912537,-0.09,-0.08,0.99,2.99,-2.87,1.71,913.36,21.9,
4912576,-0.06,-0.08,1.0,2.93,-2.32,1.71,913.37,21.91,
4912614,-0.07,-0.08,0.99,2.93,-2.08,2.01,913.42,21.92,
4912652,-0.07,-0.07,1.0,3.11,-2.26,2.26,913.36,21.91,
4912703,-0.08,-0.07,0.96,2.93,-1.71,2.56,913.39,21.9,
4912741,-0.08,-0.07,0.99,3.17,-1.71,2.5,913.42,21.9,
4912779,-0.07,-0.08,0.96,2.93,-1.28,2.93,913.41,21.9,
4912817,-0.07,-0.09,1.0,3.3,-1.65,2.81,913.45,21.9,
4912856,-0.07,-0.09,0.96,3.17,-1.59,3.05,913.47,21.91,
4912894,-0.07,-0.08,0.93,3.36,-1.95,3.17,913.48,21.89,
4912932,-0.06,-0.08,0.89,3.48,-1.95,3.48,913.51,21.91,
4912971,-0.06,-0.09,0.84,3.42,-2.26,3.66,913.49,21.89,
4913009,-0.06,-0.09,0.81,3.48,-3.36,3.72,913.47,21.9,
4913059,-0.07,-0.08,0.79,3.66,-4.09,3.91,913.59,21.88,
4913098,-0.06,-0.09,0.78,3.42,-4.58,4.03,913.57,21.89,
4913136,-0.03,-0.08,0.77,2.99,-5.19,4.15,913.51,21.87,
4913174,-0.04,-0.08,0.81,2.75,-5.31,4.21,913.56,21.9,
4913213,-0.07,-0.09,0.76,2.5,-5.8,4.52,913.6,21.89,
4913251,-0.05,-0.09,0.79,1.83,-6.65,4.46,913.61,21.89,
4913289,-0.04,-0.09,0.79,1.4,-5.98,4.52,913.62,21.9,
4913328,-0.06,-0.09,0.78,0.73,-6.35,4.64,913.63,21.89,
4913366,-0.06,-0.09,0.86,0.55,-7.02,4.64,913.68,21.89,
4913404,-0.05,-0.1,0.85,-0.06,-5.86,4.64,913.69,21.9,
4913480,-0.05,-0.09,0.94,-0.79,-5.25,5.0,913.73,21.87,
4913519,-0.04,-0.1,0.94,-1.28,-5.68,4.88,913.81,21.88,
4913557,-0.05,-0.08,1.02,-1.1,-6.1,4.94,913.75,21.89,
4913647,-0.02,-0.08,1.16,-1.1,-5.98,4.88,913.88,21.86,
4913685,-0.03,-0.09,1.16,-1.59,-4.52,4.88,913.94,21.89,
4913724,-0.03,-0.08,1.24,-1.22,-5.07,4.88,913.95,21.88,
4913762,-0.05,-0.09,1.27,-0.92,-4.64,4.94,913.92,21.88,
4913800,-0.04,-0.09,1.25,-0.67,-4.64,4.88,913.95,21.88,
4913838,-0.05,-0.08,1.27,-0.55,-5.31,4.94,913.98,21.89,
4913888,-0.03,-0.09,1.21,0.12,-5.25,4.82,914.05,21.89,
4913927,-0.03,-0.08,1.23,0.31,-5.31,4.76,914.04,21.89,
4913965,-0.03,-0.09,1.23,0.49,-4.39,4.82,914.09,21.89,
4914003,-0.05,-0.09,1.24,0.43,-5.13,4.88,914.05,21.9,
4914042,-0.05,-0.09,1.3,0.31,-4.88,4.76,914.07,21.9,
4914080,-0.04,-0.1,1.3,0.06,-5.74,4.82,914.05,21.9,
4914118,-0.04,-0.08,1.3,0.18,-6.53,4.88,914.11,21.89,
4914157,-0.03,-0.09,1.26,-0.06,-6.65,5.07,914.07,21.9,
4914195,-0.05,-0.1,1.21,-0.24,-6.41,5.07,914.13,21.9,
4914245,-0.06,-0.09,1.21,-0.24,-6.71,4.94,914.17,21.91,
4914283,-0.06,-0.1,1.2,-0.55,-5.8,5.13,914.13,21.9,
4914322,-0.06,-0.09,1.18,-0.85,-5.31,5.19,914.14,21.9,
4914360,-0.05,-0.09,1.21,-1.16,-4.27,5.07,914.16,21.92,
4914398,-0.04,-0.09,1.21,-1.34,-3.48,5.37,914.21,21.92,
4914437,-0.04,-0.09,1.21,-1.95,-3.66,5.49,914.21,21.91,
4914475,-0.06,-0.08,1.24,-2.69,-3.66,5.49,914.23,21.9,
4914513,-0.07,-0.1,1.25,-3.11,-2.75,5.55,914.18,21.92,
4914552,-0.05,-0.09,1.25,-3.66,-2.01,5.55,914.26,21.91,
4914590,-0.04,-0.09,1.31,-3.72,-2.56,5.55,914.24,21.92,
4914640,-0.05,-0.09,1.31,-4.46,-2.56,5.8,914.31,21.91,
4914678,-0.03,-0.08,1.39,-4.33,-1.89,5.86,914.33,21.91,
4914717,-0.05,-0.1,1.4,-4.7,-1.65,5.86,914.32,21.92,
4914755,-0.04,-0.08,1.43,-5.0,-2.01,5.92,914.38,21.91,
4914793,-0.06,-0.09,1.43,-5.19,-0.92,5.98,914.36,21.91,
4914832,-0.04,-0.09,1.42,-5.31,-0.31,5.8,914.4,21.92,
4914870,-0.03,-0.08,1.42,-5.74,0.31,5.74,914.33,21.92,
4914908,-0.04,-0.08,1.4,-6.16,1.65,5.74,914.4,21.92,
4914946,-0.03,-0.08,1.44,-6.04,2.87,5.8,914.39,21.92,
4914997,-0.02,-0.09,1.46,-6.23,4.03,5.8,914.35,21.91,
4915035,-0.04,-0.09,1.51,-5.98,3.72,5.8,914.44,21.9,
4915073,-0.05,-0.1,1.45,-5.92,4.21,5.74,914.45,21.91,
4915111,-0.03,-0.08,1.45,-5.37,4.46,5.68,914.43,21.91,
4915150,-0.02,-0.09,1.39,-5.31,5.55,5.86,914.42,21.92,
4915188,-0.04,-0.09,1.34,-5.43,5.07,5.62,914.5,21.93,
4915226,-0.03,-0.08,1.38,-5.19,4.27,5.92,914.37,21.91,
4915265,-0.02,-0.1,1.37,-5.13,4.76,5.74,914.46,21.93,
4915303,-0.01,-0.08,1.42,-5.19,4.03,5.8,914.45,21.91,
4915353,-0.01,-0.09,1.4,-5.0,3.23,5.92,914.42,21.91,
4915391,-0.01,-0.08,1.41,-5.37,2.38,5.8,914.52,21.91,
4915430,-0.01,-0.08,1.43,-5.19,2.26,5.86,914.5,21.93,
4915468,-0.01,-0.08,1.47,-5.0,2.01,5.8,914.45,21.91,
4915506,-0.0,-0.09,1.48,-4.94,0.92,5.68,914.51,21.92,
4915545,0.01,-0.07,1.54,-4.21,0.12,5.43,914.48,21.92,
4915583,-0.01,-0.08,1.53,-3.48,0.31,5.43,914.46,21.91,
4915621,-0.01,-0.08,1.5,-2.38,0.06,5.13,914.55,21.93,
4915660,-0.01,-0.08,1.47,-1.59,0.55,4.88,914.46,21.92,
4915698,-0.02,-0.08,1.42,-0.79,0.0,4.82,914.48,21.91,
4915748,-0.02,-0.09,1.35,-0.18,0.31,4.52,914.5,21.9,
4915786,-0.03,-0.09,1.36,0.55,-0.31,4.33,914.46,21.92,
4915825,-0.02,-0.09,1.34,0.98,-0.61,4.21,914.47,21.92,
4915863,-0.01,-0.09,1.3,1.22,-1.4,4.09,914.45,21.91,
4915901,-0.03,-0.09,1.25,1.77,-0.73,3.91,914.4,21.92,
4915940,-0.03,-0.09,1.2,2.14,-0.24,3.72,914.43,21.91,
4915978,-0.04,-0.1,1.16,2.5,-1.1,3.85,914.43,21.91,
4916016,-0.05,-0.08,1.07,3.11,-1.04,3.66,914.37,21.92,
4916054,-0.06,-0.08,1.01,3.23,-0.67,3.66,914.37,21.9,
4916105,-0.04,-0.08,1.0,3.6,-1.04,3.72,914.43,21.9,
4916143,-0.05,-0.1,0.93,3.6,-0.67,3.78,914.36,21.91,
4916181,-0.06,-0.09,0.89,3.48,-0.43,3.85,914.33,21.9,
4916220,-0.06,-0.1,0.86,3.6,0.0,3.91,914.34,21.89,
4916258,-0.05,-0.09,0.81,2.44,0.06,4.09,914.31,21.9,
4916296,-0.05,-0.09,0.8,1.71,-0.06,4.21,914.28,21.89,
4916334,-0.07,-0.1,0.8,0.67,0.43,4.15,914.27,21.9,
4916373,-0.04,-0.1,0.81,-0.06,0.31,4.27,914.27,21.9,
4916411,-0.06,-0.09,0.86,-0.92,-0.18,4.46,914.28,21.9,
4916449,-0.05,-0.09,0.9,-1.28,-0.79,4.7,914.27,21.9,
4916525,-0.07,-0.09,0.97,-2.14,-2.38,4.7,914.26,21.87,
4916564,-0.04,-0.09,0.99,-2.38,-2.32,4.94,914.27,21.89,
4916602,-0.05,-0.08,1.04,-2.14,-3.66,5.0,914.27,21.9,
4916692,-0.05,-0.1,1.14,-1.22,-3.6,5.19,914.29,21.87,
4916730,-0.07,-0.09,1.14,-0.67,-2.99,5.37,914.27,21.87,
4916768,-0.06,-0.08,1.13,-0.18,-3.66,5.31,914.29,21.88,
4916807,-0.07,-0.08,1.09,0.31,-3.42,5.55,914.31,21.88,
4916845,-0.05,-0.09,1.07,0.49,-3.17,5.49,914.3,21.89,
4916884,-0.06,-0.09,1.07,0.43,-2.32,5.62,914.21,21.89,
4916934,-0.06,-0.09,1.04,0.12,-2.08,5.68,914.22,21.87,
4916972,-0.07,-0.09,1.05,-0.24,-1.65,5.74,914.24,21.88,
4917010,-0.07,-0.1,1.04,-0.61,-0.73,5.92,914.18,21.88,
4917048,-0.06,-0.09,1.07,-0.98,-1.04,6.23,914.2,21.89,
4917087,-0.06,-0.09,1.05,-1.22,-0.55,6.35,914.21,21.9,
4917125,-0.06,-0.09,1.03,-1.53,-0.92,6.53,914.26,21.89,
4917163,-0.06,-0.09,1.03,-1.59,-1.1,6.77,914.24,21.89,
4917202,-0.06,-0.08,1.03,-1.83,-1.46,7.02,914.22,21.9,
4917240,-0.06,-0.08,1.05,-1.83,-1.83,7.14,914.15,21.88,
4917278,-0.07,-0.09,1.06,-2.01,-1.71,7.32,914.2,21.89,
4917328,-0.06,-0.08,1.1,-1.95,-1.46,7.45,914.25,21.89,
4917367,-0.06,-0.09,1.13,-2.38,-1.04,7.57,914.17,21.9,
4917405,-0.06,-0.09,1.16,-2.38,-0.55,7.81,914.22,21.91,
4917443,-0.07,-0.07,1.15,-2.32,0.12,8.06,914.2,21.9,
4917482,-0.06,-0.07,1.18,-2.08,1.04,8.18,914.2,21.89,
4917520,-0.06,-0.09,1.14,-2.2,1.95,8.42,914.25,21.89,
4917558,-0.06,-0.07,1.15,-1.65,1.59,8.48,914.23,21.9,
4917597,-0.06,-0.09,1.13,-1.59,2.2,8.73,914.2,21.9,
4917635,-0.06,-0.09,1.12,-1.59,1.77,8.85,914.25,21.89,
4917685,-0.05,-0.08,1.11,-1.59,1.1,9.28,914.22,21.87,
4917723,-0.06,-0.08,1.09,-1.34,1.28,9.4,914.23,21.89,
4917762,-0.04,-0.09,1.11,-1.28,1.22,9.58,914.22,21.89,
4917800,-0.04,-0.09,1.12,-1.28,0.85,9.64,914.21,21.87,
4917838,-0.05,-0.08,1.08,-1.53,0.61,10.01,914.18,21.87,
4917877,-0.04,-0.08,1.11,-1.53,0.61,10.07,914.2,21.88,
4917915,-0.03,-0.09,1.08,-1.59,1.4,10.01,914.16,21.88,
4917953,-0.03,-0.08,1.08,-1.59,0.73,9.95,914.27,21.88,
4917992,-0.04,-0.09,1.08,-1.46,1.16,10.07,914.22,21.87,
4918042,-0.01,-0.09,1.08,-1.71,1.04,10.07,914.2,21.87,
4918080,-0.02,-0.08,1.1,-1.83,1.34,9.95,914.21,21.88,
4918118,-0.03,-0.09,1.08,-1.89,1.4,9.95,914.21,21.88,
4918157,-0.01,-0.08,1.1,-2.01,1.46,9.58,914.21,21.88,
4918195,-0.01,-0.09,1.1,-2.01,1.89,9.7,914.2,21.88,
4918233,-0.01,-0.09,1.11,-2.01,1.46,9.64,914.26,21.89,
4918272,-0.02,-0.08,1.13,-1.95,1.4,9.64,914.2,21.88,
4918310,-0.0,-0.08,1.13,-2.14,1.83,9.34,914.19,21.89,
4918348,-0.01,-0.09,1.13,-2.01,1.77,9.34,914.23,21.9,
4918387,-0.01,-0.09,1.1,-2.26,1.77,9.22,914.22,21.89,
4918437,-0.0,-0.09,1.13,-2.14,2.26,9.03,914.16,21.88,
4918475,0.0,-0.09,1.11,-2.2,2.56,8.85,914.14,21.88,
4918513,-0.01,-0.08,1.11,-2.14,2.81,8.91,914.15,21.88,
4918552,0.0,-0.09,1.1,-2.2,3.05,8.48,914.24,21.89,
4918590,0.01,-0.09,1.1,-1.89,2.99,8.3,914.19,21.9,
4918628,0.01,-0.08,1.1,-1.77,2.56,8.18,914.18,21.9,
4918667,-0.0,-0.09,1.1,-1.65,2.08,8.18,914.15,21.9,
4918705,-0.0,-0.08,1.1,-1.53,1.77,7.93,914.22,21.9,
4918743,0.0,-0.09,1.11,-1.28,1.46,7.69,914.16,21.89,
4918793,-0.0,-0.09,1.12,-1.16,1.46,7.57,914.12,21.89,
4918832,-0.0,-0.08,1.13,-1.1,1.65,7.51,914.15,21.9,
4918870,-0.0,-0.09,1.14,-1.1,1.89,7.2,914.21,21.9,
4918908,0.0,-0.09,1.13,-1.1,2.14,7.08,914.17,21.91,
4918947,-0.0,-0.08,1.11,-1.04,2.26,7.02,914.15,21.91,
4918985,-0.01,-0.08,1.12,-0.92,2.32,6.84,914.14,21.9,
4919023,-0.0,-0.09,1.09,-0.73,2.2,6.77,914.14,21.9,
4919062,-0.01,-0.08,1.07,-0.67,2.69,6.65,914.16,21.91,
4919100,-0.01,-0.08,1.04,-0.79,2.87,6.65,914.12,21.91,
4919138,-0.01,-0.09,1.03,-0.67,2.87,6.59,914.13,21.92,
4919188,-0.01,-0.08,1.02,-0.73,3.11,6.35,914.1,21.89,
4919227,-0.01,-0.09,1.0,-0.85,3.91,6.53,914.09,21.9,
4919265,-0.02,-0.08,1.0,-0.92,3.6,6.23,914.08,21.9,
4919303,-0.01,-0.08,1.0,-0.79,3.54,6.35,914.17,21.91,
4919342,-0.02,-0.09,0.99,-0.98,3.23,6.04,914.12,21.9,
4919380,-0.02,-0.08,1.01,-1.04,3.3,6.29,914.1,21.9,
4919418,-0.02,-0.09,1.01,-0.67,3.97,6.23,914.11,21.89,
4919456,-0.01,-0.08,1.01,-0.49,3.48,6.23,914.14,21.9,
4919495,-0.04,-0.08,1.05,0.12,3.66,6.16,914.14,21.91,
4919571,-0.03,-0.09,1.03,0.43,4.21,6.1,914.11,21.88,
4919609,-0.04,-0.07,1.01,0.37,4.27,6.29,914.05,21.88,
4919647,-0.05,-0.09,0.98,0.18,4.52,6.41,914.13,21.89,
4919737,-0.04,-0.08,1.0,-0.73,4.64,6.71,914.1,21.86,
4919776,-0.05,-0.08,1.03,-1.28,4.21,6.77,914.05,21.88,
4919814,-0.04,-0.08,1.09,-1.53,4.7,6.9,914.13,21.88,
4919852,-0.05,-0.09,1.12,-1.59,4.7,7.14,914.07,21.89,
4919891,-0.05,-0.08,1.13,-1.65,4.7,7.32,914.16,21.91,
4919929,-0.05,-0.07,1.13,-1.59,4.33,7.39,914.12,21.9,
4919967,-0.04,-0.07,1.14,-1.53,4.09,7.45,914.12,21.91,
4920017,-0.05,-0.08,1.11,-1.65,3.48,7.63,914.09,21.89,
4920056,-0.06,-0.08,1.07,-1.95,3.42,8.12,914.11,21.89,
4920094,-0.04,-0.08,1.07,-1.95,3.6,8.18,914.09,21.89,
4920132,-0.04,-0.08,1.08,-2.56,3.6,8.3,914.05,21.9,
4920171,-0.03,-0.08,1.11,-2.93,2.87,8.67,914.05,21.89,
4920209,-0.04,-0.09,1.16,-3.42,3.17,8.79,914.02,21.9,
4920247,-0.06,-0.08,1.19,-4.03,2.69,8.79,914.04,21.91,
4920285,-0.05,-0.06,1.26,-4.33,2.01,8.85,914.06,21.9,
4920324,-0.05,-0.07,1.28,-4.33,2.01,8.79,914.11,21.9,
4920362,-0.03,-0.07,1.29,-4.76,2.99,8.79,914.12,21.89,
4920412,-0.03,-0.07,1.33,-4.58,2.93,9.34,914.11,21.9,
4920451,-0.03,-0.07,1.34,-4.27,2.5,9.28,914.14,21.9,
4920489,-0.03,-0.06,1.35,-4.21,2.62,9.4,914.17,21.9,
4920527,-0.03,-0.07,1.33,-3.6,2.44,9.4,914.17,21.9,
4920566,-0.03,-0.07,1.33,-3.23,1.4,9.58,914.16,21.9,
4920604,-0.05,-0.07,1.31,-2.62,1.59,9.52,914.12,21.91,
4920642,-0.03,-0.08,1.28,-2.26,2.26,9.46,914.13,21.91,
4920681,-0.02,-0.08,1.28,-2.14,2.14,9.52,914.11,21.9,
4920719,-0.02,-0.08,1.26,-2.38,2.38,9.58,914.15,21.9,
4920769,-0.03,-0.09,1.2,-2.69,3.11,9.52,914.09,21.9,
4920807,-0.02,-0.08,1.22,-2.75,2.87,9.4,914.06,21.9,
4920846,-0.03,-0.09,1.17,-3.05,3.66,9.52,914.13,21.91,
4920884,-0.02,-0.07,1.2,-3.11,3.91,9.4,914.13,21.91,
4920922,-0.02,-0.08,1.2,-3.54,4.39,9.52,914.11,21.9,
4920960,-0.02,-0.08,1.24,-2.99,3.48,9.34,914.06,21.89,
4920999,-0.02,-0.09,1.21,-3.3,3.72,9.4,914.18,21.91,
4921037,-0.02,-0.08,1.24,-3.17,3.36,9.58,914.15,21.91,
4921075,0.0,-0.08,1.23,-3.36,3.54,9.52,914.1,21.9,
4921126,-0.02,-0.08,1.21,-3.66,2.5,9.52,914.09,21.9,
4921164,-0.02,-0.08,1.18,-3.97,3.05,9.46,914.11,21.9,
4921202,-0.01,-0.09,1.21,-3.72,2.99,9.34,914.12,21.9,
4921240,-0.01,-0.09,1.22,-3.66,2.87,9.4,914.1,21.9,
4921279,-0.01,-0.08,1.23,-3.48,2.56,9.16,914.1,21.9,
4921317,-0.0,-0.08,1.26,-3.17,2.62,9.22,914.12,21.91,
4921355,-0.01,-0.09,1.24,-2.69,2.14,9.22,914.11,21.9,
4921394,-0.02,-0.07,1.25,-2.14,1.53,9.09,914.1,21.91,
4921432,-0.01,-0.08,1.23,-1.65,1.71,8.91,914.09,21.91,
4921470,-0.01,-0.08,1.24,-1.65,1.71,8.79,914.06,21.9,
4921521,-0.01,-0.08,1.22,-1.22,1.53,8.91,914.06,21.89,
4921559,0.01,-0.09,1.23,-1.16,1.22,8.79,914.02,21.9,
4921597,-0.01,-0.09,1.16,-1.46,1.59,8.67,914.07,21.91,
4921636,-0.01,-0.08,1.12,-1.53,1.46,8.67,913.97,21.9,
4921674,-0.01,-0.07,1.14,-2.08,1.4,8.61,913.98,21.91,
4921712,-0.01,-0.09,1.12,-2.44,0.92,8.42,914.01,21.9,
4921751,-0.01,-0.08,1.17,-2.75,0.79,8.54,914.03,21.91,
4921789,0.01,-0.08,1.2,-3.11,0.98,8.36,914.02,21.91,
4921827,0.0,-0.08,1.22,-2.69,1.04,8.24,914.07,21.91,
4921865,-0.0,-0.08,1.24,-2.56,1.04,8.24,914.03,21.9,
4921916,0.0,-0.07,1.25,-1.89,0.79,8.12,914.02,21.89,
4921954,-0.01,-0.09,1.23,-1.34,0.98,7.93,914.01,21.89,
4921992,-0.01,-0.07,1.23,-1.28,0.85,7.81,914.02,21.9,
4922031,-0.01,-0.09,1.17,-0.85,1.77,7.75,914.05,21.9,
4922069,-0.01,-0.08,1.15,-0.43,1.53,7.57,913.98,21.89,
4922107,-0.01,-0.09,1.17,-0.43,2.01,7.63,914.06,21.9,
4922145,0.0,-0.08,1.14,0.0,1.04,7.51,914.03,21.9,
4922184,-0.01,-0.08,1.12,0.43,0.79,7.45,914.01,21.9,
4922222,-0.01,-0.08,1.07,0.73,1.1,7.32,913.99,21.91,
4922272,-0.0,-0.08,1.04,0.92,1.04,7.32,913.9,21.89,
4922310,-0.02,-0.08,1.01,0.79,0.79,7.26,913.96,21.9,
4922349,-0.02,-0.09,0.99,0.43,0.67,7.39,913.87,21.89,
4922387,-0.02,-0.09,0.97,-0.18,1.1,7.32,913.93,21.89,
4922425,-0.01,-0.09,0.98,-0.61,0.73,7.14,913.86,21.89,
4922464,-0.02,-0.08,0.98,-1.04,0.92,7.2,913.94,21.91,
4922502,-0.02,-0.1,0.97,-1.16,1.65,7.14,913.91,21.9,
4922540,-0.02,-0.08,1.0,-1.16,1.34,7.08,913.88,21.9,
4922578,-0.02,-0.09,1.01,-1.46,1.71,7.26,913.89,21.9,
4922617,-0.02,-0.08,1.02,-1.34,1.65,7.14,913.89,21.9,
4922693,-0.02,-0.08,1.04,-1.4,2.38,7.39,913.92,21.89,
4922731,-0.03,-0.08,1.05,-1.16,2.62,7.2,913.89,21.88,
4922769,-0.02,-0.08,1.05,-0.85,2.38,7.26,913.94,21.89,
4922859,-0.01,-0.08,1.01,-0.55,2.93,7.26,913.87,21.86,
4922898,-0.01,-0.08,1.03,-0.43,2.5,7.32,913.86,21.86,
4922936,-0.02,-0.08,1.0,-0.31,2.99,7.32,913.89,21.88,
4922975,-0.02,-0.09,1.0,-0.12,2.32,7.26,913.88,21.88,
4923013,-0.03,-0.09,1.0,-0.18,2.56,7.39,913.84,21.88,
4923051,-0.02,-0.08,0.97,-0.18,2.14,7.51,913.86,21.88,
4923101,-0.03,-0.08,0.97,0.06,2.2,7.51,913.81,21.88,
4923140,-0.02,-0.09,0.95,-0.06,2.44,7.51,913.83,21.88,
4923178,-0.02,-0.08,0.97,-0.12,2.62,7.51,913.84,21.89,
4923216,-0.03,-0.09,0.95,-0.18,2.44,7.51,913.84,21.88,
4923255,-0.04,-0.08,0.97,0.06,2.62,7.69,913.84,21.9,
4923293,-0.02,-0.08,0.98,0.0,2.99,7.63,913.84,21.91,
4923331,-0.01,-0.09,0.99,-0.06,3.36,7.63,913.81,21.88,
4923369,-0.01,-0.09,1.0,0.06,3.05,7.57,913.83,21.9,
4923408,-0.03,-0.09,0.98,-0.12,3.05,7.63,913.87,21.9,
4923446,-0.01,-0.09,1.02,0.18,2.99,7.51,913.84,21.9,
4923496,-0.02,-0.09,0.97,-0.18,2.99,7.45,913.86,21.89,
4923534,-0.02,-0.08,1.0,-0.12,3.05,7.63,913.83,21.9,
4923573,-0.02,-0.09,0.98,-0.12,3.85,7.45,913.9,21.9,
4923611,-0.02,-0.09,0.98,-0.31,3.72,7.26,913.85,21.9,
4923649,-0.02,-0.08,1.02,-0.37,3.6,7.45,913.85,21.9,
4923688,-0.02,-0.09,0.99,-0.67,4.39,7.45,913.83,21.9,
4923726,-0.02,-0.08,1.07,-0.49,4.15,7.32,913.88,21.9,
4923764,-0.02,-0.09,1.08,-1.1,4.46,7.57,913.84,21.9,
4923803,-0.03,-0.08,1.11,-0.92,3.54,7.39,913.87,21.91,
4923853,-0.02,-0.08,1.1,-0.98,4.27,7.39,913.86,21.91,
4923891,-0.02,-0.08,1.11,-0.92,3.6,7.51,913.89,21.9,
4923929,-0.02,-0.09,1.08,-1.1,3.72,7.57,913.83,21.9,
4923968,-0.02,-0.08,1.05,-1.1,3.17,7.39,913.85,21.89,
4924006,-0.03,-0.08,1.05,-1.1,2.93,7.45,913.86,21.89,
4924044,-0.02,-0.08,1.05,-1.16,3.36,7.51,913.84,21.9,
4924083,-0.03,-0.08,1.08,-1.04,3.54,7.45,913.86,21.9,
4924121,-0.03,-0.09,1.1,-1.1,3.54,7.51,913.8,21.89,
4924159,-0.03,-0.08,1.1,-1.34,3.78,7.45,913.83,21.9,
4924198,-0.04,-0.08,1.13,-1.16,4.27,7.51,913.92,21.91,
4924248,-0.04,-0.08,1.1,-1.28,4.39,7.63,913.89,21.89,
4924286,-0.03,-0.08,1.11,-1.04,4.52,7.45,913.88,21.9,
4924324,-0.03,-0.08,1.1,-1.22,4.39,7.51,913.9,21.9,
4924363,-0.02,-0.08,1.12,-1.04,4.21,7.69,913.94,21.91,
4924401,-0.04,-0.08,1.1,-1.04,4.52,7.75,913.93,21.9,
4924439,-0.04,-0.08,1.13,-0.67,4.15,7.87,913.9,21.89,
4924477,-0.04,-0.09,1.1,-0.67,4.27,8.0,913.88,21.9,
4924516,-0.03,-0.08,1.11,-0.49,3.85,8.0,913.91,21.89,
4924554,-0.02,-0.08,1.09,-0.67,4.39,8.24,913.88,21.91,
4924604,-0.03,-0.08,1.08,-0.24,3.72,8.12,913.92,21.89,
4924643,-0.02,-0.09,1.05,-0.37,3.97,8.18,913.91,21.89,
4924681,-0.03,-0.08,1.05,-0.24,3.36,8.12,913.91,21.91,
4924719,-0.02,-0.08,1.05,-0.37,3.54,8.36,913.92,21.89,
4924757,-0.02,-0.09,1.02,-0.37,3.54,8.12,913.95,21.91,
4924796,-0.03,-0.08,1.03,-0.37,3.36,8.24,913.92,21.89,
4924834,-0.02,-0.08,1.01,-0.43,3.72,8.36,913.93,21.9,
4924872,-0.02,-0.08,1.01,-0.67,3.23,8.18,913.9,21.9,
4924911,-0.03,-0.09,1.0,-0.55,3.54,8.42,913.91,21.91,
4924949,-0.03,-0.09,1.01,-0.43,3.48,8.24,913.92,21.9,
4924999,-0.03,-0.09,0.99,-0.73,3.72,8.36,913.91,21.89,
4925037,-0.02,-0.08,1.03,-0.61,3.11,8.36,913.93,21.9,
4925075,-0.03,-0.09,1.02,-0.85,3.54,8.42,913.92,21.9,
4925114,-0.03,-0.08,1.04,-0.85,3.48,8.42,913.94,21.9,
4925152,-0.02,-0.08,1.07,-0.98,3.54,8.36,913.98,21.91,
4925190,-0.03,-0.08,1.06,-1.04,3.54,8.36,913.91,21.9,
4925229,-0.03,-0.08,1.1,-0.85,3.72,8.61,913.93,21.91,
4925267,-0.03,-0.08,1.08,-0.98,4.15,8.42,913.98,21.91,
4925305,-0.01,-0.08,1.09,-0.85,4.46,8.48,913.95,21.9,
4925355,-0.02,-0.08,1.07,-0.98,5.07,8.48,913.97,21.9,
4925394,-0.01,-0.08,1.08,-0.67,5.55,8.42,913.91,21.9,
4925432,-0.02,-0.09,1.04,-0.98,6.1,8.42,913.91,21.9,
4925470,-0.02,-0.08,1.06,-1.28,6.23,8.48,913.86,21.9,
4925509,-0.02,-0.08,1.05,-1.65,6.53,8.54,913.9,21.89,
4925547,-0.0,-0.09,1.07,-2.38,6.53,8.48,913.87,21.89,
4925585,-0.0,-0.08,1.11,-2.87,6.04,8.42,913.9,21.9,
4925624,0.0,-0.09,1.11,-3.72,5.98,8.42,914.0,21.9,
4925662,-0.0,-0.08,1.14,-4.39,5.98,8.24,913.96,21.91,
4925700,-0.0,-0.08,1.17,-4.64,5.98,8.36,913.94,21.9,
4925777,-0.01,-0.08,1.24,-5.13,4.88,8.48,913.95,21.87,
4925815,-0.01,-0.08,1.28,-5.55,5.07,8.42,913.92,21.89,
4925853,0.0,-0.07,1.32,-5.37,4.82,8.36,913.93,21.87,
4926019,-0.01,-0.07,1.32,-4.52,5.13,8.36,913.94,21.83,
4926058,-0.01,-0.07,1.32,-4.52,5.13,7.93,914.0,21.85,
4926096,-0.0,-0.08,1.32,-4.46,5.68,8.12,913.98,21.86,
4926134,0.0,-0.08,1.29,-4.7,5.86,8.12,913.94,21.86,
4926173,-0.01,-0.07,1.31,-4.88,5.68,8.12,913.91,21.86,
4926211,-0.0,-0.06,1.31,-5.0,6.04,8.0,913.96,21.86,
4926261,0.0,-0.07,1.36,-4.82,5.37,8.0,913.98,21.86,
4926299,0.0,-0.06,1.38,-4.82,4.82,7.93,913.93,21.87,
4926338,-0.0,-0.07,1.43,-4.33,4.76,7.93,913.97,21.87,
4926376,0.01,-0.07,1.44,-4.39,4.82,7.93,914.02,21.87,
4926414,0.0,-0.06,1.46,-3.78,4.39,7.75,914.01,21.88,
4926453,-0.01,-0.06,1.45,-3.3,4.33,7.69,913.99,21.87,
4926491,0.01,-0.07,1.45,-2.81,4.15,7.63,913.95,21.87,
4926529,0.01,-0.08,1.37,-2.32,4.52,7.32,913.99,21.87,
4926568,0.0,-0.07,1.32,-1.71,4.39,7.32,914.02,21.89,
4926606,0.0,-0.08,1.27,-1.28,4.82,7.2,913.99,21.88,
4926656,0.0,-0.08,1.22,-0.85,3.78,7.02,913.98,21.86,
4926695,0.01,-0.08,1.22,-0.49,4.09,6.71,914.05,21.88,
4926733,0.01,-0.09,1.15,-0.43,4.21,6.71,914.0,21.89,
4926771,0.01,-0.08,1.15,-0.24,3.54,6.47,914.01,21.87,
4926809,0.0,-0.08,1.12,0.06,3.17,6.41,913.91,21.87,
4926848,0.01,-0.08,1.1,-0.24,2.75,6.29,913.89,21.88,
4926886,0.0,-0.08,1.11,-0.43,2.38,6.16,913.96,21.89,
4926924,-0.0,-0.09,1.1,-0.67,2.26,6.23,913.95,21.89,
4926963,-0.01,-0.09,1.13,-0.79,2.14,5.92,913.96,21.89,
4927013,0.01,-0.08,1.11,-0.92,2.14,5.86,913.91,21.88,
4927051,0.01,-0.08,1.12,-1.04,1.65,5.8,913.9,21.89,
4927089,0.0,-0.09,1.09,-1.16,2.01,5.62,913.9,21.89,
4927128,-0.01,-0.09,1.06,-1.04,1.77,5.68,913.94,21.88,
4927166,-0.01,-0.09,1.07,-0.79,1.89,5.62,913.91,21.89,
4927204,-0.01,-0.09,1.05,-0.92,2.2,5.31,913.96,21.91,
4927243,-0.01,-0.08,1.05,-0.55,1.95,5.31,913.88,21.89,
4927281,-0.0,-0.09,1.0,-0.73,3.23,5.19,913.86,21.88,
4927319,-0.0,-0.07,1.02,-0.43,3.05,5.13,913.88,21.89,
4927358,-0.0,-0.08,1.0,-0.18,3.85,5.07,913.88,21.88,
4927408,-0.01,-0.08,0.95,0.0,3.23,4.88,913.9,21.88,
4927446,-0.01,-0.08,0.97,0.24,3.78,4.76,913.87,21.88,
4927484,-0.02,-0.09,0.93,0.31,3.85,4.58,913.9,21.88,
4927523,-0.02,-0.08,0.99,0.67,3.85,4.64,913.87,21.88,
4927561,-0.01,-0.09,0.96,0.73,4.09,4.58,913.85,21.88,
4927599,-0.02,-0.08,0.99,1.16,3.72,4.7,913.86,21.89,
4927638,-0.02,-0.09,0.96,0.98,4.27,4.76,913.86,21.89,
4927676,-0.02,-0.08,0.97,1.4,3.85,4.76,913.85,21.88,
4927714,-0.01,-0.08,0.96,1.77,3.66,4.88,913.85,21.89,
4927753,-0.02,-0.08,0.96,2.01,3.05,4.7,913.79,21.89,
4927803,-0.02,-0.08,0.93,1.95,3.23,4.7,913.88,21.89,
4927841,-0.02,-0.08,0.92,2.2,2.99,4.76,913.86,21.89,
4927879,-0.02,-0.07,0.91,2.38,2.56,4.88,913.83,21.89,
4927918,-0.03,-0.08,0.92,2.62,2.32,4.76,913.8,21.88,
4927956,-0.02,-0.08,0.89,2.62,3.05,4.7,913.8,21.89,
4927994,-0.02,-0.08,0.89,2.81,2.75,4.82,913.79,21.88,
4928032,-0.03,-0.08,0.86,2.93,2.93,4.88,913.81,21.89,
4928071,-0.03,-0.09,0.84,2.87,3.3,4.94,913.79,21.9,
4928109,-0.02,-0.08,0.87,3.3,3.48,4.58,913.84,21.89,
4928159,-0.02,-0.08,0.82,3.17,3.23,4.64,913.78,21.88,
4928198,-0.03,-0.08,0.86,3.48,2.56,4.7,913.82,21.89,
4928236,-0.02,-0.08,0.85,3.17,2.62,4.82,913.81,21.9,
4928274,-0.02,-0.08,0.9,3.17,1.83,4.76,913.78,21.9,
4928313,-0.02,-0.08,0.87,2.81,2.01,4.88,913.8,21.9,
4928351,-0.02,-0.08,0.85,2.87,1.4,4.82,913.79,21.89,
4928389,-0.04,-0.07,0.84,2.56,1.46,4.76,913.81,21.9,
4928428,-0.02,-0.07,0.82,2.14,1.59,4.88,913.82,21.9,
4928466,-0.03,-0.08,0.83,2.14,0.98,4.7,913.83,21.91,
4928504,-0.04,-0.08,0.85,2.14,1.34,4.82,913.71,21.9,
4928554,-0.03,-0.08,0.89,2.08,0.73,4.88,913.78,21.9,
4928593,-0.03,-0.08,0.88,1.83,0.67,4.94,913.74,21.9,
4928631,-0.01,-0.08,0.9,1.83,0.12,4.82,913.79,21.9,
4928669,-0.04,-0.08,0.87,1.4,0.55,4.76,913.8,21.9,
4928708,-0.05,-0.07,0.9,1.22,0.85,4.88,913.8,21.9,
4928746,-0.04,-0.08,0.87,0.85,1.46,5.07,913.75,21.9,
4928784,-0.05,-0.08,0.93,0.67,0.73,4.94,913.83,21.9,
4928822,-0.04,-0.08,0.94,0.61,2.38,5.13,913.8,21.91,
4928861,-0.04,-0.08,0.94,0.61,2.87,4.94,913.82,21.91,
4928899,-0.03,-0.08,0.96,0.98,2.81,5.25,913.85,21.9,
4928975,-0.06,-0.08,0.98,1.1,2.81,5.43,913.82,21.88,
4929014,-0.04,-0.08,0.95,0.67,3.91,5.43,913.78,21.89,
4929052,-0.04,-0.07,0.96,0.85,3.3,5.43,913.8,21.9,
4929142,-0.05,-0.07,0.97,0.49,3.6,5.8,913.85,21.86,
4929180,-0.04,-0.08,0.97,0.24,3.78,6.04,913.81,21.87,
4929219,-0.05,-0.08,0.94,0.31,3.42,6.1,913.82,21.87,
4929257,-0.04,-0.07,0.95,0.06,3.42,5.98,913.82,21.88,
4929295,-0.03,-0.08,0.94,0.06,3.72,6.16,913.85,21.88,
4929333,-0.03,-0.08,0.95,0.06,2.87,6.23,913.82,21.89,
4929384,-0.05,-0.09,0.94,-0.06,3.6,6.23,913.82,21.89,
4929422,-0.04,-0.07,0.95,-0.37,3.54,6.41,913.88,21.89,
4929460,-0.04,-0.08,0.98,-0.55,3.78,6.35,913.82,21.88,
4929498,-0.04,-0.08,1.01,-0.55,3.6,6.41,913.83,21.89,
4929537,-0.04,-0.08,1.03,-0.67,3.91,6.47,913.83,21.89,
4929575,-0.04,-0.08,1.05,-0.67,4.09,6.47,913.85,21.89,
4929613,-0.04,-0.08,1.06,-0.79,4.09,6.53,913.83,21.9,
4929652,-0.05,-0.08,1.07,-0.79,4.03,6.71,913.86,21.89,
4929690,-0.04,-0.08,1.08,-0.98,4.09,6.77,913.9,21.89,
4929728,-0.04,-0.08,1.06,-1.1,4.27,6.9,913.88,21.89,
4929778,-0.04,-0.07,1.06,-1.16,3.97,6.9,913.86,21.88,
4929817,-0.04,-0.07,1.06,-1.22,4.09,6.9,913.86,21.89,
4929855,-0.04,-0.08,1.05,-1.34,4.27,6.77,913.88,21.9,
4929893,-0.04,-0.07,1.08,-1.28,4.52,6.96,913.9,21.9,
4929932,-0.03,-0.08,1.08,-1.59,4.7,6.9,913.88,21.89,
4929970,-0.04,-0.08,1.06,-1.22,4.76,7.02,913.94,21.9,
4930008,-0.06,-0.08,1.03,-1.4,4.88,6.96,913.89,21.9,
4930046,-0.04,-0.07,1.05,-1.16,4.52,7.02,913.97,21.91,
4930085,-0.03,-0.08,1.05,-1.28,4.64,7.14,913.95,21.91,
4930135,-0.05,-0.07,1.06,-1.1,4.09,7.14,913.91,21.89,
4930173,-0.04,-0.08,1.06,-1.28,4.82,7.32,913.99,21.92,
4930212,-0.03,-0.07,1.07,-1.22,4.52,7.39,914.0,21.9,
4930250,-0.04,-0.08,1.08,-1.22,4.39,7.32,913.98,21.9,
4930288,-0.04,-0.08,1.07,-1.22,4.58,7.39,914.0,21.9,
4930326,-0.04,-0.07,1.09,-0.92,4.64,7.51,914.02,21.9,
4930365,-0.03,-0.07,1.08,-0.85,4.27,7.39,913.97,21.9,
4930403,-0.03,-0.08,1.08,-0.73,4.33,7.63,914.0,21.9,
4930441,-0.03,-0.07,1.07,-0.49,4.58,7.69,914.05,21.92,
4930480,-0.02,-0.07,1.1,-0.24,4.64,7.45,914.04,21.9,
4930530,-0.04,-0.07,1.07,-0.24,4.52,7.26,913.98,21.89,
4930568,-0.03,-0.07,1.11,0.24,5.0,7.39,913.99,21.9,
4930606,-0.02,-0.08,1.05,-0.49,5.55,7.32,914.02,21.9,
4930645,-0.03,-0.06,1.13,-0.12,4.39,7.45,914.02,21.91,
4930683,-0.04,-0.07,1.11,-0.79,5.68,7.39,914.03,21.91,
4930721,-0.03,-0.08,1.14,-0.49,5.0,7.45,914.0,21.9,
4930760,-0.04,-0.07,1.15,-0.98,5.8,7.14,914.05,21.91,
4930798,-0.03,-0.07,1.15,-0.98,5.43,7.26,914.05,21.91,
4930836,-0.03,-0.07,1.14,-1.28,5.62,7.32,914.05,21.91,
4930886,-0.02,-0.07,1.17,-1.16,4.94,7.39,914.06,21.9,
4930925,-0.01,-0.08,1.14,-1.53,4.09,7.63,914.11,21.91,
4930963,-0.02,-0.07,1.16,-1.53,3.3,7.32,914.1,21.9,
4931001,-0.02,-0.07,1.13,-1.34,2.5,7.39,914.1,21.9,
4931040,-0.03,-0.07,1.14,-1.16,1.53,7.26,914.1,21.9,
4931078,-0.02,-0.07,1.18,-1.04,0.61,7.2,914.1,21.9,
4931116,-0.0,-0.08,1.2,-0.85,0.0,7.02,914.1,21.9,
4931154,-0.01,-0.08,1.21,-0.61,0.24,6.96,914.07,21.9,
4931193,-0.03,-0.07,1.18,-0.49,0.18,6.65,914.1,21.9,
4931231,-0.02,-0.07,1.18,-0.12,0.61,6.65,914.14,21.9,
4931281,-0.03,-0.07,1.13,-0.12,0.43,6.59,914.11,21.89,
4931320,-0.01,-0.07,1.16,0.18,0.24,6.29,914.12,21.89,
4931358,-0.03,-0.07,1.15,0.73,-0.37,6.35,914.1,21.89,
4931396,-0.03,-0.07,1.13,0.92,-0.31,6.16,914.11,21.89,
4931434,-0.02,-0.07,1.1,0.98,-0.06,6.04,914.12,21.89,
4931473,-0.02,-0.07,1.11,1.16,-0.92,5.98,914.09,21.89,
4931511,-0.04,-0.09,1.0,1.4,-0.85,6.1,914.12,21.89,
4931549,-0.03,-0.06,0.98,1.46,-2.01,5.68,914.1,21.9,
4931588,-0.02,-0.08,0.94,1.89,-1.34,5.8,914.06,21.89,
4931638,-0.04,-0.08,0.79,1.1,-1.83,5.74,914.12,21.88,
4931676,-0.04,-0.09,0.87,1.89,-0.49,5.49,914.03,21.89,
4931714,-0.05,-0.09,0.76,0.24,0.37,5.8,914.13,21.89,
4931753,-0.04,-0.07,0.84,1.4,-0.12,5.68,914.08,21.9,
4931791,-0.04,-0.1,0.75,-0.24,1.53,5.62,914.05,21.88,
4931829,-0.03,-0.07,0.86,0.06,0.73,5.43,914.06,21.89,
4931868,-0.05,-0.09,0.8,-0.37,1.95,5.68,914.13,21.89,
4931906,-0.06,-0.07,0.86,-1.04,1.34,5.98,914.07,21.89,
4931944,-0.03,-0.08,0.92,-0.92,2.14,6.1,914.1,21.89,
4931983,-0.04,-0.08,0.93,-1.34,2.5,6.04,914.08,21.89,
4932059,-0.04,-0.08,1.06,-1.22,2.75,6.47,914.14,21.87,
4932097,-0.02,-0.08,1.11,-1.04,2.2,6.23,914.13,21.88,
4932135,-0.04,-0.07,1.15,-0.85,2.99,6.47,914.14,21.89,
4932225,-0.03,-0.07,1.23,-0.73,2.5,6.23,914.21,21.85,
4932264,-0.04,-0.07,1.21,-0.67,2.87,6.47,914.17,21.87,
4932302,-0.02,-0.07,1.24,-0.61,2.81,6.35,914.21,21.86,
4932340,-0.0,-0.08,1.22,-0.55,2.81,6.29,914.18,21.87,
4932378,-0.04,-0.08,1.19,-0.37,2.08,6.29,914.19,21.87,
4932417,-0.04,-0.08,1.16,0.0,2.32,6.59,914.24,21.88,
4932467,-0.02,-0.09,1.11,-0.12,1.77,6.53,914.2,21.86,
4932505,-0.02,-0.07,1.11,-0.37,0.79,6.53,914.23,21.87,
4932543,-0.04,-0.08,1.09,-0.61,1.46,6.59,914.2,21.87,
4932582,-0.02,-0.08,1.09,-0.98,1.28,6.59,914.17,21.88,
4932620,-0.01,-0.08,1.1,-1.16,0.92,6.59,914.17,21.89,
4932658,-0.03,-0.09,1.08,-1.65,0.49,6.53,914.17,21.89,
4932697,-0.03,-0.08,1.08,-1.77,1.53,6.53,914.2,21.9,
4932735,-0.03,-0.08,1.09,-2.38,1.59,6.41,914.17,21.9,
4932773,-0.01,-0.08,1.12,-2.38,1.46,6.59,914.2,21.91,
4932812,-0.03,-0.09,1.05,-2.93,1.89,6.29,914.24,21.91,
4932862,-0.01,-0.07,1.11,-2.5,2.01,6.47,914.25,21.89,
4932900,-0.01,-0.08,1.07,-3.05,1.89,6.59,914.23,21.89,
4932938,-0.04,-0.07,1.12,-2.69,1.4,6.53,914.21,21.9,
4932977,-0.02,-0.08,1.12,-2.81,2.56,6.53,914.27,21.9,
4933015,-0.01,-0.07,1.15,-2.5,1.65,6.53,914.23,21.89,
4933053,-0.04,-0.07,1.13,-2.38,2.14,6.65,914.26,21.9,
4933092,-0.02,-0.07,1.14,-2.2,2.81,6.35,914.22,21.9,
4933130,-0.02,-0.07,1.15,-2.14,3.97,6.47,914.2,21.9,
4933169,-0.02,-0.07,1.19,-1.71,2.87,6.47,914.28,21.9,
4933219,-0.03,-0.07,1.14,-2.14,4.88,6.35,914.26,21.9,
4933257,-0.02,-0.06,1.21,-1.59,4.52,6.35,914.21,21.89,
4933295,-0.0,-0.07,1.21,-1.59,5.25,6.16,914.24,21.9,
4933333,-0.02,-0.07,1.2,-1.46,5.19,6.16,914.27,21.89,
4933372,-0.01,-0.07,1.25,-1.34,5.8,6.29,914.26,21.9,
4933410,-0.01,-0.07,1.2,-1.71,5.74,6.53,914.28,21.89,
4933448,-0.02,-0.07,1.26,-1.71,3.97,6.47,914.3,21.91,
4933487,-0.02,-0.07,1.22,-1.83,4.33,6.35,914.26,21.89,
4933525,-0.01,-0.07,1.26,-1.71,3.66,6.47,914.29,21.9,
4933563,0.0,-0.07,1.21,-1.65,3.42,6.47,914.27,21.9,
4933613,-0.03,-0.07,1.22,-1.4,2.38,6.53,914.24,21.9,
4933652,-0.03,-0.08,1.17,-1.4,3.54,6.53,914.27,21.89,
4933690,-0.02,-0.07,1.19,-1.1,3.36,6.29,914.27,21.89,
4933728,-0.02,-0.06,1.17,-1.1,3.23,6.47,914.24,21.9,
4933767,-0.03,-0.06,1.19,-1.1,3.3,6.35,914.27,21.89,
4933805,-0.0,-0.07,1.2,-1.28,3.36,6.16,914.28,21.89,
4933843,-0.02,-0.07,1.23,-1.53,3.3,6.16,914.22,21.9,
4933882,-0.04,-0.06,1.2,-1.46,3.78,6.47,914.2,21.9,
4933920,-0.03,-0.06,1.21,-1.34,4.15,6.47,914.27,21.9,
4933970,-0.01,-0.06,1.18,-1.1,3.97,6.23,914.22,21.89,
4934008,-0.03,-0.07,1.17,-1.16,3.54,6.65,914.23,21.9,
4934046,-0.02,-0.07,1.19,-0.92,4.03,6.47,914.21,21.89,
4934085,-0.04,-0.06,1.17,-0.85,4.03,6.47,914.21,21.9,
4934123,-0.04,-0.06,1.18,-0.55,3.72,6.65,914.28,21.9,
4934161,-0.04,-0.07,1.16,-0.31,3.97,6.65,914.23,21.89,
4934200,-0.02,-0.06,1.18,-0.31,3.78,6.77,914.16,21.89,
4934238,-0.03,-0.07,1.14,-0.49,4.21,6.9,914.2,21.9,
4934276,-0.03,-0.06,1.13,-0.79,3.85,6.96,914.21,21.9,
4934314,-0.03,-0.06,1.15,-0.67,3.78,7.08,914.11,21.9,
4934364,-0.04,-0.06,1.13,-1.1,3.23,7.14,914.19,21.89,
4934403,-0.03,-0.06,1.18,-1.1,2.93,7.32,914.09,21.89,
4934441,-0.03,-0.07,1.17,-1.34,2.81,7.2,914.16,21.9,
4934479,-0.04,-0.06,1.19,-1.28,2.2,7.69,914.18,21.9,
4934518,-0.04,-0.06,1.15,-1.4,2.93,7.63,914.15,21.89,
4934556,-0.03,-0.06,1.19,-1.22,2.01,7.57,914.24,21.91,
4934594,-0.03,-0.07,1.16,-1.34,2.56,7.69,914.18,21.91,
4934632,-0.03,-0.06,1.16,-1.16,1.71,7.69,914.18,21.9,
4934671,-0.04,-0.05,1.19,-1.1,2.81,7.87,914.14,21.89,
4934721,-0.03,-0.06,1.2,-0.92,2.2,7.93,914.07,21.89,
4934759,-0.05,-0.06,1.17,-1.04,3.11,8.06,914.11,21.89,
4934797,-0.04,-0.07,1.16,-0.92,3.78,7.93,914.11,21.89,
4934835,-0.0,-0.05,1.25,-0.73,3.05,7.69,914.11,21.9,
4934874,-0.02,-0.06,1.25,-0.92,3.36,8.0,914.13,21.89,
4934912,-0.02,-0.08,1.17,-1.04,3.17,8.12,914.13,21.89,
4934950,-0.04,-0.06,1.18,-0.67,1.77,8.24,914.08,21.9,
4934989,-0.02,-0.06,1.14,-0.67,1.95,8.3,914.1,21.9,
4935027,-0.02,-0.06,1.09,-0.37,1.65,8.3,914.11,21.9,
4935065,-0.04,-0.07,1.02,-0.55,1.28,8.36,914.03,21.89,
4935141,-0.03,-0.07,0.99,-0.61,-0.43,8.48,914.05,21.87,
4935180,-0.03,-0.06,0.95,-0.73,-1.16,8.48,914.09,21.89,
4935218,-0.04,-0.07,0.86,-0.92,-0.61,8.61,914.0,21.88,
4935308,0.0,-0.08,0.88,-1.53,-1.1,8.54,914.0,21.86,
4935346,-0.04,-0.07,0.83,-1.89,-0.18,8.61,914.05,21.88,
4935385,-0.04,-0.06,0.9,-1.34,-0.61,8.67,914.01,21.88,
4935423,-0.03,-0.08,0.88,-1.53,-0.12,8.48,913.98,21.88,
4935461,-0.04,-0.08,0.9,-1.1,-0.85,8.73,914.07,21.89,
4935500,-0.03,-0.07,0.89,-1.22,0.18,8.73,914.02,21.89,
4935550,-0.0,-0.08,0.9,-1.16,0.18,8.73,914.03,21.87,
4935588,-0.02,-0.07,0.89,-1.1,0.06,8.79,914.01,21.89,
4935626,-0.02,-0.07,0.92,-0.79,0.43,8.73,914.07,21.89,
4935665,-0.0,-0.07,0.92,-0.49,0.73,8.48,914.02,21.89,
4935703,-0.01,-0.06,0.96,-0.43,0.24,8.48,914.06,21.89,
4935741,-0.03,-0.07,0.93,0.06,0.85,8.61,914.05,21.89,
4935779,-0.02,-0.07,0.94,0.55,2.08,8.06,913.97,21.88,
4935818,-0.02,-0.07,0.96,1.04,1.83,7.93,914.03,21.9,
4935856,-0.03,-0.06,0.89,1.83,2.75,8.0,913.97,21.91,
4935906,-0.02,-0.07,0.86,2.2,5.37,7.57,913.94,21.88,
4935944,-0.0,-0.08,0.85,1.77,7.63,7.51,913.97,21.89,
4935983,-0.05,-0.06,0.95,2.26,7.02,7.81,913.98,21.9,
4936021,-0.03,-0.08,0.88,2.01,8.42,7.81,914.03,21.91,
4936059,-0.03,-0.04,0.96,2.32,8.61,7.39,914.02,21.89,
4936098,-0.02,-0.05,0.97,2.56,9.64,7.75,913.97,21.9,
4936136,-0.02,-0.07,0.92,2.38,9.03,7.87,913.98,21.91,
4936174,-0.03,-0.06,0.94,2.44,9.7,7.75,913.96,21.9,
4936212,-0.02,-0.06,0.97,2.32,10.13,7.87,913.92,21.9,
4936251,-0.02,-0.06,0.99,2.32,8.3,8.06,913.92,21.91,
4936301,-0.03,-0.07,1.01,2.01,7.75,8.18,913.96,21.89,
4936339,-0.02,-0.06,1.01,1.65,7.45,8.06,913.99,21.89,
4936377,-0.0,-0.06,1.03,1.65,6.77,8.0,913.98,21.9,
4936416,-0.01,-0.05,1.02,1.53,6.23,8.06,913.99,21.9,
4936454,-0.02,-0.06,1.03,1.46,5.8,8.24,914.03,21.89,
4936492,-0.01,-0.06,1.01,1.28,6.1,8.18,914.02,21.9,
4936531,-0.02,-0.05,1.05,1.46,4.82,8.24,914.03,21.9,
4936569,-0.03,-0.07,1.01,1.34,4.33,8.3,914.04,21.9,
4936607,-0.03,-0.07,0.99,1.34,4.03,8.18,914.04,21.89,
4936645,-0.0,-0.06,0.97,1.46,4.27,8.0,913.98,21.9,
4936695,-0.0,-0.06,0.9,1.22,4.15,8.12,913.97,21.89,
4936734,-0.03,-0.06,0.91,1.28,4.27,8.12,913.97,21.89,
4936772,-0.01,-0.07,0.89,0.85,4.82,7.81,913.95,21.9,
4936810,-0.02,-0.06,0.94,0.73,4.39,7.69,913.94,21.9,
4936849,-0.02,-0.07,0.96,0.31,4.21,7.81,914.01,21.9,
4936887,-0.02,-0.06,0.99,0.49,4.09,7.51,913.98,21.89,
4936925,-0.01,-0.06,0.99,0.31,4.52,7.57,914.03,21.91,
4936964,-0.0,-0.06,1.01,0.37,3.72,7.57,913.99,21.92,
4937002,-0.03,-0.06,1.01,0.37,3.72,7.51,914.03,21.91,
4937052,-0.01,-0.06,1.03,0.18,3.36,7.51,914.04,21.89,
4937090,-0.0,-0.05,1.1,-0.06,2.81,7.51,913.98,21.9,
4937129,-0.0,-0.05,1.1,-0.12,2.26,7.45,914.04,21.9,
4937167,-0.02,-0.05,1.14,-0.31,1.53,7.51,914.01,21.9,
4937205,-0.01,-0.05,1.16,-0.37,2.01,7.57,913.95,21.9,
4937243,0.01,-0.05,1.2,-0.06,1.59,7.26,913.99,21.9,
4937282,-0.01,-0.04,1.2,15.44,1.04,7.2,913.99,21.9,
4937320,-0.02,-0.04,1.22,0.24,1.04,7.39,913.99,21.91,
4937358,0.0,-0.04,1.21,0.06,1.65,7.08,914.01,21.9,
4937397,0.0,-0.03,1.28,0.24,1.04,6.84,914.05,21.91,
4937447,-0.01,-0.05,1.21,0.24,1.89,6.71,914.04,21.91,
4937485,0.01,-0.04,1.24,0.79,1.59,6.35,914.01,21.9,
4937523,0.0,-0.05,1.17,0.92,2.08,6.29,914.06,21.91,
4937562,-0.02,-0.04,1.16,1.22,1.59,6.29,914.06,21.92,
4937600,-0.0,-0.05,1.13,1.16,2.69,6.1,914.01,21.91,
4937638,0.0,-0.05,1.11,1.34,2.75,5.86,914.03,21.91,
4937676,-0.01,-0.05,1.12,1.4,2.93,5.92,914.01,21.92,
4937715,0.0,-0.05,1.11,1.59,2.75,5.8,913.99,21.9,
4937753,0.0,-0.04,1.1,1.59,2.75,5.55,913.95,21.91,
4937791,-0.01,-0.06,1.09,1.59,2.62,5.37,914.06,21.91,
4937841,-0.01,-0.05,1.07,1.65,2.69,5.37,914.01,21.89,
4937880,-0.01,-0.06,1.04,1.77,2.81,5.13,914.05,21.9,
4937918,-0.01,-0.06,1.03,1.89,2.93,5.07,914.01,21.91,
4937956,-0.01,-0.07,1.02,1.65,3.3,5.0,914.02,21.9,
4937995,-0.01,-0.05,1.03,1.83,3.23,4.88,914.01,21.9,
4938033,-0.02,-0.06,1.02,1.53,3.72,5.0,913.99,21.89,
4938071,-0.01,-0.06,1.03,1.22,3.54,4.82,913.98,21.9,
4938110,-0.02,-0.05,1.04,1.16,3.6,4.58,913.98,21.91,
4938148,-0.02,-0.06,1.05,1.22,3.3,4.88,913.99,21.91,
4938224,-0.02,-0.05,1.04,1.28,2.99,4.7,913.98,21.87,
4938262,-0.01,-0.05,1.04,1.22,3.23,4.76,914.02,21.89,
4938301,-0.02,-0.05,1.03,1.34,2.56,4.82,913.96,21.9,
4938391,-0.02,-0.06,1.0,1.4,2.32,4.76,913.95,21.85,
4938429,-0.02,-0.06,1.01,1.59,1.89,4.7,914.04,21.87,
4938467,-0.03,-0.06,0.95,1.4,1.83,4.88,914.01,21.87,
4938506,-0.03,-0.05,0.97,1.71,1.34,4.76,913.98,21.88,
4938544,-0.02,-0.07,0.94,1.83,1.46,4.76,913.97,21.89,
4938582,-0.02,-0.06,0.91,1.95,1.59,4.52,913.99,21.87,
4938621,-0.03,-0.07,0.88,2.14,1.71,4.7,914.01,21.88,
4938671,-0.04,-0.06,0.84,2.08,1.46,4.46,914.0,21.87,
4938709,-0.03,-0.07,0.82,2.08,2.08,4.64,913.97,21.87,
4938747,-0.04,-0.06,0.83,1.83,1.53,4.7,913.97,21.89,
4938786,-0.03,-0.07,0.81,1.77,1.89,4.7,913.96,21.89,
4938824,-0.03,-0.06,0.82,1.65,1.71,4.52,913.93,21.89,
4938862,-0.03,-0.06,0.87,1.89,1.53,4.82,913.96,21.9,
4938901,-0.03,-0.07,0.84,1.34,1.53,4.88,913.95,21.89,
4938939,-0.04,-0.05,0.88,1.4,1.46,4.76,913.94,21.88,
4938977,-0.03,-0.06,0.86,1.46,2.5,4.76,914.01,21.89,
4939015,-0.04,-0.06,0.88,1.53,1.34,4.76,913.96,21.9,
4939066,-0.04,-0.06,0.88,1.16,2.08,4.82,913.96,21.88,
4939104,-0.05,-0.06,0.9,1.28,2.5,4.94,913.98,21.89,
4939142,-0.03,-0.06,0.93,0.98,3.05,4.76,913.97,21.89,
4939180,-0.04,-0.05,0.93,1.04,3.42,4.88,914.0,21.89,
4939219,-0.05,-0.06,0.94,1.16,4.21,4.94,913.99,21.9,
4939257,-0.04,-0.06,0.95,0.73,4.94,4.76,913.99,21.9,
4939295,-0.05,-0.05,0.99,1.04,5.43,4.88,913.99,21.9,
4939334,-0.04,-0.05,0.95,0.61,6.65,4.82,913.97,21.89,
4939372,-0.04,-0.05,1.0,0.85,6.53,4.94,914.03,21.9,
4939422,-0.04,-0.07,0.96,0.73,7.75,5.07,913.95,21.88,
4939460,-0.04,-0.05,0.98,0.98,6.65,5.37,914.0,21.89,
4939499,-0.05,-0.05,1.0,1.16,7.39,5.49,914.03,21.89,
4939537,-0.04,-0.05,0.95,0.92,7.39,5.43,914.0,21.89,
4939575,-0.04,-0.05,1.0,0.98,7.08,5.55,914.02,21.89,
4939614,-0.02,-0.06,0.96,0.55,6.47,5.8,914.08,21.9,
4939652,-0.04,-0.06,0.97,0.67,4.15,5.86,914.05,21.9,
4939691,-0.03,-0.06,0.91,0.31,3.78,6.23,914.05,21.89,
4939729,-0.03,-0.04,0.94,0.37,1.65,6.23,914.02,21.9,
4939767,-0.03,-0.05,0.95,0.12,0.98,6.35,914.06,21.9,
4939817,-0.03,-0.06,0.97,0.31,-0.31,6.53,914.06,21.89,
4939856,-0.04,-0.07,0.98,0.24,0.49,6.59,914.04,21.9,
4939894,-0.03,-0.05,0.98,0.18,0.12,6.53,913.96,21.89,
4939932,-0.04,-0.04,1.03,0.37,-0.06,6.35,914.09,21.89,
4939971,-0.03,-0.06,0.98,0.0,0.92,6.47,914.09,21.91,
4940009,-0.02,-0.05,1.05,0.31,0.43,6.16,914.06,21.9,
4940047,-0.03,-0.06,1.01,0.0,1.59,6.29,914.08,21.89,
4940085,-0.03,-0.04,1.04,0.18,1.4,6.47,914.09,21.9,
4940124,-0.03,-0.05,1.02,0.0,3.11,6.29,914.06,21.88,
4940162,-0.04,-0.06,1.01,0.12,2.62,6.04,914.08,21.91,
4940212,-0.03,-0.05,1.01,0.24,3.23,6.23,914.13,21.89,
4940250,-0.03,-0.05,1.04,0.31,3.11,6.16,914.06,21.9,
4940288,-0.03,-0.04,1.04,0.12,3.3,6.1,914.08,21.89,
4940327,-0.02,-0.05,1.05,0.43,2.99,6.1,914.2,21.9,
4940365,-0.02,-0.06,1.06,0.31,2.93,6.04,914.14,21.91,
4940403,-0.03,-0.05,1.05,0.24,2.38,6.1,914.17,21.89,
4940442,-0.03,-0.05,1.05,0.37,2.26,6.16,914.13,21.9,
4940480,-0.02,-0.06,1.03,0.49,2.62,6.16,914.15,21.9,
4940518,-0.03,-0.06,1.02,0.43,1.71,6.29,914.18,21.91,
4940568,-0.03,-0.06,1.03,0.18,1.65,6.04,914.14,21.89,
4940607,-0.02,-0.05,1.06,0.0,1.53,6.1,914.17,21.9,
4940645,-0.03,-0.05,1.07,-0.24,1.16,6.35,914.16,21.9,
4940683,-0.03,-0.06,1.07,0.0,0.79,6.1,914.14,21.9,
4940721,-0.03,-0.06,1.05,-0.24,1.1,6.23,914.14,21.9,
4940759,-0.03,-0.05,1.06,-0.06,0.92,5.98,914.21,21.91,
4940798,-0.03,-0.05,1.05,0.0,1.04,6.04,914.19,21.9,
4940836,-0.03,-0.05,1.03,0.0,1.28,5.98,914.23,21.9,
4940874,-0.03,-0.06,1.07,0.0,1.1,5.98,914.22,21.9,
4940912,-0.03,-0.06,1.06,-0.06,1.4,5.98,914.14,21.89,
4940962,-0.03,-0.06,1.07,-0.31,1.22,5.92,914.18,21.91,
4941001,-0.03,-0.05,1.06,-0.31,1.04,5.86,914.15,21.9,
4941039,-0.03,-0.05,1.04,-0.37,0.43,5.74,914.14,21.9,
4941077,-0.02,-0.05,1.06,-0.55,-0.73,5.74,914.11,21.9,
4941116,-0.02,-0.05,1.06,-0.73,-1.22,5.62,914.13,21.91,
4941154,-0.03,-0.05,1.1,-0.79,-2.5,5.49,914.19,21.91,
4941192,-0.02,-0.05,1.09,-0.85,-2.87,5.62,914.19,21.93,
4941231,-0.04,-0.05,1.12,-0.98,-3.78,5.31,914.11,21.91,
4941269,-0.04,-0.05,1.11,-1.28,-3.78,5.25,914.14,21.92,
4941345,-0.04,-0.05,1.12,-1.04,-4.39,5.31,914.14,21.88,
4941383,-0.04,-0.05,1.11,-1.28,-4.64,5.19,914.13,21.89,
4941422,-0.05,-0.06,1.13,-1.22,-5.13,5.07,914.14,21.91,
4941512,-0.06,-0.04,1.11,-1.16,-5.13,5.25,914.23,21.87,
4941550,-0.06,-0.04,1.1,-1.22,-5.07,5.19,914.2,21.88,
4941588,-0.05,-0.06,1.12,-1.22,-5.55,5.13,914.17,21.88,
4941627,-0.06,-0.05,1.11,-1.46,-4.94,5.31,914.22,21.89,
4941665,-0.06,-0.05,1.1,-1.34,-5.25,5.19,914.18,21.89,
4941703,-0.06,-0.05,1.1,-1.65,-4.82,5.49,914.16,21.89,
4941741,-0.06,-0.05,1.1,-1.59,-4.7,5.49,914.18,21.89,
4941791,-0.07,-0.05,1.1,-1.28,-4.39,5.55,914.17,21.88,
4941830,-0.08,-0.05,1.11,-1.04,-3.78,5.62,914.22,21.89,
4941868,-0.07,-0.05,1.11,-0.79,-3.48,5.55,914.18,21.88,
4941906,-0.06,-0.05,1.11,-0.61,-3.11,5.68,914.19,21.88,
4941945,-0.08,-0.05,1.1,-0.06,-2.93,5.86,914.22,21.88,
4941983,-0.08,-0.05,1.11,0.18,-2.56,5.86,914.18,21.9,
4942022,-0.08,-0.04,1.07,0.18,-2.44,6.16,914.23,21.89,
4942060,-0.08,-0.04,1.08,0.43,-2.62,6.29,914.17,21.9,
4942098,-0.07,-0.06,1.06,0.43,-1.77,6.47,914.15,21.89,
4942148,-0.08,-0.05,1.07,0.18,-2.56,6.71,914.18,21.87,
4942187,-0.06,-0.06,1.1,0.0,-2.5,7.14,914.18,21.89,
4942225,-0.07,-0.04,1.14,-0.49,-3.17,7.39,914.14,21.89,
4942263,-0.08,-0.04,1.16,-0.92,-3.42,7.69,914.17,21.89,
4942302,-0.08,-0.05,1.15,-1.16,-3.78,7.93,914.15,21.9,
4942340,-0.07,-0.05,1.18,-1.4,-4.33,8.12,914.26,21.9,
4942378,-0.07,-0.05,1.15,-1.53,-3.66,8.36,914.22,21.9,
4942416,-0.07,-0.05,1.14,-1.28,-3.54,8.42,914.23,21.89,
4942455,-0.07,-0.05,1.11,-1.16,-2.93,8.54,914.29,21.89,
4942505,-0.07,-0.05,1.09,-1.34,-2.26,8.73,914.23,21.89,
4942543,-0.08,-0.05,1.08,-1.53,-2.2,9.16,914.21,21.9,
4942582,-0.06,-0.04,1.11,-1.71,-1.77,9.03,914.29,21.89,
4942620,-0.06,-0.05,1.1,-1.89,-0.85,9.09,914.27,21.9,
4942658,-0.07,-0.06,1.09,-2.08,-0.73,9.46,914.26,21.91,
4942696,-0.07,-0.06,1.09,-2.08,-0.37,9.64,914.32,21.9,
4942735,-0.07,-0.05,1.05,-2.32,-0.43,9.77,914.29,21.9,
4942773,-0.06,-0.05,1.1,-2.38,-1.04,9.95,914.29,21.91,
4942811,-0.06,-0.06,1.07,-2.75,-0.79,10.19,914.28,21.91,
4942850,-0.06,-0.06,1.14,-2.75,-2.32,10.5,914.3,21.9,
4942900,-0.07,-0.05,1.11,-3.17,-2.32,10.99,914.2,21.89,
4942938,-0.06,-0.04,1.15,-3.17,-2.81,11.11,914.26,21.89,
4942976,-0.06,-0.05,1.14,-3.66,-2.01,11.29,914.3,21.9,
4943015,-0.06,-0.04,1.14,-3.66,-1.95,11.41,914.33,21.89,
4943053,-0.05,-0.04,1.17,-3.42,-1.16,11.47,914.3,21.9,
4943092,-0.07,-0.05,1.12,-3.48,-0.92,11.41,914.32,21.9,
4943130,-0.04,-0.05,1.17,-3.42,-0.49,11.72,914.33,21.9,
4943168,-0.04,-0.05,1.15,-3.6,0.24,11.72,914.31,21.9,
4943206,-0.05,-0.05,1.13,-3.78,0.92,11.72,914.28,21.89,
4943257,-0.07,-0.05,1.13,-3.54,1.83,11.84,914.32,21.89,
4943295,-0.05,-0.05,1.13,-3.72,1.71,12.02,914.29,21.9,
4943333,-0.05,-0.05,1.14,-3.78,1.46,12.21,914.32,21.89,
4943372,-0.05,-0.05,1.16,-3.91,0.98,12.21,914.35,21.9,
4943410,-0.04,-0.05,1.17,-4.03,1.22,12.45,914.33,21.9,
4943448,-0.05,-0.05,1.14,-4.21,1.71,12.45,914.34,21.9,
4943486,-0.04,-0.05,1.18,-4.09,1.89,12.82,914.35,21.9,
4943525,-0.04,-0.05,1.15,-3.85,1.83,12.82,914.41,21.9,
4943563,-0.05,-0.04,1.16,-3.85,0.79,13.12,914.3,21.9,
4943613,-0.04,-0.05,1.15,-3.78,1.16,13.06,914.43,21.9,
4943652,-0.04,-0.05,1.19,-3.66,0.98,12.88,914.38,21.89,
4943690,-0.03,-0.06,1.16,-4.09,1.59,13.0,914.42,21.89,
4943728,-0.03,-0.04,1.21,-3.91,0.79,13.06,914.35,21.9,
4943766,-0.04,-0.04,1.21,-4.21,1.22,13.12,914.34,21.9,
4943805,-0.03,-0.04,1.2,-4.46,0.85,13.24,914.38,21.91,
4943843,-0.04,-0.05,1.24,-4.46,1.16,13.18,914.36,21.9,
4943881,-0.04,-0.05,1.2,-4.64,1.53,13.12,914.44,21.92,
4943920,-0.02,-0.04,1.24,-4.33,2.01,13.12,914.41,21.91,
4943970,-0.02,-0.04,1.19,-4.33,2.08,12.94,914.42,21.9,
4944008,-0.03,-0.05,1.19,-4.27,2.56,12.88,914.47,21.91,
4944047,-0.03,-0.05,1.16,-4.03,3.3,12.76,914.42,21.9,
4944085,-0.02,-0.06,1.1,-3.85,3.97,12.7,914.5,21.91,
4944123,-0.02,-0.06,1.1,-3.6,3.17,12.7,914.54,21.9,
4944162,-0.02,-0.08,0.99,-3.78,4.15,12.7,914.52,21.91,
4944200,-0.02,-0.06,0.94,-3.91,4.39,12.63,914.51,21.91,
4944238,-0.01,-0.06,0.92,-3.48,4.94,12.57,914.51,21.91,
4944277,-0.02,-0.07,0.91,-3.6,3.85,12.63,914.55,21.91,
4944315,-0.03,-0.06,0.95,-3.66,3.23,12.63,914.53,21.91,
4944391,0.01,-0.05,1.03,-4.58,1.65,12.51,914.55,21.88,
4944429,-0.02,-0.05,1.1,-4.46,0.55,12.63,914.53,21.89,
4944467,-0.01,-0.06,1.08,-5.0,0.79,12.63,914.5,21.88,
4944557,-0.01,-0.06,1.14,-5.13,0.31,12.57,914.56,21.86,
4944596,-0.03,-0.04,1.19,-4.64,-1.16,12.39,914.64,21.88,
4944634,0.01,-0.05,1.17,-4.88,0.18,12.45,914.55,21.87,
4944672,0.0,-0.06,1.2,-4.58,-0.92,12.15,914.6,21.89,
4944711,-0.01,-0.06,1.23,-4.39,-0.67,12.21,914.61,21.89,
4944749,-0.0,-0.05,1.23,-4.09,-0.85,11.84,914.57,21.89,
4944799,-0.01,-0.05,1.26,-4.39,-0.24,11.84,914.59,21.88,
4944838,0.0,-0.05,1.29,-4.21,-1.1,11.6,914.61,21.88,
4944876,0.01,-0.05,1.29,-4.09,-1.16,11.41,914.56,21.89,
4944914,-0.01,-0.05,1.28,-4.03,-0.31,11.29,914.65,21.89,
4944953,0.0,-0.04,1.33,-4.09,-0.06,11.05,914.66,21.91,
4944991,0.0,-0.05,1.32,-3.78,-0.18,10.93,914.62,21.89,
4945029,-0.01,-0.05,1.33,-4.15,0.37,10.99,914.63,21.91,
4945067,0.0,-0.04,1.38,-4.09,0.61,10.5,914.58,21.9,
4945106,-0.01,-0.04,1.39,-3.91,0.67,10.56,914.63,21.91,
4945156,0.01,-0.04,1.37,-3.91,0.49,10.44,914.63,21.9,
4945194,-0.01,-0.03,1.37,-3.85,0.06,10.31,914.64,21.9,
4945232,-0.01,-0.03,1.39,-4.03,0.06,10.19,914.61,21.9,
4945271,-0.01,-0.04,1.38,-4.09,0.0,10.19,914.6,21.91,
4945309,-0.0,-0.04,1.41,-4.27,-0.43,9.89,914.61,21.9,
4945347,-0.0,-0.04,1.44,-4.15,-0.12,9.95,914.62,21.9,
4945386,-0.02,-0.04,1.42,-4.09,0.0,9.89,914.6,21.91,
4945424,0.0,-0.04,1.41,-3.66,0.49,9.89,914.61,21.91,
4945462,-0.02,-0.04,1.37,-3.72,0.12,9.7,914.65,21.91,
4945501,-0.02,-0.05,1.32,-3.66,0.67,9.7,914.66,21.92,
4945551,-0.0,-0.05,1.32,-3.3,0.67,9.09,914.65,21.9,
4945589,-0.02,-0.04,1.3,-2.87,0.31,9.34,914.65,21.91,
4945627,-0.02,-0.06,1.31,-2.69,0.98,9.4,914.62,21.9,
4945665,-0.01,-0.05,1.25,-2.62,1.59,9.22,914.66,21.9,
4945704,-0.02,-0.06,1.27,-2.56,1.28,8.97,914.71,21.91,
4945742,-0.02,-0.06,1.19,-2.5,1.59,9.46,914.72,21.91,
4945781,-0.02,-0.06,1.14,-2.62,1.34,9.34,914.71,21.91,
4945819,-0.02,-0.06,1.14,-2.75,1.22,9.09,914.66,21.92,
4945857,-0.03,-0.06,1.11,-2.81,0.49,9.52,914.69,21.9,
4945907,-0.05,-0.06,1.11,-2.87,0.24,9.46,914.66,21.89,
4945946,-0.04,-0.06,1.12,-2.93,0.49,9.46,914.7,21.9,
4945984,-0.03,-0.06,1.14,-3.48,0.12,9.7,914.67,21.9,
4946022,-0.02,-0.07,1.11,-3.66,0.67,9.52,914.69,21.9,
4946060,-0.03,-0.06,1.12,-3.66,1.77,9.64,914.68,21.91,
4946099,-0.03,-0.06,1.13,-3.72,2.56,9.7,914.65,21.91,
4946137,-0.04,-0.06,1.1,-3.66,2.81,9.89,914.65,21.9,
4946175,-0.04,-0.07,1.15,-3.54,3.54,10.01,914.58,21.9,
4946214,-0.04,-0.07,1.13,-3.36,3.6,10.13,914.65,21.91,
4946252,-0.03,-0.06,1.18,-3.36,3.85,10.31,914.66,21.91,
4946302,-0.03,-0.06,1.15,-3.17,4.03,10.62,914.59,21.9,
4946340,-0.04,-0.06,1.2,-3.11,3.85,10.74,914.62,21.9,
4946378,-0.03,-0.07,1.16,-3.3,4.52,10.8,914.66,21.9,
4946417,-0.02,-0.06,1.18,-3.17,4.15,10.93,914.67,21.9,
4946455,-0.01,-0.05,1.21,-3.23,5.07,10.93,914.62,21.91,
4946493,-0.02,-0.06,1.17,-3.3,5.86,11.11,914.62,21.9,
4946532,-0.0,-0.06,1.24,-3.23,6.47,11.17,914.66,21.9,
4946570,-0.0,-0.07,1.19,-2.99,8.18,11.05,914.6,21.9,
4946608,-0.02,-0.06,1.19,-2.75,8.48,11.11,914.7,21.91,
4946658,0.0,-0.07,1.15,-2.87,10.44,11.17,914.67,21.89,
4946697,0.0,-0.06,1.15,-2.87,10.38,10.93,914.61,21.89,
4946735,0.0,-0.06,1.14,-2.81,11.41,10.99,914.68,21.9,
4946773,0.02,-0.07,1.11,-2.81,11.54,10.99,914.73,21.91,
4946812,0.01,-0.06,1.14,-2.87,10.99,10.93,914.74,21.9,
4946850,0.0,-0.08,1.09,-3.17,11.54,10.99,914.65,21.9,
4946888,0.01,-0.07,1.14,-3.3,10.62,11.05,914.74,21.9,
4946927,0.02,-0.06,1.14,-3.3,10.68,10.93,914.7,21.9,
4946965,0.01,-0.06,1.13,-3.48,9.58,10.99,914.7,21.91,
4947015,0.01,-0.07,1.14,-3.85,10.44,10.99,914.74,21.89,
4947053,0.03,-0.07,1.15,-3.72,10.07,10.8,914.74,21.89,
4947091,0.01,-0.06,1.22,-3.72,9.7,10.74,914.72,21.89,
4947130,0.02,-0.07,1.18,-3.72,9.77,10.86,914.7,21.89,
4947168,0.01,-0.06,1.21,-3.6,9.77,10.74,914.73,21.89,
4947206,0.02,-0.06,1.17,-3.48,9.89,10.56,914.77,21.9,
4947244,0.02,-0.06,1.16,-3.36,9.7,10.56,914.72,21.9,
4947283,0.01,-0.07,1.14,-3.23,10.44,10.5,914.73,21.89,
4947321,0.02,-0.06,1.14,-2.93,10.44,10.44,914.76,21.9,
4947359,0.02,-0.07,1.16,-2.87,10.99,10.38,914.77,21.89,
4947437,0.01,-0.06,1.22,-2.62,11.9,10.31,914.79,21.87,
4947475,0.02,-0.06,1.2,-2.62,12.21,10.13,914.79,21.89,
4947513,0.02,-0.05,1.24,-2.5,12.33,10.07,914.78,21.88,
4947603,0.03,-0.06,1.21,-2.2,13.24,9.95,914.72,21.86,
4947642,0.03,-0.06,1.17,-2.08,13.24,9.89,914.77,21.86,
4947680,0.03,-0.05,1.18,-2.2,12.82,9.58,914.77,21.88,
4947718,0.03,-0.05,1.18,-2.08,12.82,9.34,914.77,21.88,
4947757,0.03,-0.06,1.18,-2.2,12.88,9.46,914.77,21.89,
4947795,0.04,-0.05,1.19,-2.38,12.51,9.4,914.77,21.89,
4947845,0.03,-0.05,1.22,-2.08,11.84,9.16,914.79,21.87,
4947883,0.03,-0.06,1.19,-2.14,11.84,9.28,914.8,21.89,
4947921,0.04,-0.06,1.17,-2.26,10.68,8.97,914.83,21.87,
4947960,0.03,-0.05,1.18,-1.95,9.34,9.16,914.86,21.89,
4947998,0.03,-0.05,1.18,-2.08,8.18,9.03,914.8,21.88,
4948036,0.02,-0.06,1.18,-1.89,7.51,9.03,914.87,21.89,
4948075,0.03,-0.06,1.17,-1.89,6.71,8.79,914.87,21.91,
4948113,0.05,-0.05,1.19,-1.77,6.16,8.79,914.82,21.9,
4948151,0.03,-0.06,1.18,-1.71,6.04,8.67,914.8,21.89,
4948190,0.03,-0.06,1.19,-1.65,5.49,8.24,914.86,21.91,
4948239,0.03,-0.06,1.2,-1.46,5.62,8.24,914.87,21.89,
4948278,0.03,-0.06,1.19,-1.46,5.68,7.93,914.83,21.91,
4948316,0.03,-0.05,1.23,-1.46,5.92,7.69,914.84,21.88,
4948354,0.04,-0.06,1.2,-1.28,6.47,7.51,914.84,21.89,
4948393,0.03,-0.06,1.22,-1.22,6.47,7.39,914.86,21.89,
4948431,0.03,-0.06,1.21,-1.22,7.32,7.2,914.82,21.9,
4948469,0.03,-0.07,1.17,-1.16,7.39,6.9,914.88,21.9,
4948508,0.03,-0.06,1.2,-1.16,7.02,6.9,914.81,21.9,
4948546,0.03,-0.06,1.16,-1.1,6.77,6.59,914.85,21.9,
4948596,0.04,-0.07,1.16,-1.16,7.14,6.47,914.89,21.89,
4948634,0.04,-0.07,1.16,-0.92,6.47,6.41,914.84,21.9,
4948673,0.02,-0.08,1.12,-0.98,6.84,6.16,914.83,21.89,
4948711,0.03,-0.07,1.08,-0.92,7.08,6.04,914.81,21.9,
4948749,0.03,-0.07,1.07,-0.73,7.32,5.92,914.84,21.9,
4948787,0.02,-0.08,0.98,-0.85,7.2,5.74,914.83,21.91,
4948826,0.03,-0.07,0.98,-0.79,7.14,5.43,914.8,21.91,
4948864,0.03,-0.08,1.02,-0.43,6.96,5.43,914.77,21.89,
4948902,0.03,-0.07,1.0,-0.43,6.23,5.37,914.79,21.91,
4948940,0.01,-0.06,1.06,-0.55,5.8,5.25,914.85,21.9,
4948990,0.03,-0.07,1.07,-0.73,6.29,4.88,914.82,21.89,
4949029,0.04,-0.07,1.11,-0.67,5.62,4.88,914.82,21.89,
4949067,0.03,-0.06,1.11,-0.92,6.35,4.76,914.84,21.89,
4949105,0.03,-0.06,1.11,-0.73,6.04,4.46,914.86,21.91,
4949144,0.02,-0.06,1.09,-0.85,6.29,4.39,914.85,21.9,
4949182,0.02,-0.06,1.09,-0.49,6.65,4.33,914.77,21.89,
4949220,0.03,-0.07,1.15,-0.55,6.77,4.09,914.79,21.9,
4949259,0.03,-0.07,1.12,-0.31,7.51,3.91,914.81,21.89,
4949297,0.03,-0.06,1.13,0.0,7.32,3.91,914.82,21.9,
4949335,0.03,-0.07,1.1,0.06,7.93,3.85,914.83,21.91,
4949385,0.04,-0.06,1.09,0.24,7.93,3.54,914.81,21.88,
4949423,0.02,-0.07,1.03,0.06,7.63,3.42,914.79,21.91,
4949462,0.01,-0.07,1.0,0.12,8.12,3.42,914.78,21.91,
4949500,0.05,-0.07,1.02,0.0,8.54,3.05,914.76,21.89,
4949538,0.04,-0.06,1.06,0.43,7.57,2.99,914.78,21.89,
4949576,0.02,-0.07,0.97,0.12,8.54,3.05,914.81,21.89,
4949615,0.02,-0.06,0.98,0.0,8.54,2.87,914.81,21.9,
4949653,0.03,-0.08,0.95,-0.06,9.16,2.93,914.83,21.9,
4949691,0.03,-0.07,0.95,0.12,7.81,2.56,914.84,21.9,
4949730,0.02,-0.06,0.97,0.49,8.06,2.44,914.79,21.91,
4949779,0.04,-0.07,0.93,0.24,8.12,2.2,914.84,21.88,
4949818,0.03,-0.06,0.97,0.73,7.87,2.01,914.85,21.88,
4949856,0.01,-0.08,0.91,0.73,8.36,2.01,914.84,21.89,
4949894,0.02,-0.07,0.94,1.04,7.81,1.77,914.87,21.9,
4949933,0.02,-0.07,0.89,1.04,8.42,1.53,914.79,21.89,
4949971,0.02,-0.07,0.88,0.79,7.57,1.4,914.78,21.89,
4950009,0.02,-0.06,0.9,0.92,8.06,1.34,914.81,21.9,
4950047,0.02,-0.07,0.92,0.92,7.87,1.16,914.81,21.92,
4950086,0.02,-0.07,0.96,0.98,7.26,1.16,914.82,21.91,
4950136,0.0,-0.07,0.96,0.98,7.08,0.92,914.81,21.88,
4950174,0.02,-0.07,1.0,0.79,6.84,0.73,914.86,21.89,
4950212,0.02,-0.07,1.0,0.73,5.92,0.73,914.87,21.89,
4950251,0.02,-0.06,1.0,1.1,5.55,0.73,914.91,21.9,
4950289,0.01,-0.06,1.0,1.4,5.0,0.67,914.84,21.89,
4950327,0.0,-0.06,1.0,1.46,4.15,0.61,914.86,21.89,
4950366,0.0,-0.06,1.0,1.46,4.09,0.49,914.91,21.9,
4950404,0.01,-0.06,1.0,1.59,4.09,0.43,914.85,21.89,
4950442,0.01,-0.07,1.0,1.77,3.72,0.37,914.89,21.9,
4950481,-0.0,-0.06,1.0,1.77,2.93,0.37,914.85,21.89,
4950557,-0.0,-0.06,1.02,2.5,2.93,0.24,914.87,21.87,
4950595,0.01,-0.08,1.02,2.56,3.48,0.12,914.89,21.88,
4950633,-0.0,-0.06,1.02,3.05,2.56,0.06,914.91,21.89,
4950723,0.0,-0.06,0.99,3.11,3.6,-0.18,914.88,21.85,
4950761,-0.01,-0.07,0.96,3.17,3.91,-0.49,914.89,21.87,
4950800,-0.01,-0.07,0.96,3.36,4.27,-0.43,914.86,21.87,
4950838,-0.02,-0.07,0.96,3.36,5.19,-0.61,914.88,21.87,
4950876,-0.02,-0.07,0.96,3.3,4.82,-0.61,914.87,21.88,
4950915,-0.03,-0.07,0.96,3.42,5.37,-0.61,914.79,21.87,
4950953,-0.02,-0.07,0.91,3.11,6.65,-0.67,914.81,21.88,
4951003,-0.02,-0.07,0.93,3.36,6.59,-0.79,914.84,21.87,
4951041,-0.03,-0.07,0.88,2.56,6.41,-0.43,914.82,21.88,
4951080,-0.04,-0.06,0.93,2.99,5.92,-0.49,914.84,21.87,
4951118,-0.03,-0.07,0.9,2.93,6.59,-0.43,914.83,21.88,
4951156,-0.04,-0.06,0.94,3.11,5.13,-0.24,914.83,21.88,
4951195,-0.04,-0.07,0.95,3.11,5.55,-0.12,914.79,21.89,
4951233,-0.03,-0.06,0.98,3.23,4.94,0.0,914.78,21.9,
4951271,-0.03,-0.07,0.98,3.3,5.0,0.12,914.82,21.88,
4951310,-0.03,-0.07,0.92,3.17,4.82,0.12,914.83,21.89,
4951360,-0.06,-0.07,0.96,3.78,4.76,0.37,914.81,21.88,
4951398,-0.03,-0.08,0.88,3.48,5.13,0.43,914.74,21.87,
4951436,-0.05,-0.05,0.94,3.97,4.39,0.55,914.76,21.88,
4951475,-0.05,-0.08,0.84,3.72,6.59,0.67,914.76,21.88,
4951513,-0.05,-0.06,0.87,3.78,5.13,0.73,914.78,21.88,
4951551,-0.04,-0.07,0.87,3.85,5.49,0.79,914.75,21.89,
4951590,-0.03,-0.06,0.83,3.17,5.55,0.98,914.74,21.88,
4951628,-0.04,-0.07,0.89,3.6,5.19,1.22,914.68,21.89,
4951666,-0.05,-0.08,0.88,2.93,5.07,1.46,914.78,21.89,
4951705,-0.06,-0.07,0.92,2.69,5.0,1.28,914.81,21.89,
4951755,-0.05,-0.07,0.94,2.44,5.68,1.71,914.77,21.88,
4951793,-0.05,-0.07,0.95,2.44,5.43,1.77,914.79,21.89,
4951831,-0.04,-0.07,0.97,2.14,5.86,1.89,914.75,21.89,
4951869,-0.05,-0.07,0.96,2.14,5.86,1.95,914.72,21.88,
4951908,-0.03,-0.07,0.95,2.01,5.98,2.14,914.78,21.89,
4951946,-0.04,-0.07,0.96,1.71,5.62,2.2,914.78,21.9,
4951984,-0.04,-0.07,0.97,1.34,5.37,2.38,914.79,21.9,
4952023,-0.04,-0.08,0.97,1.04,5.74,2.44,914.72,21.89,
4952061,-0.04,-0.07,1.0,0.73,5.8,2.5,914.76,21.9,
4952099,-0.03,-0.07,1.0,0.61,5.31,2.62,914.76,21.9,
4952149,-0.03,-0.07,1.0,0.37,5.31,2.75,914.77,21.89,
4952188,-0.04,-0.07,1.0,0.0,5.74,2.69,914.83,21.89,
4952226,-0.04,-0.07,1.01,-0.12,5.19,2.69,914.82,21.89,
4952264,-0.03,-0.06,1.05,-0.24,5.25,2.69,914.83,21.9,
4952302,-0.03,-0.06,1.07,-0.37,5.86,2.69,914.83,21.89,
4952341,-0.03,-0.06,1.08,-0.55,5.62,2.75,914.8,21.89,
4952379,-0.03,-0.06,1.16,-0.61,4.64,2.75,914.77,21.89,
4952417,-0.02,-0.06,1.15,-0.85,4.88,2.87,914.85,21.9,
4952456,-0.02,-0.05,1.22,-0.55,4.58,2.81,914.8,21.88,
4952506,-0.03,-0.06,1.17,-0.85,4.27,2.93,914.84,21.89,
4952544,-0.04,-0.06,1.18,-0.43,3.48,2.87,914.79,21.89,
4952582,-0.02,-0.06,1.17,-0.55,3.91,2.93,914.85,21.89,
4952621,-0.02,-0.06,1.17,-0.37,3.66,2.62,914.82,21.9,
4952659,-0.02,-0.06,1.16,-0.24,3.36,2.69,914.82,21.9,
4952697,-0.02,-0.07,1.15,-0.31,2.69,2.62,914.85,21.9,
4952735,-0.03,-0.06,1.13,-0.18,3.11,2.75,914.85,21.9,
4952774,-0.02,-0.06,1.14,0.0,3.05,2.5,914.87,21.91,
4952812,-0.02,-0.06,1.11,-0.06,3.17,2.38,914.83,21.9,
4952850,-0.02,-0.06,1.09,-0.12,3.72,2.32,914.82,21.89,
4952900,-0.01,-0.06,1.08,-0.18,3.97,2.14,914.79,21.89,
4952938,-0.02,-0.06,1.08,-0.31,3.85,2.2,914.89,21.89,
4952977,-0.03,-0.06,1.1,0.06,4.03,1.95,914.84,21.9,
4953015,-0.01,-0.06,1.11,0.0,4.09,2.2,914.85,21.89,
4953053,0.0,-0.05,1.13,0.43,4.21,1.77,914.87,21.9,
4953092,-0.02,-0.06,1.14,0.73,4.15,1.83,914.77,21.9,
4953130,-0.02,-0.07,1.14,0.85,3.54,1.89,914.78,21.89,
4953168,-0.0,-0.06,1.15,0.85,3.42,1.65,914.82,21.89,
4953207,-0.02,-0.06,1.15,0.98,3.17,1.59,914.85,21.89,
4953257,-0.02,-0.06,1.13,1.34,3.05,1.71,914.83,21.89,
4953295,-0.02,-0.06,1.12,1.89,3.11,1.53,914.8,21.87,
4953333,-0.02,-0.07,1.1,2.14,2.87,1.53,914.81,21.89,
4953372,-0.02,-0.07,1.03,2.26,2.44,1.65,914.84,21.88,
4953410,-0.03,-0.06,1.02,2.44,1.95,1.53,914.8,21.88,
4953448,-0.02,-0.07,1.0,2.5,2.2,1.4,914.77,21.88,
4953486,-0.02,-0.07,0.98,2.5,1.83,1.65,914.76,21.87,
4953525,-0.03,-0.06,0.97,2.56,1.95,1.65,914.73,21.88,
4953563,-0.03,-0.07,0.95,2.44,1.83,1.53,914.79,21.88,
4953601,-0.03,-0.06,0.95,2.38,1.4,1.53,914.76,21.88,
4953678,-0.03,-0.07,0.92,2.2,0.85,1.46,914.75,21.84,
4953716,-0.03,-0.07,0.92,2.14,0.85,1.53,914.75,21.87,
4953754,-0.02,-0.07,0.92,2.14,0.67,1.53,914.75,21.87,
4953844,-0.03,-0.07,0.9,1.83,1.1,1.59,914.75,21.83,
4953882,-0.02,-0.07,0.91,1.71,1.16,1.46,914.68,21.85,
4953921,-0.02,-0.06,0.93,1.59,1.04,1.34,914.75,21.86,
4953959,-0.03,-0.06,0.93,1.4,1.34,1.46,914.72,21.86,
4953997,-0.03,-0.07,0.95,1.28,2.2,1.34,914.71,21.87,
4954036,-0.02,-0.07,0.99,1.46,2.32,1.4,914.74,21.87,
4954074,-0.03,-0.06,0.99,1.53,2.5,1.22,914.7,21.88,
4954124,-0.03,-0.06,0.97,1.46,3.23,1.1,914.69,21.86,
4954162,-0.03,-0.06,0.99,1.46,3.78,1.16,914.73,21.89,
4954201,-0.03,-0.07,1.0,1.59,3.72,1.16,914.69,21.87,
4954239,-0.03,-0.07,0.97,1.71,3.66,1.16,914.73,21.88,
4954277,-0.04,-0.06,0.98,2.14,3.54,1.46,914.71,21.86,
4954316,-0.03,-0.07,0.97,2.2,3.6,1.65,914.68,21.87,
4954354,-0.03,-0.06,0.95,2.44,2.26,1.71,914.78,21.89,
4954392,-0.02,-0.06,0.92,2.56,1.53,1.95,914.69,21.88,
4954430,-0.02,-0.06,0.93,2.44,0.67,1.89,914.75,21.9,
4954481,-0.02,-0.07,0.91,2.38,0.24,2.14,914.68,21.87,
4954519,-0.01,-0.06,0.92,2.32,-0.37,2.2,914.65,21.88,
4954557,-0.03,-0.07,0.91,2.26,-0.31,2.01,914.71,21.9,
4954595,-0.02,-0.07,0.88,2.32,-0.18,1.83,914.71,21.89,
4954634,-0.02,-0.06,0.91,2.38,-0.12,1.77,914.7,21.89,
4954672,-0.02,-0.07,0.85,2.14,0.67,1.77,914.65,21.88,
4954710,-0.02,-0.06,0.89,2.32,0.79,1.59,914.64,21.89,
4954749,-0.02,-0.06,0.87,2.14,2.2,1.53,914.68,21.88,
4954787,-0.02,-0.07,0.89,2.32,1.83,1.59,914.67,21.89,
4954825,-0.03,-0.07,0.89,2.44,2.2,1.59,914.72,21.89,
4954875,-0.02,-0.06,0.91,2.56,2.38,1.46,914.66,21.87,
4954914,-0.01,-0.07,0.9,2.62,3.05,1.59,914.67,21.88,
4954952,-0.01,-0.07,0.88,2.56,3.05,1.46,914.69,21.89,
4954990,-0.02,-0.06,0.9,2.62,3.54,1.46,914.72,21.89,
4955029,-0.02,-0.06,0.89,2.44,3.42,1.28,914.67,21.89,
4955067,-0.01,-0.06,0.92,2.69,3.23,1.4,914.66,21.88,
4955105,-0.03,-0.06,0.91,2.56,3.6,1.46,914.72,21.89,
4955143,-0.03,-0.06,0.98,2.81,2.99,1.28,914.68,21.89,
4955182,-0.02,-0.07,0.95,2.87,3.66,1.4,914.63,21.89,
4955220,-0.03,-0.06,0.98,2.99,2.93,1.16,914.69,21.89,
4955270,-0.02,-0.07,0.93,2.87,4.15,1.28,914.66,21.87,
4955308,-0.03,-0.06,0.95,3.3,3.6,1.22,914.73,21.88,
4955347,-0.03,-0.07,0.92,3.23,3.97,1.28,914.69,21.89,
4955385,-0.03,-0.06,0.9,3.36,3.42,1.34,914.66,21.89,
4955423,-0.02,-0.06,0.92,3.36,3.72,1.28,914.66,21.89,
4955462,-0.03,-0.06,0.9,3.3,3.48,1.34,914.59,21.87,
4955500,-0.02,-0.06,0.92,3.17,2.99,1.34,914.64,21.87,
4955538,-0.02,-0.06,0.9,3.05,3.3,1.22,914.61,21.88,
4955577,-0.02,-0.06,0.92,2.99,2.62,1.28,914.68,21.89,
4955627,-0.02,-0.07,0.92,2.75,2.99,1.34,914.66,21.87,
4955665,-0.03,-0.06,0.94,2.75,2.44,1.22,914.74,21.88,
4955703,-0.02,-0.06,0.92,2.69,3.05,1.34,914.67,21.87,
4955741,-0.02,-0.06,0.93,2.99,2.44,1.34,914.62,21.87,
4955780,-0.02,-0.06,0.93,2.69,2.32,1.34,914.68,21.88,
4955818,-0.03,-0.06,0.92,2.87,2.14,1.28,914.68,21.88,
4955856,-0.02,-0.06,0.91,2.93,2.5,1.4,914.63,21.88,
4955895,-0.02,-0.07,0.92,2.81,2.56,1.28,914.7,21.9,
4955933,-0.03,-0.07,0.91,2.93,2.26,1.4,914.65,21.89,
4955971,-0.02,-0.07,0.91,2.93,2.32,1.22,914.69,21.88,
4956021,-0.03,-0.06,0.87,3.11,2.69,1.28,914.67,21.89,
4956059,-0.02,-0.06,0.89,3.05,2.2,1.22,914.7,21.88,
4956098,-0.03,-0.07,0.88,3.05,2.2,1.46,914.7,21.9,
4956136,-0.03,-0.07,0.86,3.17,1.83,1.22,914.61,21.89,
4956174,-0.03,-0.06,0.86,3.3,1.65,1.22,914.69,21.89,
4956213,-0.03,-0.07,0.85,3.17,1.46,1.22,914.65,21.89,
4956251,-0.03,-0.07,0.86,2.99,1.53,1.28,914.69,21.89,
4956289,-0.04,-0.07,0.86,2.81,1.71,1.28,914.7,21.9,
4956328,-0.03,-0.07,0.88,2.87,1.59,1.34,914.67,21.89,
4956378,-0.03,-0.06,0.89,2.62,1.4,1.28,914.64,21.87,
4956416,-0.03,-0.06,0.89,2.87,1.53,1.4,914.67,21.88,
4956454,-0.02,-0.07,0.88,2.62,1.34,1.34,914.67,21.89,
4956493,-0.03,-0.07,0.89,2.38,1.4,1.34,914.66,21.88,
4956531,-0.02,-0.06,0.9,2.01,1.22,1.34,914.69,21.89,
4956569,-0.03,-0.09,0.92,2.01,1.53,1.34,914.7,21.9,
4956608,-0.02,-0.06,0.94,1.77,1.34,1.22,914.68,21.9,
4956646,-0.03,-0.06,0.97,1.71,1.22,1.46,914.64,21.88,
4956684,-0.02,-0.06,0.98,1.71,0.98,1.34,914.73,21.9,
4956722,-0.02,-0.06,1.01,1.89,0.55,1.28,914.7,21.9,
4956799,-0.02,-0.07,1.02,1.89,0.92,1.53,914.68,21.87,
4956837,-0.03,-0.06,1.0,1.89,1.16,1.46,914.75,21.89,
4956875,-0.03,-0.06,1.0,2.14,0.79,1.28,914.74,21.88,
4956965,-0.02,-0.06,1.01,2.44,1.34,1.22,914.75,21.85,
4957003,-0.02,-0.06,1.01,2.56,1.65,0.98,914.76,21.86,
4957042,-0.03,-0.06,0.98,2.38,1.46,1.1,914.76,21.87,
4957080,-0.03,-0.07,0.96,2.08,1.71,0.92,914.77,21.88,
4957118,-0.02,-0.06,0.98,2.2,1.59,0.85,914.77,21.88,
4957157,-0.02,-0.07,0.97,2.14,1.4,0.92,914.77,21.88,
4957195,-0.04,-0.07,0.94,2.08,1.71,0.79,914.78,21.89,
4957245,-0.02,-0.06,0.98,2.14,2.69,0.79,914.76,21.87,
4957283,-0.02,-0.07,0.96,2.2,2.62,0.85,914.72,21.88,
4957322,-0.03,-0.06,0.96,2.2,2.56,0.79,914.79,21.86,
4957360,-0.03,-0.06,0.97,2.26,3.36,0.79,914.76,21.88,
4957398,-0.02,-0.06,0.97,2.2,3.72,0.92,914.77,21.88,
4957437,-0.03,-0.06,0.98,2.38,3.6,0.61,914.78,21.88,
4957475,-0.04,-0.06,0.96,2.5,4.33,0.79,914.84,21.89,
4957513,-0.03,-0.06,0.99,2.69,4.33,0.79,914.82,21.89,
4957552,-0.01,-0.06,0.98,2.69,4.7,0.92,914.79,21.88,
4957601,-0.04,-0.06,0.98,2.75,4.33,0.79,914.81,21.88,
4957640,-0.03,-0.06,0.98,2.44,4.58,0.79,914.8,21.88,
4957678,-0.03,-0.06,0.95,2.32,4.46,0.92,914.82,21.89,
4957716,-0.03,-0.05,0.96,2.01,4.58,0.85,914.85,21.89,
4957755,-0.03,-0.07,0.95,2.01,4.64,0.98,914.9,21.89,
4957793,-0.04,-0.06,0.95,1.95,4.39,0.98,914.83,21.89,
4957831,-0.03,-0.06,0.99,2.01,4.76,1.1,914.83,21.89,
4957869,-0.03,-0.07,0.94,1.83,4.64,1.1,914.84,21.89,
4957908,-0.02,-0.06,0.95,1.95,4.58,1.16,914.83,21.88,
4957946,-0.03,-0.06,0.95,2.2,4.46,1.28,914.84,21.89,
4957996,-0.04,-0.07,0.92,2.32,4.21,1.53,914.85,21.88,
4958034,-0.03,-0.06,0.94,2.38,4.03,1.28,914.83,21.87,
4958072,-0.03,-0.06,0.93,2.62,4.27,1.34,914.88,21.89,
4958111,-0.03,-0.07,0.94,2.62,4.09,1.46,914.91,21.89,
4958149,-0.03,-0.06,0.91,2.62,4.15,1.4,914.91,21.88,
4958187,-0.03,-0.07,0.93,2.87,3.97,1.59,914.87,21.87,
4958226,-0.03,-0.07,0.89,2.56,3.91,1.53,914.87,21.89,
4958264,-0.04,-0.06,0.91,2.56,3.11,1.53,914.92,21.9,
4958302,-0.03,-0.07,0.89,2.38,3.54,1.53,914.9,21.89,
4958341,-0.03,-0.07,0.89,2.08,3.17,1.34,914.9,21.89,
4958390,-0.02,-0.06,0.91,2.01,3.54,1.53,914.89,21.88,
4958429,-0.02,-0.07,0.93,2.32,3.11,1.53,914.89,21.89,
4958467,-0.04,-0.07,0.91,2.08,3.78,1.4,914.97,21.89,
4958505,-0.02,-0.07,0.95,2.14,3.17,1.53,914.91,21.89,
4958544,-0.03,-0.06,0.95,2.01,3.42,1.28,914.88,21.88,
4958582,-0.03,-0.06,0.95,2.01,2.93,1.4,914.87,21.88,
4958620,-0.03,-0.06,0.95,1.83,3.3,1.4,914.93,21.88,
4958658,-0.02,-0.06,0.95,1.95,3.11,1.34,914.98,21.89,
4958697,-0.03,-0.06,0.97,1.89,2.87,1.34,914.98,21.89,
4958747,-0.04,-0.06,0.97,1.77,2.87,1.4,914.94,21.87,
4958785,-0.03,-0.06,0.99,1.59,2.87,1.4,914.94,21.89,
4958823,-0.02,-0.06,0.97,1.53,3.11,1.28,915.03,21.88,
4958862,-0.03,-0.06,1.0,1.46,2.81,1.46,915.02,21.9,
4958900,-0.03,-0.06,1.0,1.28,2.75,1.22,914.97,21.88,
4958938,-0.02,-0.06,1.0,1.34,2.81,1.22,915.0,21.9,
4958976,-0.03,-0.06,1.01,1.16,2.99,1.4,914.97,21.89,
4959015,-0.02,-0.06,1.03,1.04,2.69,1.46,914.97,21.9,
4959053,-0.03,-0.06,1.03,0.92,2.69,1.28,915.04,21.91,
4959091,-0.02,-0.06,1.03,0.98,2.75,1.4,915.07,21.9,
4959141,-0.03,-0.06,1.04,0.98,2.75,1.28,914.93,21.87,
4959179,-0.03,-0.06,1.05,0.98,2.93,1.22,915.07,21.9,
4959218,-0.03,-0.06,1.05,0.85,2.81,1.22,915.05,21.89,
4959256,-0.03,-0.09,1.05,1.16,2.56,1.28,915.06,21.9,
4959294,-0.03,-0.06,1.04,1.16,2.56,1.28,915.07,21.91,
4959333,-0.03,-0.06,1.04,1.28,2.44,1.04,915.08,21.9,
4959371,-0.03,-0.06,1.04,1.28,2.01,1.1,915.12,21.9,
4959409,-0.02,-0.06,1.06,1.46,1.53,1.28,915.1,21.89,
4959447,-0.03,-0.06,1.05,1.28,1.16,1.28,915.03,21.89,
4959486,-0.02,-0.06,1.07,1.28,1.53,1.1,915.12,21.9,
4959536,-0.03,-0.06,1.08,1.46,1.1,1.28,915.05,21.89,
4959574,-0.03,-0.06,1.08,1.53,1.22,1.22,915.14,21.88,
4959612,-0.03,-0.06,1.05,1.46,1.28,1.22,915.1,21.9,
4959651,-0.04,-0.06,1.06,1.46,1.4,1.22,915.1,21.89,
4959689,-0.03,-0.06,1.05,1.65,1.28,1.16,915.1,21.89,
4959727,-0.02,-0.06,1.04,1.59,0.98,0.98,915.15,21.9,
4959765,-0.03,-0.06,1.03,1.65,0.85,1.16,915.11,21.89,
4959804,-0.03,-0.06,1.02,1.59,0.85,1.16,915.08,21.89,
4959842,-0.03,-0.07,1.0,1.46,1.1,1.16,915.09,21.9,
4959918,-0.03,-0.06,1.01,1.53,1.16,1.04,915.16,21.87,
4959956,-0.03,-0.06,1.02,1.46,0.61,0.85,915.18,21.89,
4959995,-0.03,-0.06,1.03,1.46,0.43,0.98,915.15,21.9,
4960084,-0.02,-0.06,1.02,1.4,0.12,1.16,915.12,21.85,
4960123,-0.04,-0.06,1.01,1.34,-0.31,1.16,915.19,21.86,
4960161,-0.04,-0.07,1.0,1.34,0.0,1.1,915.16,21.87,
4960199,-0.01,-0.06,0.99,1.46,0.67,1.04,915.17,21.87,
4960238,-0.02,-0.06,0.99,1.4,0.85,0.85,915.2,21.88,
4960276,-0.04,-0.06,0.95,1.22,0.92,1.16,915.15,21.87,
4960314,-0.04,-0.06,0.99,1.34,1.53,0.92,915.21,21.89,
4960364,-0.03,-0.07,0.99,1.22,1.77,0.92,915.21,21.88,
4960403,-0.04,-0.07,1.02,1.22,1.89,1.16,915.2,21.89,
4960441,-0.04,-0.07,1.0,1.16,2.87,0.98,915.27,21.9,
4960479,-0.03,-0.06,1.05,1.4,2.32,1.1,915.28,21.89,
4960518,-0.03,-0.07,1.01,1.28,3.05,1.1,915.21,21.9,
4960556,-0.04,-0.06,1.01,1.4,2.99,1.16,915.25,21.89,
4960594,-0.04,-0.06,1.01,1.16,3.72,1.04,915.21,21.89,
4960632,-0.04,-0.06,1.03,1.4,3.48,1.22,915.2,21.88,
4960671,-0.04,-0.07,1.04,1.4,3.97,1.28,915.2,21.89,
4960709,-0.03,-0.06,1.05,1.4,4.03,1.1,915.21,21.9,
4960759,-0.04,-0.06,1.04,1.59,4.46,1.46,915.22,21.87,
4960797,-0.04,-0.06,1.02,1.77,4.15,1.34,915.32,21.89,
4960836,-0.04,-0.06,1.01,1.71,4.03,1.46,915.23,21.88,
4960874,-0.04,-0.06,1.0,1.77,3.85,1.71,915.3,21.89,
4960912,-0.03,-0.07,1.0,1.89,3.91,1.59,915.32,21.89,
4960950,-0.03,-0.06,0.98,1.95,4.03,1.65,915.27,21.89,
4960989,-0.03,-0.06,1.0,2.08,3.6,1.83,915.27,21.89,
4961027,-0.03,-0.07,0.98,1.77,3.6,1.83,915.2,21.89,
4961065,-0.03,-0.06,1.0,1.77,2.99,1.83,915.25,21.9,
4961115,-0.03,-0.06,0.97,1.46,2.99,2.08,915.28,21.87,
4961154,-0.03,-0.06,0.99,1.53,2.5,1.77,915.26,21.89,
4961192,-0.04,-0.06,0.97,1.53,2.75,2.14,915.27,21.88,
4961230,-0.03,-0.06,0.98,1.28,2.32,2.14,915.26,21.89,
4961269,-0.04,-0.07,0.97,1.22,2.93,2.14,915.3,21.88,
4961307,-0.03,-0.07,0.96,1.46,3.17,1.95,915.23,21.88,
4961345,-0.03,-0.06,0.95,1.28,3.23,2.14,915.33,21.89,
4961384,-0.04,-0.07,0.94,1.16,3.11,2.01,915.25,21.88,
4961422,-0.03,-0.06,0.96,1.04,3.23,2.01,915.28,21.88,
4961460,-0.04,-0.06,0.97,1.1,3.3,2.2,915.28,21.89,
4961510,-0.03,-0.07,0.98,0.98,3.42,2.14,915.35,21.88,
4961548,-0.04,-0.06,0.99,1.1,3.17,2.38,915.34,21.89,
4961587,-0.04,-0.07,0.98,1.28,3.3,2.14,915.33,21.88,
4961625,-0.04,-0.07,0.97,1.28,3.36,2.26,915.37,21.88,
4961663,-0.04,-0.06,0.96,1.4,3.48,2.32,915.35,21.89,
4961702,-0.04,-0.07,0.95,1.22,3.6,2.38,915.39,21.89,
4961740,-0.04,-0.07,0.96,1.22,3.48,2.62,915.33,21.87,
4961778,-0.03,-0.07,0.94,1.28,3.6,2.32,915.39,21.89,
4961816,-0.03,-0.07,0.93,1.4,3.23,2.44,915.33,21.88,
4961855,-0.03,-0.07,0.93,1.4,3.36,2.38,915.31,21.89,
4961905,-0.04,-0.06,0.94,1.4,3.42,2.56,915.34,21.89,
4961943,-0.03,-0.06,0.95,1.16,2.99,2.5,915.38,21.88,
4961981,-0.03,-0.06,0.96,1.04,2.99,2.75,915.33,21.88,
4962019,-0.03,-0.07,0.99,1.16,2.87,2.62,915.35,21.89,
4962058,-0.03,-0.07,0.99,1.28,2.44,2.56,915.37,21.88,
4962096,-0.04,-0.06,1.02,1.16,1.4,2.81,915.37,21.89,
4962134,-0.03,-0.06,1.02,1.28,1.71,2.81,915.36,21.88,
4962173,-0.03,-0.06,1.04,1.4,1.4,2.81,915.36,21.88,
4962211,-0.03,-0.06,1.03,1.4,1.16,2.75,915.5,21.88,
4962261,-0.03,-0.06,1.02,1.59,0.67,2.87,915.39,21.88,
4962299,-0.04,-0.06,1.03,1.71,1.22,2.69,915.38,21.89,
4962337,-0.02,-0.06,1.03,1.83,1.28,2.81,915.41,21.88,
4962376,-0.02,-0.06,1.04,1.77,1.16,2.69,915.42,21.89,
4962414,-0.03,-0.06,1.03,1.71,1.16,2.62,915.48,21.89,
4962452,-0.03,-0.06,1.04,1.65,1.46,2.81,915.4,21.88,
4962490,-0.02,-0.06,1.05,1.53,1.53,2.69,915.46,21.89,
4962529,-0.02,-0.06,1.05,1.71,1.65,2.44,915.44,21.89,
4962567,-0.03,-0.06,1.06,1.53,1.89,2.56,915.45,21.89,
4962605,-0.03,-0.06,1.06,1.53,2.38,2.62,915.47,21.88,
4962655,-0.02,-0.06,1.03,1.59,1.77,2.62,915.51,21.89,
4962694,-0.02,-0.07,1.01,1.89,1.65,2.62,915.46,21.89,
4962732,-0.02,-0.07,0.99,2.14,1.34,2.44,915.48,21.89,
4962770,-0.02,-0.07,0.94,2.01,1.46,2.69,915.48,21.89,
4962808,-0.02,-0.07,0.92,2.01,1.28,2.38,915.47,21.87,
4962847,-0.02,-0.08,0.91,1.77,1.04,2.38,915.5,21.88,
4962885,-0.03,-0.07,0.9,1.89,1.53,2.5,915.44,21.87,
4962923,-0.03,-0.07,0.89,1.77,1.77,2.5,915.46,21.88,
4962962,-0.02,-0.07,0.89,1.59,2.14,2.26,915.53,21.89,
4963000,-0.02,-0.07,0.91,1.53,2.2,2.44,915.47,21.89,
4963076,-0.03,-0.07,0.92,1.04,2.99,2.14,915.48,21.85,
4963114,-0.03,-0.07,0.94,1.28,2.81,2.14,915.52,21.85,
4963153,-0.03,-0.07,0.93,0.92,2.75,2.2,915.53,21.86,
4963243,-0.03,-0.07,0.94,1.04,3.23,2.14,915.52,21.82,
4963281,-0.02,-0.06,0.98,1.34,2.93,2.08,915.54,21.84,
4963319,-0.02,-0.08,0.96,1.16,2.93,2.32,915.52,21.85,
4963358,-0.03,-0.06,0.98,1.28,2.5,2.32,915.52,21.84,
4963396,-0.02,-0.08,0.96,1.1,2.81,2.32,915.54,21.86,
4963434,-0.01,-0.07,0.98,1.34,2.26,2.14,915.57,21.86,
4963484,-0.02,-0.07,0.96,1.22,2.56,2.14,915.58,21.85,
