timestamp,acc_x,acc_y,acc_z,rot_x,rot_y,rot_z,qfe,temp,Unnamed: 10
3251530,-0.02,-0.08,1.2,0.37,-0.61,3.11,914.85,25.35,
3251568,-0.03,-0.07,1.25,0.06,-1.04,3.17,914.81,25.35,
3251606,-0.03,-0.07,1.24,-0.37,-1.71,3.6,914.8,25.34,
3251645,-0.0,-0.06,1.32,-0.61,-1.95,3.36,914.84,25.35,
3251683,-0.03,-0.07,1.35,-0.73,-1.53,3.72,914.85,25.35,
3251733,-0.01,-0.07,1.39,-0.67,-1.34,3.72,914.81,25.34,
3251771,-0.02,-0.06,1.4,0.0,-1.34,3.66,914.79,25.34,
3251809,-0.0,-0.07,1.38,0.55,-0.85,3.42,914.81,25.34,
3251847,-0.01,-0.06,1.41,1.16,-0.61,3.6,914.82,25.36,
3251886,-0.0,-0.07,1.36,1.53,-0.12,3.42,914.81,25.36,
3251924,-0.02,-0.07,1.34,2.2,0.31,3.11,914.79,25.35,
3251962,-0.01,-0.08,1.31,2.69,1.65,3.23,914.8,25.35,
3252000,0.01,-0.07,1.2,2.2,1.4,2.75,914.75,25.35,
3252038,-0.02,-0.07,1.14,2.14,3.48,2.62,914.73,25.35,
3252088,0.01,-0.09,1.07,1.46,3.72,2.87,914.71,25.35,
3252126,-0.0,-0.08,1.06,1.16,3.78,2.62,914.64,25.35,
3252165,-0.02,-0.07,1.03,0.55,3.78,2.87,914.63,25.35,
3252203,-0.02,-0.08,1.04,0.43,4.09,2.56,914.65,25.35,
3252241,0.0,-0.09,1.03,-0.73,4.21,2.38,914.61,25.35,
3252279,-0.02,-0.07,1.08,-0.85,2.99,2.62,914.61,25.36,
3252318,-0.01,-0.09,1.05,-1.71,4.15,2.81,914.58,25.35,
3252356,-0.0,-0.06,1.1,-1.89,4.09,2.38,914.54,25.34,
3252394,-0.01,-0.07,1.1,-2.01,4.88,2.62,914.57,25.36,
3252432,-0.01,-0.1,1.11,-1.71,4.33,2.56,914.6,25.36,
3252482,-0.02,-0.07,1.17,-1.59,5.68,2.32,914.55,25.34,
3252520,0.01,-0.07,1.17,-1.16,5.31,2.69,914.57,25.36,
3252559,0.0,-0.07,1.19,-0.55,4.94,2.32,914.6,25.35,
3252597,-0.02,-0.07,1.2,-0.24,5.0,2.38,914.45,25.35,
3252635,-0.01,-0.09,1.19,-0.06,5.62,2.69,914.47,25.36,
3252673,0.0,-0.08,1.23,-0.06,4.82,2.32,914.41,25.35,
3252712,-0.03,-0.07,1.23,0.06,4.94,2.38,914.42,25.36,
3252750,-0.01,-0.07,1.25,0.18,5.8,2.62,914.46,25.35,
3252788,0.02,-0.07,1.22,0.18,5.68,2.38,914.51,25.36,
3252826,-0.01,-0.07,1.18,0.43,5.07,2.32,914.44,25.36,
3252876,-0.01,-0.07,1.16,1.04,5.0,2.56,914.45,25.35,
3252915,0.01,-0.07,1.11,1.34,5.49,2.2,914.41,25.35,
3252953,-0.0,-0.08,1.1,1.65,4.09,2.01,914.36,25.35,
3252991,-0.02,-0.08,1.1,1.89,3.54,2.2,914.33,25.35,
3253029,-0.0,-0.08,1.03,1.83,4.27,2.01,914.33,25.34,
3253068,0.01,-0.06,1.04,1.71,2.93,2.14,914.31,25.35,
3253106,-0.0,-0.09,0.97,1.77,3.17,2.32,914.2,25.35,
3253144,-0.03,-0.09,0.88,0.67,3.17,2.08,914.21,25.35,
3253182,-0.01,-0.08,0.93,1.04,3.66,1.89,914.23,25.35,
3253232,0.01,-0.08,0.85,-0.18,4.21,2.01,914.1,25.33,
3253271,0.0,-0.07,0.97,0.18,3.3,1.89,914.15,25.35,
3253309,-0.01,-0.1,0.9,-1.1,4.88,1.71,914.1,25.35,
3253347,-0.01,-0.06,1.04,-0.92,4.15,1.65,914.11,25.35,
3253385,-0.0,-0.09,1.02,-1.04,5.62,1.71,914.06,25.35,
3253423,-0.0,-0.08,1.06,-0.79,5.62,1.53,914.1,25.36,
3253462,-0.0,-0.08,1.07,-0.12,6.41,1.71,914.11,25.35,
3253500,0.01,-0.08,1.05,0.37,5.98,1.4,914.02,25.36,
3253538,-0.02,-0.08,1.03,0.73,4.82,1.28,914.04,25.34,
3253576,-0.01,-0.09,1.03,1.04,5.49,1.46,914.07,25.35,
3253652,0.0,-0.08,1.07,1.46,5.0,1.22,913.98,25.32,
3253691,-0.02,-0.08,1.08,1.65,4.7,1.4,913.91,25.32,
3253729,-0.01,-0.07,1.1,1.83,5.43,1.22,913.94,25.34,
3253819,-0.03,-0.08,1.09,2.2,4.33,1.4,913.88,25.3,
3253857,-0.02,-0.08,1.09,2.38,4.46,1.16,913.86,25.32,
3253895,-0.0,-0.08,1.03,2.08,5.07,1.16,913.81,25.31,
3253933,-0.01,-0.07,1.02,2.01,4.33,1.16,913.77,25.32,
3253972,-0.02,-0.07,0.97,1.71,5.0,1.22,913.78,25.32,
3254010,-0.01,-0.08,0.98,2.01,5.07,1.16,913.73,25.32,
3254048,-0.01,-0.08,0.98,1.65,4.76,1.1,913.76,25.33,
3254098,-0.02,-0.07,0.97,1.59,3.91,1.16,913.75,25.32,
3254136,-0.03,-0.07,0.98,1.46,4.46,1.22,913.69,25.32,
3254175,-0.0,-0.08,0.98,1.65,4.27,0.85,913.72,25.33,
3254213,-0.0,-0.07,1.0,2.01,4.03,1.16,913.64,25.33,
3254251,-0.01,-0.08,0.92,1.77,4.46,1.28,913.66,25.33,
3254289,-0.02,-0.07,0.98,2.2,3.85,1.16,913.64,25.33,
3254327,0.0,-0.08,0.93,1.83,4.03,1.34,913.57,25.33,
3254366,-0.02,-0.07,0.93,1.95,2.38,1.28,913.62,25.34,
3254404,-0.03,-0.09,0.86,1.95,3.36,1.34,913.57,25.34,
3254454,-0.0,-0.08,0.88,2.44,2.75,1.22,913.54,25.33,
3254492,-0.0,-0.09,0.86,2.44,2.93,1.22,913.5,25.32,
3254530,-0.01,-0.08,0.78,2.01,3.72,1.04,913.48,25.33,
3254568,-0.01,-0.07,0.84,2.2,3.05,1.04,913.41,25.31,
3254606,0.0,-0.09,0.81,1.22,4.76,1.04,913.39,25.33,
3254645,-0.03,-0.08,0.89,1.16,5.13,0.73,913.42,25.32,
3254683,-0.02,-0.09,0.92,1.28,5.68,0.61,913.35,25.32,
3254721,-0.0,-0.07,0.92,0.24,5.98,0.55,913.35,25.31,
3254759,-0.01,-0.07,0.97,0.61,6.84,0.49,913.35,25.34,
3254798,-0.03,-0.08,0.95,0.24,8.06,0.55,913.35,25.34,
3254848,-0.01,-0.07,1.02,1.04,6.59,0.61,913.38,25.33,
3254886,-0.01,-0.07,1.01,0.85,6.77,0.37,913.28,25.34,
3254924,-0.01,-0.07,1.01,0.92,6.29,0.43,913.27,25.33,
3254962,-0.0,-0.07,1.08,1.34,5.37,0.43,913.28,25.34,
3255000,-0.01,-0.08,1.04,1.28,4.94,0.43,913.29,25.34,
3255039,-0.03,-0.06,1.05,1.95,3.91,0.49,913.21,25.35,
3255077,-0.01,-0.08,1.03,2.2,4.15,0.49,913.22,25.34,
3255115,-0.02,-0.07,0.98,2.56,2.93,0.37,913.21,25.35,
3255153,-0.01,-0.07,0.95,3.05,2.14,0.31,913.18,25.35,
3255191,-0.01,-0.08,0.88,2.93,2.5,0.37,913.1,25.34,
3255241,-0.01,-0.06,0.88,2.87,1.77,0.37,913.13,25.33,
3255280,-0.03,-0.07,0.83,2.99,2.14,0.24,913.1,25.33,
3255318,-0.03,-0.07,0.85,3.54,2.32,0.0,913.07,25.36,
3255356,-0.01,-0.08,0.82,3.42,2.93,0.06,913.04,25.34,
3255394,-0.02,-0.06,0.81,3.54,2.2,0.18,913.04,25.35,
3255432,-0.02,-0.07,0.79,3.72,2.14,0.12,912.99,25.34,
3255470,-0.02,-0.07,0.76,3.66,2.14,0.18,912.95,25.34,
3255509,-0.01,-0.07,0.79,3.97,0.31,0.06,912.96,25.35,
3255547,-0.03,-0.07,0.75,3.66,-0.18,0.24,912.88,25.34,
3255597,-0.03,-0.06,0.79,3.54,-1.34,0.18,912.85,25.34,
3255635,-0.03,-0.08,0.79,3.72,-1.77,0.18,912.8,25.33,
3255673,-0.03,-0.08,0.79,3.42,-2.93,0.49,912.84,25.34,
3255711,-0.05,-0.07,0.81,3.72,-3.23,0.49,912.75,25.34,
3255750,-0.06,-0.08,0.79,3.6,-3.11,0.61,912.81,25.34,
3255788,-0.04,-0.06,0.83,4.15,-4.15,0.79,912.72,25.33,
3255826,-0.05,-0.07,0.8,4.15,-3.97,0.92,912.77,25.34,
3255864,-0.04,-0.07,0.8,4.82,-4.15,0.85,912.76,25.35,
3255902,-0.04,-0.07,0.78,5.13,-3.72,1.1,912.72,25.35,
3255941,-0.04,-0.06,0.77,5.55,-4.21,1.28,912.69,25.34,
3255991,-0.04,-0.08,0.73,5.86,-4.21,1.34,912.67,25.33,
3256029,-0.05,-0.07,0.73,5.92,-4.58,1.46,912.64,25.34,
3256067,-0.04,-0.07,0.71,5.92,-4.46,1.28,912.59,25.33,
3256105,-0.03,-0.07,0.7,5.8,-5.0,1.59,912.62,25.34,
3256143,-0.05,-0.07,0.68,5.43,-4.76,1.53,912.64,25.35,
3256182,-0.04,-0.07,0.69,5.0,-4.64,1.65,912.59,25.34,
3256220,-0.04,-0.07,0.73,4.82,-5.13,1.59,912.6,25.35,
3256258,-0.04,-0.07,0.71,4.21,-5.0,1.71,912.63,25.35,
3256296,-0.04,-0.07,0.73,4.03,-5.62,1.95,912.56,25.34,
3256346,-0.04,-0.07,0.76,4.15,-4.94,1.95,912.49,25.34,
3256385,-0.04,-0.06,0.78,4.09,-5.68,2.08,912.5,25.33,
3256423,-0.05,-0.06,0.8,4.52,-6.35,2.32,912.5,25.34,
3256461,-0.05,-0.08,0.81,4.58,-6.16,2.44,912.44,25.34,
3256499,-0.06,-0.07,0.82,5.0,-6.53,2.44,912.51,25.35,
3256537,-0.04,-0.07,0.82,5.25,-6.47,2.5,912.51,25.34,
3256576,-0.05,-0.07,0.83,5.86,-6.65,2.56,912.45,25.34,
3256614,-0.06,-0.07,0.79,5.92,-5.92,2.69,912.52,25.35,
3256652,-0.05,-0.06,0.76,5.98,-5.19,2.87,912.49,25.35,
3256690,-0.06,-0.07,0.75,6.1,-4.09,2.99,912.56,25.35,
3256766,-0.06,-0.07,0.73,5.74,-1.04,3.42,912.48,25.3,
3256805,-0.08,-0.08,0.7,5.07,0.67,3.54,912.49,25.32,
3256843,-0.07,-0.07,0.7,4.52,1.4,3.85,912.47,25.33,
3256933,-0.04,-0.07,0.68,1.89,3.78,4.15,912.47,25.3,
3256971,-0.05,-0.07,0.75,0.55,3.17,4.46,912.38,25.31,
3257009,-0.04,-0.07,0.77,-0.55,2.87,4.76,912.49,25.31,
3257047,-0.04,-0.06,0.85,-0.85,2.26,4.76,912.48,25.33,
3257085,-0.03,-0.07,0.89,-1.16,2.14,5.19,912.45,25.32,
3257124,-0.04,-0.07,0.9,-1.65,1.71,5.31,912.48,25.34,
3257174,-0.03,-0.05,0.97,-1.53,0.98,5.49,912.46,25.32,
3257212,-0.04,-0.06,0.97,-1.89,0.98,5.49,912.46,25.33,
3257250,-0.03,-0.05,1.06,-1.71,0.12,5.62,912.42,25.32,
3257288,-0.04,-0.07,1.06,-1.83,0.55,5.92,912.46,25.33,
3257327,-0.04,-0.05,1.1,-1.59,0.31,5.62,912.41,25.33,
3257365,-0.03,-0.05,1.15,-0.85,0.31,5.98,912.43,25.33,
3257403,-0.05,-0.05,1.15,-0.55,0.43,5.98,912.48,25.33,
3257441,-0.03,-0.04,1.17,0.31,0.79,5.68,912.48,25.33,
3257479,-0.03,-0.04,1.16,0.73,1.95,5.68,912.5,25.34,
3257518,-0.05,-0.04,1.14,1.4,1.71,5.68,912.45,25.33,
3257567,-0.03,-0.05,1.15,2.14,2.87,5.74,912.52,25.32,
3257606,-0.02,-0.05,1.1,2.44,3.48,5.55,912.5,25.32,
3257644,-0.02,-0.04,1.09,2.56,3.3,5.68,912.43,25.33,
3257682,-0.03,-0.05,1.08,2.93,3.23,5.74,912.47,25.34,
3257720,-0.04,-0.04,1.09,3.17,2.81,5.92,912.41,25.33,
3257759,-0.03,-0.04,1.11,3.3,2.62,6.1,912.36,25.33,
3257797,-0.05,-0.06,1.08,3.23,2.99,5.98,912.39,25.34,
3257835,-0.02,-0.06,1.07,3.11,3.54,5.98,912.34,25.34,
3257873,-0.02,-0.06,1.06,3.05,2.69,6.04,912.34,25.33,
3257923,-0.03,-0.07,0.96,2.62,2.56,6.04,912.4,25.33,
3257961,-0.02,-0.05,0.94,2.69,1.46,6.1,912.34,25.34,
3258000,-0.0,-0.06,0.96,2.38,1.04,5.86,912.33,25.35,
3258038,-0.01,-0.06,0.98,1.4,-0.49,5.86,912.29,25.34,
3258076,-0.0,-0.06,1.02,1.16,-1.28,5.92,912.29,25.33,
3258114,0.0,-0.08,1.0,0.73,-1.28,5.68,912.23,25.33,
3258153,-0.01,-0.05,1.05,0.49,-2.81,5.55,912.29,25.34,
3258191,-0.02,-0.07,1.05,0.37,-3.42,5.62,912.23,25.34,
3258229,-0.03,-0.07,0.96,-0.43,-2.81,5.19,912.24,25.34,
3258267,-0.0,-0.04,1.04,0.0,-2.75,5.13,912.27,25.35,
3258317,-0.03,-0.08,0.94,-0.12,-2.26,5.0,912.2,25.33,
3258356,-0.06,-0.06,0.97,0.55,-2.87,4.88,912.22,25.33,
3258394,-0.02,-0.07,0.96,0.61,-1.16,4.88,912.2,25.33,
3258432,-0.04,-0.07,0.93,0.73,-1.71,4.88,912.17,25.32,
3258470,-0.05,-0.07,0.93,1.34,-1.46,4.82,912.19,25.34,
3258508,-0.05,-0.08,0.83,1.04,-0.43,4.7,912.22,25.35,
3258547,-0.04,-0.06,0.82,1.4,-1.16,4.7,912.18,25.34,
3258585,-0.05,-0.07,0.78,1.53,-1.65,4.94,912.2,25.34,
3258623,-0.05,-0.09,0.71,1.83,-2.08,5.07,912.2,25.35,
3258673,-0.07,-0.09,0.67,1.83,-2.32,5.37,912.16,25.32,
3258711,-0.05,-0.08,0.67,1.71,-4.15,5.62,912.2,25.34,
3258749,-0.04,-0.07,0.69,1.71,-6.04,5.74,912.14,25.32,
3258788,-0.06,-0.08,0.67,1.22,-6.35,5.92,912.16,25.33,
3258826,-0.05,-0.06,0.77,1.4,-7.81,6.1,912.12,25.33,
3258864,-0.02,-0.08,0.79,1.1,-9.34,6.47,912.14,25.33,
3258902,-0.05,-0.06,0.84,0.61,-11.35,6.53,912.17,25.33,
3258941,-0.05,-0.07,0.89,0.73,-10.86,6.77,912.24,25.34,
3258979,-0.04,-0.07,0.97,0.18,-10.31,6.65,912.24,25.32,
3259017,-0.04,-0.06,1.01,0.24,-10.44,6.71,912.27,25.34,
3259067,-0.06,-0.06,1.04,-0.06,-9.77,6.77,912.27,25.32,
3259105,-0.04,-0.05,1.05,-0.61,-8.18,6.71,912.31,25.33,
3259144,-0.05,-0.06,1.07,-0.92,-8.0,7.02,912.23,25.31,
3259182,-0.06,-0.05,1.11,-1.04,-7.75,7.2,912.26,25.32,
3259220,-0.05,-0.05,1.13,-1.22,-6.9,6.9,912.33,25.34,
3259258,-0.04,-0.05,1.15,-0.73,-6.65,7.08,912.31,25.33,
3259297,-0.04,-0.05,1.14,-0.73,-6.41,7.08,912.27,25.33,
3259335,-0.05,-0.04,1.15,-0.24,-6.41,7.32,912.26,25.32,
3259373,-0.04,-0.05,1.13,-0.43,-5.55,7.26,912.25,25.34,
3259423,-0.05,-0.05,1.2,0.06,-5.62,7.51,912.3,25.32,
3259461,-0.03,-0.05,1.17,-0.18,-4.76,7.57,912.36,25.32,
3259499,-0.04,-0.03,1.2,0.49,-4.46,7.69,912.33,25.33,
3259538,-0.04,-0.04,1.2,0.43,-3.91,7.81,912.33,25.32,
3259576,-0.03,-0.04,1.19,0.67,-4.03,7.75,912.28,25.32,
3259614,-0.04,-0.04,1.2,0.67,-3.23,8.0,912.31,25.33,
3259652,-0.04,-0.04,1.15,0.67,-2.44,8.0,912.28,25.32,
3259691,-0.04,-0.05,1.15,0.31,-2.2,8.0,912.28,25.32,
3259729,-0.04,-0.05,1.11,0.0,-1.46,8.24,912.35,25.33,
3259767,-0.05,-0.05,1.1,-0.49,-1.4,8.48,912.26,25.32,
3259843,-0.03,-0.05,1.08,-1.22,-0.98,8.79,912.25,25.29,
3259881,-0.02,-0.04,1.09,-1.59,-0.98,8.91,912.33,25.3,
3259919,-0.03,-0.05,1.08,-1.89,-0.61,9.09,912.33,25.3,
3260009,-0.03,-0.05,1.12,-2.38,-0.55,9.09,912.42,25.28,
3260047,-0.01,-0.06,1.12,-2.56,-0.55,9.03,912.43,25.29,
3260085,-0.02,-0.05,1.13,-2.75,-0.24,8.91,912.42,25.29,
3260124,-0.01,-0.05,1.15,-2.56,-0.12,8.79,912.45,25.28,
3260162,-0.0,-0.05,1.14,-2.38,0.06,8.73,912.43,25.31,
3260200,-0.01,-0.05,1.15,-2.14,0.37,8.61,912.41,25.31,
3260250,0.0,-0.04,1.14,-2.01,0.61,8.42,912.45,25.31,
3260288,-0.0,-0.05,1.1,-1.71,0.85,8.36,912.39,25.31,
3260326,-0.0,-0.04,1.11,-1.77,0.55,8.18,912.39,25.3,
3260365,-0.0,-0.06,1.1,-1.95,0.43,8.36,912.39,25.31,
3260403,0.0,-0.04,1.12,-2.44,0.06,8.24,912.34,25.31,
3260441,-0.01,-0.05,1.15,-2.75,0.43,8.12,912.42,25.3,
3260479,0.0,-0.05,1.15,-3.17,0.37,8.18,912.36,25.3,
3260518,0.01,-0.04,1.21,-3.3,0.31,7.81,912.39,25.31,
3260556,0.0,-0.05,1.2,-3.54,0.43,7.87,912.36,25.31,
3260606,0.0,-0.04,1.24,-3.42,0.67,7.75,912.38,25.3,
3260644,-0.01,-0.04,1.23,-3.48,1.22,7.69,912.35,25.3,
3260682,-0.0,-0.04,1.25,-3.48,0.73,7.63,912.35,25.3,
3260720,-0.0,-0.04,1.26,-3.42,1.65,7.39,912.33,25.31,
3260759,-0.0,-0.04,1.27,-3.48,2.2,7.26,912.33,25.31,
3260797,-0.0,-0.03,1.26,-3.66,3.11,7.26,912.35,25.31,
3260835,-0.0,-0.04,1.24,-3.48,3.3,7.2,912.35,25.31,
3260873,-0.01,-0.03,1.23,-3.42,3.48,7.2,912.33,25.31,
3260912,-0.01,-0.04,1.24,-3.17,3.78,7.08,912.33,25.31,
3260950,-0.02,-0.04,1.22,-2.99,3.85,7.02,912.38,25.31,
3261000,-0.01,-0.04,1.22,-2.75,3.66,7.2,912.34,25.31,
3261038,-0.01,-0.05,1.2,-2.5,4.15,7.2,912.42,25.31,
3261076,0.0,-0.04,1.21,-2.32,3.97,7.14,912.35,25.31,
3261114,-0.01,-0.04,1.19,-2.14,4.09,7.45,912.39,25.32,
3261153,-0.01,-0.04,1.19,-1.95,3.97,7.08,912.35,25.31,
3261191,-0.02,-0.05,1.16,-1.83,4.09,7.39,912.32,25.31,
3261229,-0.01,-0.05,1.15,-2.08,3.97,7.32,912.34,25.31,
3261267,-0.01,-0.05,1.14,-2.2,3.85,7.26,912.34,25.31,
3261305,-0.02,-0.06,1.06,-2.44,4.21,7.32,912.35,25.32,
3261355,-0.01,-0.05,1.09,-2.5,3.97,7.32,912.32,25.3,
3261394,-0.01,-0.06,1.07,-2.87,4.39,7.32,912.27,25.31,
3261432,-0.02,-0.04,1.1,-2.69,3.48,7.39,912.33,25.31,
3261470,-0.01,-0.05,1.12,-2.69,3.91,7.45,912.36,25.31,
3261508,-0.0,-0.05,1.14,-3.3,2.93,7.45,912.3,25.31,
3261547,-0.02,-0.05,1.15,-3.17,2.5,7.63,912.33,25.31,
3261585,-0.02,-0.06,1.14,-3.3,2.69,7.51,912.36,25.32,
3261623,-0.01,-0.04,1.17,-3.3,1.95,7.57,912.32,25.31,
3261661,-0.01,-0.05,1.16,-3.3,2.01,7.63,912.34,25.31,
3261699,-0.02,-0.04,1.14,-3.3,1.95,7.63,912.31,25.31,
3261749,-0.01,-0.04,1.17,-3.11,1.53,7.45,912.32,25.3,
3261788,-0.02,-0.04,1.16,-3.05,1.04,7.51,912.32,25.31,
3261826,-0.02,-0.05,1.17,-2.99,0.79,7.57,912.34,25.32,
3261864,-0.02,-0.05,1.16,-3.05,0.98,7.45,912.28,25.31,
3261902,-0.01,-0.05,1.14,-2.93,0.98,7.63,912.28,25.31,
3261940,-0.02,-0.05,1.1,-2.87,0.73,7.51,912.26,25.31,
3261979,-0.02,-0.04,1.12,-2.69,0.61,7.39,912.31,25.31,
3262017,-0.01,-0.05,1.12,-2.56,1.04,7.32,912.25,25.3,
3262055,-0.02,-0.05,1.15,-2.2,0.24,7.26,912.34,25.32,
3262105,-0.02,-0.05,1.17,-2.08,0.49,7.69,912.31,25.31,
3262143,-0.02,-0.04,1.19,-1.53,0.12,7.51,912.29,25.3,
3262181,-0.03,-0.05,1.16,-1.71,0.31,7.57,912.3,25.31,
3262220,-0.03,-0.04,1.13,-1.34,-0.12,7.45,912.26,25.31,
3262258,-0.02,-0.05,1.12,-1.1,0.0,7.57,912.23,25.31,
3262296,-0.02,-0.06,1.07,-1.22,0.31,7.57,912.3,25.31,
3262334,-0.04,-0.05,1.1,-0.73,0.92,7.63,912.24,25.3,
3262373,-0.03,-0.05,1.07,-0.79,2.14,7.45,912.24,25.31,
3262411,-0.02,-0.05,1.07,-0.67,1.1,7.2,912.25,25.3,
3262449,-0.04,-0.05,1.07,-0.73,1.53,7.63,912.22,25.31,
3262499,-0.03,-0.06,1.03,-0.85,2.01,7.69,912.27,25.3,
3262537,-0.02,-0.05,1.04,-1.1,1.95,7.39,912.22,25.3,
3262576,-0.04,-0.04,1.04,-0.92,2.26,7.63,912.2,25.29,
3262614,-0.03,-0.06,1.04,-0.98,3.36,7.63,912.2,25.3,
3262652,-0.04,-0.06,1.04,-1.16,3.97,7.81,912.22,25.31,
3262690,-0.04,-0.05,1.06,-1.22,4.39,7.69,912.21,25.31,
3262729,-0.04,-0.05,1.05,-1.34,4.88,7.93,912.19,25.3,
3262767,-0.04,-0.06,1.06,-1.22,5.49,7.93,912.25,25.31,
3262805,-0.03,-0.06,1.05,-1.22,5.31,8.0,912.17,25.31,
3262881,-0.04,-0.06,0.94,-1.22,5.0,8.3,912.15,25.26,
3262919,-0.03,-0.05,0.92,-1.4,5.31,8.54,912.2,25.29,
3262958,-0.03,-0.05,0.9,-1.34,4.27,8.42,912.17,25.29,
3263047,-0.03,-0.06,0.96,-1.71,4.03,8.67,912.18,25.25,
3263086,-0.03,-0.06,0.96,-1.53,2.81,9.03,912.16,25.27,
3263124,-0.04,-0.06,0.95,-1.83,1.83,9.22,912.16,25.29,
3263162,-0.04,-0.05,1.0,-1.53,0.18,9.4,912.12,25.28,
3263200,-0.03,-0.06,1.0,-1.95,-0.49,9.4,912.14,25.29,
3263239,-0.03,-0.05,0.96,-2.44,-1.1,9.58,912.16,25.29,
3263277,-0.02,-0.05,1.06,-2.44,-1.71,9.46,912.18,25.3,
3263327,-0.01,-0.06,1.07,-3.11,-1.59,9.52,912.17,25.29,
3263365,-0.03,-0.03,1.15,-2.93,-2.01,9.58,912.18,25.29,
3263403,-0.03,-0.05,1.12,-2.93,-1.22,9.52,912.12,25.3,
3263442,-0.02,-0.05,1.12,-2.81,-1.28,9.22,912.2,25.31,
3263480,-0.03,-0.04,1.14,-2.75,-1.4,9.4,912.16,25.3,
3263518,-0.02,-0.04,1.15,-2.5,-1.16,9.22,912.14,25.3,
3263556,-0.02,-0.04,1.13,-2.14,-0.43,9.09,912.17,25.31,
3263595,-0.03,-0.04,1.15,-1.77,0.37,9.16,912.24,25.31,
3263633,-0.04,-0.04,1.14,-1.65,1.22,9.28,912.19,25.3,
3263683,-0.03,-0.03,1.18,-1.22,1.65,9.16,912.15,25.3,
3263721,-0.03,-0.02,1.17,-1.22,1.89,8.91,912.19,25.3,
3263759,-0.02,-0.03,1.21,-1.1,1.28,9.09,912.26,25.31,
3263797,-0.02,-0.04,1.16,-0.85,1.71,9.22,912.19,25.3,
3263836,-0.04,-0.04,1.15,-0.55,1.46,9.22,912.21,25.29,
3263874,-0.02,-0.06,1.08,0.06,2.14,9.34,912.2,25.3,
3263912,-0.05,-0.05,1.05,0.24,1.83,9.34,912.26,25.31,
3263950,-0.04,-0.05,1.01,0.24,2.56,9.22,912.19,25.3,
3263988,-0.03,-0.05,0.97,-0.12,3.66,9.03,912.2,25.31,
3264027,-0.03,-0.05,0.99,0.18,4.15,9.03,912.17,25.3,
3264077,-0.04,-0.06,0.98,-0.24,4.52,9.4,912.16,25.3,
3264115,-0.03,-0.06,1.0,-0.43,4.7,9.4,912.15,25.29,
3264153,-0.03,-0.05,0.99,-1.04,4.94,9.28,912.15,25.29,
3264191,-0.04,-0.05,1.0,-1.1,5.07,9.58,912.22,25.3,
3264229,-0.02,-0.06,0.97,-1.34,5.55,9.58,912.25,25.3,
3264268,-0.02,-0.05,0.96,-1.4,5.37,9.58,912.19,25.3,
3264306,-0.02,-0.05,0.97,-1.53,5.07,9.7,912.24,25.3,
3264344,-0.03,-0.05,0.98,-1.65,4.39,9.77,912.19,25.29,
3264382,-0.02,-0.05,1.01,-1.65,4.03,9.83,912.17,25.28,
3264432,-0.02,-0.05,1.0,-1.95,3.36,9.89,912.21,25.27,
3264470,-0.02,-0.05,1.01,-2.32,3.48,10.13,912.2,25.28,
3264509,-0.01,-0.06,1.0,-2.44,3.05,10.19,912.24,25.27,
3264547,-0.02,-0.05,1.03,-2.56,2.75,10.19,912.21,25.28,
3264585,-0.03,-0.05,1.01,-2.87,3.17,10.13,912.24,25.29,
3264623,-0.02,-0.04,1.0,-3.05,3.42,10.01,912.23,25.3,
3264662,-0.02,-0.05,1.01,-3.42,4.03,9.89,912.24,25.3,
3264700,-0.01,-0.05,1.02,-3.66,3.72,9.83,912.23,25.3,
3264738,-0.02,-0.05,1.05,-3.66,3.97,9.83,912.22,25.29,
3264776,-0.03,-0.05,1.04,-4.09,3.66,9.89,912.21,25.29,
3264826,-0.02,-0.04,1.1,-4.52,3.78,9.89,912.21,25.27,
3264865,-0.03,-0.04,1.08,-4.76,4.03,9.89,912.23,25.29,
3264903,-0.01,-0.05,1.13,-4.82,3.78,9.64,912.25,25.28,
3264941,-0.01,-0.05,1.11,-5.37,4.15,9.83,912.27,25.29,
3264979,-0.01,-0.03,1.18,-5.07,3.48,9.83,912.32,25.28,
3265017,-0.03,-0.03,1.18,-5.07,4.09,9.89,912.23,25.3,
3265056,-0.02,-0.03,1.21,-4.88,3.36,9.77,912.29,25.29,
3265094,-0.02,-0.02,1.24,-4.52,3.23,9.83,912.34,25.29,
3265132,-0.03,-0.03,1.22,-4.09,2.75,9.89,912.29,25.29,
3265182,-0.01,-0.03,1.26,-3.54,2.32,9.7,912.29,25.29,
3265220,-0.02,-0.03,1.22,-3.11,2.2,9.77,912.28,25.29,
3265258,-0.0,-0.02,1.22,-2.69,0.92,9.77,912.31,25.28,
3265297,-0.02,-0.03,1.21,-2.62,1.59,9.7,912.33,25.31,
3265335,-0.03,-0.04,1.17,-2.14,0.92,9.77,912.27,25.29,
3265373,-0.01,-0.03,1.2,-2.14,1.28,9.46,912.31,25.29,
3265411,-0.01,-0.03,1.21,-1.89,1.46,9.34,912.32,25.3,
3265449,-0.02,-0.03,1.19,-1.71,1.71,9.58,912.37,25.3,
3265488,-0.0,-0.04,1.22,-1.46,1.95,9.4,912.33,25.3,
3265526,-0.03,-0.04,1.19,-1.46,1.34,9.09,912.33,25.3,
3265576,-0.04,-0.04,1.17,-1.22,1.59,9.4,912.36,25.29,
3265614,-0.01,-0.02,1.16,-0.98,1.16,9.34,912.31,25.29,
3265652,-0.01,-0.03,1.17,-0.92,1.59,9.28,912.4,25.3,
3265691,-0.01,-0.05,1.13,-0.92,1.71,9.28,912.37,25.3,
3265729,-0.03,-0.04,1.15,-0.79,2.01,9.28,912.37,25.3,
3265767,-0.01,-0.05,1.14,-0.79,2.26,9.22,912.35,25.3,
3265805,-0.03,-0.03,1.13,-0.98,2.38,9.16,912.37,25.3,
3265843,-0.03,-0.04,1.12,-1.1,2.44,9.28,912.37,25.3,
3265882,-0.03,-0.05,1.12,-1.16,2.93,9.22,912.37,25.3,
3265958,-0.03,-0.04,1.1,-1.34,3.3,9.4,912.36,25.27,
3265996,-0.03,-0.04,1.11,-1.46,3.78,9.46,912.34,25.29,
3266034,-0.02,-0.04,1.12,-1.65,4.15,9.52,912.4,25.28,
3266125,-0.02,-0.04,1.12,-1.89,4.39,9.58,912.4,25.27,
3266163,-0.01,-0.04,1.13,-2.26,4.46,9.52,912.37,25.26,
3266202,-0.01,-0.04,1.13,-2.14,4.64,9.4,912.37,25.27,
3266240,-0.02,-0.05,1.13,-2.26,4.46,9.46,912.43,25.27,
3266278,-0.02,-0.05,1.14,-2.26,3.97,9.52,912.41,25.28,
3266316,-0.02,-0.04,1.16,-2.26,3.91,9.52,912.41,25.27,
3266355,-0.01,-0.04,1.15,-2.2,3.91,9.52,912.37,25.28,
3266404,-0.02,-0.04,1.18,-1.95,3.23,9.46,912.43,25.26,
3266443,-0.02,-0.05,1.16,-1.89,3.23,9.46,912.43,25.28,
3266481,-0.02,-0.05,1.17,-1.83,2.81,9.46,912.38,25.28,
3266519,-0.02,-0.04,1.15,-1.95,2.99,9.4,912.43,25.27,
3266557,-0.02,-0.04,1.15,-1.71,2.87,9.34,912.46,25.28,
3266596,-0.02,-0.05,1.15,-1.65,3.05,9.4,912.42,25.28,
3266634,-0.03,-0.04,1.15,-1.46,3.05,9.22,912.44,25.27,
3266672,-0.02,-0.04,1.14,-1.53,2.93,9.34,912.43,25.27,
3266710,-0.02,-0.04,1.13,-1.53,2.87,9.28,912.43,25.28,
3266760,-0.02,-0.05,1.1,-1.46,3.23,9.28,912.45,25.27,
3266799,-0.02,-0.05,1.1,-1.4,3.3,9.28,912.43,25.27,
3266837,-0.02,-0.05,1.07,-1.4,3.66,9.4,912.42,25.27,
3266875,-0.03,-0.05,1.07,-1.22,3.54,9.16,912.5,25.28,
3266913,-0.02,-0.05,1.05,-1.4,3.97,9.46,912.47,25.27,
3266952,-0.02,-0.05,1.05,-1.34,3.91,9.34,912.44,25.27,
3266990,-0.04,-0.05,1.07,-1.4,3.91,9.28,912.43,25.28,
3267028,-0.04,-0.05,1.08,-1.4,3.91,9.34,912.51,25.29,
3267066,-0.02,-0.05,1.09,-1.4,4.27,9.4,912.44,25.29,
3267116,-0.02,-0.04,1.1,-1.53,4.15,9.52,912.46,25.26,
3267155,-0.03,-0.05,1.08,-1.65,4.52,9.58,912.4,25.27,
3267193,-0.02,-0.05,1.11,-1.53,4.58,9.52,912.49,25.28,
3267231,-0.03,-0.05,1.11,-1.46,4.58,9.64,912.47,25.28,
3267269,-0.02,-0.05,1.1,-1.4,4.27,9.58,912.47,25.27,
3267307,-0.02,-0.05,1.09,-1.34,4.39,9.52,912.46,25.28,
3267346,-0.02,-0.05,1.07,-1.28,4.27,9.52,912.59,25.29,
3267384,-0.03,-0.04,1.1,-1.34,3.91,9.52,912.5,25.29,
3267422,-0.02,-0.05,1.09,-1.28,4.21,9.52,912.56,25.29,
3267460,-0.03,-0.04,1.11,-1.28,3.85,9.52,912.59,25.28,
3267510,-0.02,-0.05,1.08,-1.28,4.09,9.7,912.58,25.28,
3267549,-0.03,-0.04,1.08,-1.34,3.78,9.7,912.54,25.28,
3267587,-0.02,-0.05,1.08,-1.28,4.39,9.4,912.58,25.3,
3267625,-0.01,-0.05,1.06,-1.34,4.27,9.58,912.56,25.3,
3267663,-0.02,-0.05,1.09,-1.16,4.15,9.58,912.54,25.29,
3267702,-0.01,-0.05,1.05,-1.34,4.64,9.52,912.54,25.28,
3267740,-0.03,-0.05,1.07,-1.28,4.27,9.64,912.55,25.3,
3267778,-0.02,-0.05,1.08,-1.16,4.64,9.58,912.59,25.3,
3267816,-0.03,-0.05,1.07,-1.28,4.39,9.58,912.65,25.3,
3267866,-0.01,-0.05,1.08,-1.34,4.76,9.46,912.63,25.27,
3267905,-0.01,-0.04,1.07,-1.28,4.21,9.7,912.59,25.28,
3267943,-0.01,-0.04,1.08,-1.53,3.66,9.64,912.62,25.29,
3267981,-0.01,-0.05,1.04,-1.53,2.93,9.58,912.67,25.28,
3268019,-0.03,-0.05,1.04,-1.4,2.01,9.77,912.66,25.28,
3268057,-0.01,-0.06,1.02,-1.4,2.08,9.64,912.67,25.28,
3268096,0.0,-0.05,1.02,-1.59,0.55,9.64,912.68,25.29,
3268134,-0.01,-0.04,1.05,-1.46,-0.06,9.7,912.69,25.29,
3268172,-0.02,-0.05,1.03,-1.53,-0.12,9.83,912.69,25.28,
3268210,-0.01,-0.06,1.06,-1.83,-0.79,9.64,912.72,25.29,
3268260,-0.02,-0.05,1.05,-1.77,-0.37,9.4,912.69,25.27,
3268298,-0.02,-0.05,1.06,-1.59,-0.24,9.4,912.74,25.28,
3268337,-0.01,-0.06,1.04,-1.89,0.31,9.28,912.77,25.28,
3268375,-0.02,-0.05,1.07,-1.65,0.37,9.03,912.72,25.29,
3268413,-0.01,-0.05,1.05,-1.77,1.1,9.22,912.75,25.28,
3268451,-0.03,-0.05,1.05,-1.71,1.22,8.97,912.72,25.28,
3268489,-0.03,-0.05,1.06,-1.83,1.83,8.97,912.79,25.28,
3268528,-0.01,-0.04,1.08,-1.83,1.71,8.91,912.75,25.29,
3268566,-0.02,-0.05,1.1,-1.89,1.53,8.85,912.72,25.28,
3268616,-0.02,-0.05,1.1,-1.77,1.89,8.91,912.78,25.26,
3268654,-0.01,-0.05,1.11,-2.01,2.38,8.85,912.76,25.27,
3268692,-0.02,-0.04,1.1,-1.83,2.38,8.79,912.73,25.27,
3268731,-0.03,-0.05,1.09,-2.08,2.5,8.91,912.8,25.27,
3268769,-0.02,-0.05,1.08,-2.08,2.69,8.79,912.77,25.27,
3268807,-0.02,-0.05,1.07,-2.08,2.93,8.73,912.81,25.29,
3268845,-0.03,-0.05,1.08,-2.01,3.48,8.79,912.76,25.28,
3268883,-0.02,-0.05,1.1,-2.01,3.54,8.73,912.81,25.27,
3268922,-0.02,-0.05,1.1,-2.26,3.91,8.79,912.83,25.28,
3268960,-0.03,-0.05,1.11,-2.38,3.91,8.73,912.81,25.27,
3269036,-0.01,-0.04,1.13,-2.69,4.46,8.67,912.84,25.25,
3269074,-0.02,-0.04,1.15,-2.2,4.21,8.67,912.77,25.25,
3269112,-0.02,-0.05,1.16,-2.56,4.33,8.67,912.78,25.25,
3269202,-0.03,-0.04,1.15,-2.56,4.03,8.79,912.84,25.22,
3269240,-0.03,-0.05,1.13,-2.99,4.03,8.91,912.88,25.25,
3269279,-0.02,-0.04,1.16,-3.17,3.78,8.85,912.87,25.24,
3269317,-0.02,-0.05,1.16,-3.17,3.91,8.73,912.88,25.26,
3269355,-0.02,-0.05,1.17,-3.36,3.48,8.91,912.85,25.26,
3269393,-0.02,-0.04,1.17,-3.6,3.66,8.85,912.87,25.26,
3269443,-0.02,-0.04,1.19,-3.42,3.3,9.16,912.9,25.24,
3269482,-0.02,-0.04,1.19,-3.78,3.6,9.03,912.89,25.24,
3269520,-0.02,-0.05,1.18,-3.72,3.36,8.91,912.9,25.26,
3269558,-0.02,-0.05,1.15,-3.72,3.42,8.91,912.93,25.26,
3269596,-0.01,-0.05,1.12,-3.66,3.3,9.16,912.96,25.27,
3269634,-0.02,-0.05,1.14,-3.48,2.99,9.22,913.01,25.26,
3269673,-0.01,-0.05,1.11,-3.36,3.05,9.34,912.92,25.26,
3269711,-0.02,-0.05,1.17,-3.05,2.26,9.22,912.96,25.26,
3269749,-0.02,-0.06,1.15,-3.11,2.38,9.4,912.95,25.27,
3269787,-0.03,-0.06,1.15,-3.11,1.83,9.34,912.92,25.28,
3269837,-0.02,-0.06,1.11,-3.11,2.87,9.22,913.03,25.27,
3269876,-0.02,-0.05,1.07,-2.81,1.95,9.16,912.99,25.27,
3269914,-0.02,-0.06,1.04,-2.99,2.14,9.28,913.04,25.28,
3269952,-0.01,-0.06,1.0,-2.93,1.71,9.22,913.01,25.27,
3269990,-0.03,-0.06,0.96,-3.11,2.26,9.34,913.04,25.27,
3270028,-0.02,-0.06,0.99,-2.93,2.32,9.28,913.06,25.27,
3270067,-0.02,-0.06,0.99,-3.36,2.69,9.34,913.07,25.27,
3270105,-0.02,-0.06,1.04,-3.42,2.99,9.16,913.02,25.27,
3270143,-0.02,-0.06,1.08,-3.3,3.42,9.03,913.05,25.28,
3270193,-0.02,-0.06,1.09,-3.48,3.48,9.09,913.07,25.27,
3270231,-0.02,-0.06,1.12,-3.42,3.97,9.28,913.06,25.27,
3270269,-0.02,-0.06,1.12,-3.6,4.09,9.22,913.09,25.27,
3270308,-0.01,-0.05,1.17,-3.23,4.27,8.97,913.08,25.28,
3270346,-0.02,-0.05,1.17,-3.42,4.52,9.16,913.06,25.28,
3270384,-0.01,-0.05,1.24,-2.81,4.15,9.28,913.04,25.27,
3270422,-0.01,-0.05,1.24,-2.99,4.58,9.03,913.04,25.28,
3270461,-0.02,-0.04,1.26,-2.5,3.72,9.28,913.08,25.28,
3270499,-0.01,-0.05,1.27,-2.69,3.54,9.22,913.03,25.27,
3270537,-0.01,-0.04,1.28,-2.56,2.81,9.16,913.11,25.27,
3270587,-0.02,-0.04,1.29,-2.38,3.48,9.22,913.08,25.27,
3270625,-0.01,-0.04,1.3,-2.08,3.3,9.16,913.15,25.28,
3270664,-0.01,-0.05,1.29,-2.14,3.85,9.03,913.12,25.29,
3270702,-0.02,-0.05,1.26,-2.08,4.09,9.09,913.11,25.26,
3270740,-0.02,-0.05,1.25,-1.95,4.21,9.16,913.16,25.28,
3270778,-0.01,-0.05,1.25,-1.65,4.33,8.97,913.17,25.28,
3270817,-0.02,-0.05,1.25,-1.65,4.33,9.09,913.12,25.28,
3270855,-0.01,-0.06,1.25,-1.4,3.91,9.03,913.16,25.27,
3270893,-0.01,-0.05,1.2,-1.4,3.91,9.16,913.18,25.28,
3270943,-0.02,-0.06,1.2,-1.53,3.23,9.28,913.2,25.27,
3270981,-0.02,-0.07,1.14,-1.53,2.38,9.16,913.18,25.28,
3271019,-0.02,-0.06,1.15,-1.65,1.65,8.91,913.17,25.28,
3271058,0.0,-0.06,1.14,-1.83,1.28,8.97,913.18,25.28,
3271096,-0.02,-0.06,1.14,-1.89,0.31,9.09,913.26,25.28,
3271134,-0.02,-0.06,1.14,-1.83,0.06,9.09,913.21,25.29,
3271172,-0.02,-0.06,1.12,-2.01,0.18,9.03,913.21,25.3,
3271211,-0.01,-0.06,1.12,-1.83,-0.61,8.97,913.27,25.28,
3271249,-0.02,-0.07,1.13,-2.01,-1.4,9.16,913.24,25.29,
3271287,-0.02,-0.07,1.07,-2.2,-1.22,9.22,913.23,25.28,
3271337,-0.01,-0.06,1.1,-1.83,-2.08,9.16,913.22,25.28,
3271375,-0.02,-0.07,1.06,-2.2,-1.89,9.03,913.24,25.28,
3271413,-0.02,-0.06,1.09,-1.95,-2.38,8.91,913.24,25.28,
3271452,-0.04,-0.07,1.07,-1.77,-1.4,8.79,913.2,25.28,
3271490,-0.02,-0.07,1.04,-2.08,-0.85,8.85,913.27,25.28,
3271528,-0.02,-0.06,1.06,-2.01,-0.55,8.54,913.28,25.28,
3271566,-0.03,-0.07,1.02,-2.2,1.59,8.3,913.28,25.28,
3271604,-0.03,-0.07,1.03,-2.44,2.38,8.42,913.26,25.28,
3271643,-0.02,-0.06,1.11,-2.38,3.23,8.24,913.21,25.28,
3271693,-0.04,-0.06,1.09,-2.81,4.09,8.36,913.19,25.27,
3271731,-0.04,-0.05,1.15,-2.87,4.64,8.3,913.26,25.28,
3271769,-0.02,-0.05,1.19,-2.81,5.62,8.18,913.25,25.27,
3271807,-0.02,-0.06,1.16,-3.3,5.49,8.36,913.24,25.28,
3271845,-0.04,-0.04,1.23,-2.99,5.55,8.3,913.25,25.27,
3271884,-0.03,-0.06,1.17,-3.23,7.14,8.61,913.22,25.27,
3271922,-0.03,-0.06,1.2,-2.99,5.92,8.54,913.28,25.29,
3271960,-0.03,-0.05,1.19,-2.75,5.92,8.61,913.27,25.29,
3271998,-0.03,-0.06,1.18,-2.56,6.04,8.73,913.32,25.27,
3272037,-0.03,-0.06,1.14,-2.38,6.16,8.79,913.28,25.29,
3272112,-0.03,-0.05,1.17,-2.08,5.98,8.85,913.28,25.25,
3272151,-0.04,-0.05,1.19,-1.89,5.19,8.91,913.29,25.26,
3272189,-0.03,-0.06,1.19,-2.08,5.98,8.85,913.28,25.26,
3272279,-0.03,-0.04,1.18,-2.2,6.29,8.91,913.25,25.24,
3272317,-0.04,-0.03,1.24,-1.83,6.04,9.09,913.31,25.25,
3272355,-0.01,-0.05,1.28,-1.53,7.2,8.91,913.25,25.26,
3272393,-0.02,-0.05,1.26,-1.59,6.84,8.97,913.3,25.26,
3272431,-0.03,-0.04,1.32,-1.28,6.65,9.16,913.32,25.26,
3272470,0.01,-0.04,1.29,-1.28,6.59,8.67,913.25,25.26,
3272520,-0.03,-0.03,1.26,-1.1,5.8,9.09,913.36,25.26,
3272558,-0.01,-0.04,1.24,-1.16,4.82,9.16,913.32,25.25,
3272596,-0.0,-0.04,1.27,-1.1,4.39,8.85,913.36,25.26,
3272634,-0.03,-0.02,1.26,-1.16,3.54,9.4,913.37,25.25,
3272672,-0.01,-0.03,1.33,-0.12,2.93,9.22,913.38,25.26,
3272711,-0.01,-0.05,1.23,-0.43,3.23,8.85,913.36,25.27,
3272749,-0.02,-0.04,1.23,-0.12,1.53,9.03,913.37,25.27,
3272787,-0.03,-0.05,1.18,-0.06,3.11,8.85,913.34,25.26,
3272825,-0.01,-0.04,1.06,-0.18,3.36,8.18,913.37,25.26,
3272875,-0.03,-0.04,1.09,0.67,4.09,8.54,913.38,25.26,
3272913,-0.02,-0.07,0.96,0.37,5.19,8.48,913.34,25.25,
3272952,-0.03,-0.05,0.99,0.98,4.46,8.18,913.36,25.25,
3272990,-0.03,-0.07,0.94,1.04,5.62,8.3,913.41,25.26,
3273028,-0.02,-0.06,0.92,1.28,4.88,8.3,913.39,25.26,
3273066,-0.03,-0.07,0.87,1.22,5.19,8.24,913.39,25.26,
3273104,-0.02,-0.07,0.8,0.67,6.71,8.18,913.39,25.27,
3273143,-0.02,-0.06,0.85,0.73,5.43,8.18,913.39,25.27,
3273181,-0.02,-0.08,0.82,0.55,5.86,8.0,913.4,25.27,
3273219,-0.02,-0.07,0.84,0.31,4.94,7.93,913.38,25.26,
3273269,-0.03,-0.07,0.85,0.24,4.7,8.3,913.36,25.26,
3273307,-0.01,-0.06,0.87,-0.18,3.78,8.18,913.33,25.27,
3273345,-0.02,-0.05,0.98,0.24,2.2,8.18,913.44,25.28,
3273384,-0.02,-0.06,0.96,-0.37,2.08,8.3,913.39,25.27,
3273422,-0.05,-0.06,1.05,0.31,0.06,8.36,913.42,25.27,
3273460,-0.02,-0.07,0.97,-0.06,2.44,8.24,913.46,25.26,
3273498,-0.02,-0.04,1.1,0.92,1.04,8.18,913.37,25.27,
3273536,-0.03,-0.07,1.0,1.1,1.53,8.18,913.45,25.3,
3273575,-0.02,-0.04,1.14,1.4,-1.34,7.93,913.41,25.28,
3273613,-0.03,-0.06,1.18,1.46,-0.61,8.3,913.39,25.27,
3273663,-0.02,-0.04,1.22,1.4,-2.5,8.24,913.46,25.27,
3273701,-0.02,-0.05,1.22,1.34,-1.65,8.12,913.44,25.27,
3273739,-0.03,-0.05,1.2,0.73,-1.65,8.24,913.48,25.28,
3273778,-0.01,-0.05,1.18,0.85,-0.92,8.18,913.47,25.28,
3273816,-0.02,-0.05,1.11,0.12,-0.73,8.24,913.42,25.27,
3273854,-0.04,-0.06,1.09,-0.06,-0.06,8.06,913.43,25.26,
3273892,-0.02,-0.05,1.09,-0.31,1.28,7.75,913.4,25.28,
3273930,0.01,-0.04,1.17,-0.55,0.92,7.87,913.41,25.28,
3273969,-0.01,-0.06,1.14,-1.04,1.59,7.93,913.44,25.28,
3274019,-0.02,-0.06,1.21,-1.04,1.46,7.75,913.43,25.27,
3274057,-0.04,-0.06,1.13,-1.77,2.81,7.75,913.47,25.28,
3274095,-0.03,-0.04,1.18,-1.53,1.34,7.81,913.44,25.27,
3274133,-0.02,-0.05,1.15,-2.08,2.93,7.63,913.45,25.27,
3274172,-0.03,-0.04,1.16,-1.71,2.01,7.63,913.42,25.27,
3274210,-0.03,-0.05,1.21,-2.08,2.62,7.69,913.45,25.27,
3274248,-0.03,-0.06,1.21,-2.01,2.32,7.75,913.47,25.27,
3274286,-0.05,-0.04,1.31,-1.95,2.5,7.75,913.35,25.26,
3274324,-0.04,-0.05,1.27,-1.71,3.23,7.93,913.47,25.27,
3274363,-0.04,-0.05,1.24,-1.46,2.69,8.0,913.45,25.27,
3274413,-0.04,-0.06,1.16,-1.4,2.56,8.18,913.5,25.26,
3274451,-0.04,-0.04,1.18,-1.04,1.59,8.61,913.39,25.26,
3274489,-0.04,-0.06,1.13,-0.67,1.53,8.61,913.45,25.26,
3274527,-0.05,-0.05,1.12,-0.67,0.92,8.79,913.46,25.25,
3274566,-0.05,-0.06,1.11,-0.06,1.89,8.97,913.42,25.26,
3274604,-0.05,-0.06,1.04,0.24,1.83,9.03,913.5,25.28,
3274642,-0.05,-0.07,1.05,0.24,2.44,8.97,913.41,25.27,
3274680,-0.03,-0.06,1.0,-0.24,3.85,8.97,913.44,25.27,
3274719,-0.04,-0.06,1.04,-0.12,3.72,9.22,913.45,25.26,
3274769,-0.02,-0.06,1.06,-1.04,4.15,9.28,913.42,25.27,
3274807,-0.07,-0.06,1.06,-1.28,4.76,9.22,913.5,25.25,
3274845,-0.03,-0.06,1.08,-1.16,5.19,9.58,913.46,25.26,
3274883,-0.04,-0.07,1.07,-1.16,5.98,9.46,913.5,25.27,
3274922,-0.04,-0.06,1.12,-0.85,5.19,9.83,913.49,25.27,
3274960,-0.02,-0.07,1.09,-1.16,6.29,9.7,913.47,25.27,
3274998,-0.04,-0.05,1.1,-0.98,5.13,9.52,913.44,25.28,
3275036,-0.05,-0.05,1.1,-1.16,5.92,9.7,913.43,25.27,
3275074,-0.02,-0.06,1.18,-0.98,4.58,9.83,913.47,25.26,
3275113,-0.04,-0.06,1.16,-1.28,5.31,10.01,913.47,25.27,
3275189,-0.02,-0.05,1.26,-1.4,3.42,10.19,913.46,25.23,
3275227,-0.03,-0.04,1.26,-1.89,3.11,10.44,913.45,25.25,
3275265,-0.02,-0.05,1.28,-1.53,2.38,10.74,913.45,25.25,
3275355,-0.03,-0.03,1.25,-1.34,0.18,10.8,913.47,25.22,
3275393,-0.01,-0.04,1.25,-1.34,-0.18,10.74,913.5,25.23,
3275431,-0.0,-0.06,1.19,-1.1,-1.22,10.56,913.47,25.23,
3275470,-0.03,-0.06,1.14,-0.73,-1.34,10.74,913.53,25.23,
3275508,-0.02,-0.06,1.14,-0.92,-0.73,10.5,913.48,25.24,
3275546,-0.01,-0.05,1.06,-0.79,0.0,10.01,913.4,25.24,
3275596,-0.04,-0.05,1.04,-0.79,0.0,10.07,913.51,25.24,
3275634,-0.04,-0.06,1.01,-0.92,2.14,9.95,913.48,25.23,
3275672,-0.02,-0.07,1.03,-0.92,2.99,9.77,913.5,25.24,
3275711,-0.03,-0.07,1.01,-0.98,3.54,9.58,913.42,25.24,
3275749,-0.05,-0.05,1.01,-0.98,3.3,9.83,913.46,25.25,
3275787,-0.04,-0.05,1.02,-0.73,4.03,9.95,913.56,25.25,
3275825,-0.03,-0.06,0.98,-1.1,3.97,10.07,913.53,25.25,
3275864,-0.04,-0.05,1.02,-0.85,3.17,10.19,913.54,25.25,
3275902,-0.03,-0.06,1.03,-0.98,3.97,10.19,913.5,25.25,
3275952,-0.01,-0.06,1.06,-0.92,3.23,10.25,913.53,25.23,
3275990,-0.02,-0.06,1.05,-0.98,2.5,10.19,913.56,25.25,
3276028,-0.03,-0.06,1.06,-0.92,1.59,10.44,913.42,25.26,
3276067,-0.02,-0.06,1.12,-1.1,0.79,10.38,913.48,25.25,
3276105,-0.02,-0.06,1.09,-1.28,0.06,10.56,913.48,25.26,
3276143,-0.02,-0.06,1.11,-1.22,-0.85,10.56,913.46,25.25,
3276181,-0.01,-0.05,1.09,-1.34,-1.28,10.56,913.51,25.25,
3276220,-0.01,-0.05,1.11,-1.4,-1.77,10.56,913.47,25.25,
3276258,-0.01,-0.06,1.11,-1.34,-2.14,10.5,913.53,25.26,
3276296,-0.02,-0.05,1.06,-1.34,-2.14,10.5,913.5,25.27,
3276346,-0.01,-0.05,1.09,-1.28,-2.08,10.44,913.51,25.24,
3276384,0.0,-0.06,1.03,-1.28,-1.95,10.19,913.46,25.25,
3276423,-0.01,-0.05,1.03,-1.28,-1.53,10.25,913.48,25.24,
3276461,0.01,-0.06,1.02,-1.16,-0.79,10.13,913.5,25.25,
3276499,-0.01,-0.06,0.99,-1.22,-1.04,9.77,913.49,25.24,
3276537,-0.02,-0.06,1.0,-1.1,-0.73,9.7,913.51,25.25,
3276576,-0.02,-0.06,0.97,-1.1,0.31,9.52,913.49,25.27,
3276614,-0.0,-0.05,0.96,-1.22,0.79,9.4,913.52,25.25,
3276652,-0.0,-0.05,0.99,-1.1,0.43,9.16,913.5,25.25,
3276702,-0.01,-0.06,1.01,-1.04,0.0,9.22,913.53,25.26,
3276740,-0.01,-0.05,1.1,-1.04,-0.37,9.16,913.48,25.26,
3276778,-0.01,-0.06,1.14,-1.1,-0.85,9.09,913.51,25.25,
3276816,-0.02,-0.06,1.11,-1.1,-0.73,8.91,913.56,25.27,
3276855,-0.02,-0.05,1.15,-0.61,-0.79,8.85,913.55,25.26,
3276893,-0.0,-0.06,1.09,-0.43,0.0,8.79,913.58,25.26,
3276931,0.01,-0.04,1.09,0.24,-0.06,8.42,913.57,25.26,
3276969,-0.02,-0.05,1.08,0.73,0.0,8.48,913.6,25.27,
3277007,-0.03,-0.05,1.06,0.98,0.31,8.54,913.55,25.25,
3277057,-0.02,-0.06,1.13,1.34,0.67,8.24,913.51,25.25,
3277096,-0.01,-0.06,1.12,1.28,0.61,8.48,913.51,25.27,
3277134,-0.0,-0.05,1.15,0.98,0.24,8.48,913.44,25.26,
3277172,-0.01,-0.05,1.14,0.67,0.24,8.48,913.52,25.26,
3277210,-0.01,-0.06,1.14,0.37,-0.37,8.67,913.51,25.27,
3277248,-0.01,-0.05,1.17,0.37,-0.79,8.91,913.45,25.26,
3277287,-0.0,-0.06,1.19,0.0,-0.49,8.54,913.44,25.25,
3277325,0.01,-0.06,1.19,-0.73,-1.16,8.73,913.42,25.27,
3277363,0.0,-0.04,1.22,-0.85,-1.04,8.54,913.49,25.27,
3277401,-0.02,-0.06,1.19,-1.59,1.4,8.24,913.45,25.25,
3277451,-0.0,-0.06,1.23,-2.01,2.75,8.12,913.5,25.26,
3277489,0.01,-0.05,1.22,-2.69,3.23,7.87,913.47,25.26,
3277527,-0.01,-0.04,1.21,-3.17,3.85,7.81,913.47,25.26,
3277566,-0.01,-0.05,1.18,-3.85,5.49,7.75,913.5,25.26,
3277604,0.02,-0.05,1.18,-4.27,5.31,7.51,913.5,25.26,
3277642,0.01,-0.04,1.2,-4.7,5.37,7.63,913.5,25.27,
3277680,-0.0,-0.05,1.18,-5.37,5.37,7.75,913.52,25.28,
3277719,0.01,-0.04,1.22,-5.62,4.64,7.63,913.51,25.26,
3277757,0.01,-0.05,1.23,-5.62,3.91,7.69,913.5,25.27,
3277807,0.01,-0.04,1.25,-5.74,2.38,7.87,913.54,25.25,
3277845,0.01,-0.04,1.27,-5.55,2.26,7.63,913.55,25.26,
3277883,0.01,-0.05,1.28,-5.07,1.16,7.57,913.48,25.25,
3277921,0.02,-0.04,1.24,-4.82,0.37,7.93,913.51,25.26,
3277959,0.01,-0.03,1.23,-4.27,-0.31,7.75,913.5,25.25,
3277997,-0.0,-0.06,1.15,-3.72,0.49,7.69,913.48,25.25,
3278036,0.01,-0.04,1.16,-3.17,0.06,7.45,913.49,25.27,
3278074,0.04,-0.05,1.15,-2.32,0.49,7.26,913.48,25.27,
3278112,0.02,-0.05,1.09,-2.08,0.37,6.96,913.46,25.27,
3278150,0.0,-0.05,1.13,-1.83,-0.12,7.02,913.51,25.27,
3278226,0.0,-0.05,1.15,-2.75,-0.79,6.53,913.5,25.25,
3278264,-0.01,-0.05,1.15,-3.23,0.61,6.53,913.58,25.25,
3278302,-0.0,-0.06,1.21,-3.11,1.53,6.1,913.57,25.25,
3278392,0.0,-0.05,1.22,-2.5,2.5,5.8,913.54,25.21,
3278430,0.01,-0.04,1.22,-2.32,3.36,5.8,913.56,25.22,
3278469,-0.01,-0.04,1.25,-1.22,2.01,5.74,913.53,25.23,
3278507,-0.02,-0.06,1.19,-1.34,2.93,5.74,913.59,25.23,
3278545,0.01,-0.05,1.21,-0.98,1.65,5.8,913.55,25.23,
3278583,0.01,-0.05,1.24,-0.79,2.5,5.68,913.53,25.22,
3278622,-0.03,-0.04,1.18,-0.85,1.71,5.74,913.6,25.23,
3278672,-0.01,-0.06,1.17,-0.79,3.6,5.8,913.52,25.21,
3278710,-0.0,-0.06,1.13,-0.55,2.44,5.55,913.59,25.22,
3278748,-0.04,-0.06,1.13,-0.31,2.87,5.68,913.61,25.22,
3278786,-0.02,-0.07,1.05,-0.55,3.72,5.68,913.57,25.21,
3278824,-0.01,-0.05,1.09,0.0,3.36,5.68,913.62,25.22,
3278863,-0.02,-0.06,1.05,0.0,4.09,5.98,913.57,25.24,
3278901,-0.02,-0.07,1.02,-0.31,3.97,5.92,913.53,25.22,
3278939,-0.04,-0.06,1.04,-0.31,4.7,5.74,913.61,25.22,
3278977,-0.02,-0.06,1.01,-0.73,5.13,5.98,913.59,25.23,
3279027,-0.03,-0.07,1.01,-0.67,5.55,6.04,913.57,25.22,
3279065,-0.02,-0.06,0.99,-0.85,6.04,6.04,913.55,25.22,
3279104,-0.03,-0.06,1.03,-0.61,5.98,6.35,913.57,25.22,
3279142,-0.03,-0.06,1.02,-0.85,5.98,6.53,913.58,25.24,
3279180,-0.03,-0.06,1.06,-0.49,4.94,6.53,913.6,25.24,
3279218,-0.04,-0.07,1.06,-0.18,4.94,6.53,913.6,25.23,
3279257,-0.04,-0.06,1.09,-0.12,3.72,6.71,913.6,25.24,
3279295,-0.03,-0.06,1.07,0.0,3.6,6.84,913.59,25.24,
3279333,-0.04,-0.05,1.04,0.0,2.56,7.14,913.58,25.25,
3279371,-0.04,-0.05,1.06,-0.06,2.44,7.32,913.52,25.23,
3279421,-0.03,-0.06,1.04,-0.31,2.56,7.26,913.6,25.23,
3279459,-0.05,-0.06,1.07,-0.06,2.75,7.51,913.55,25.24,
3279497,-0.04,-0.06,1.04,-0.18,3.11,7.75,913.57,25.24,
3279536,-0.05,-0.06,1.05,0.12,2.93,7.87,913.58,25.25,
3279574,-0.06,-0.06,0.99,-0.31,3.78,7.87,913.62,25.25,
3279612,-0.04,-0.06,0.96,-0.18,4.21,8.18,913.63,25.25,
3279650,-0.05,-0.06,0.98,0.0,4.58,8.18,913.58,25.25,
3279689,-0.06,-0.07,0.87,-0.37,5.49,8.48,913.55,25.25,
3279727,-0.06,-0.06,0.91,0.18,5.43,8.61,913.59,25.25,
3279777,-0.03,-0.08,0.8,-0.49,7.26,8.91,913.67,25.24,
3279815,-0.03,-0.06,0.84,-0.49,6.59,8.91,913.62,25.24,
3279853,-0.02,-0.07,0.8,-0.79,7.51,9.09,913.62,25.24,
3279891,-0.0,-0.06,0.84,-1.4,6.71,8.91,913.59,25.25,
3279929,-0.02,-0.07,0.87,-1.71,6.59,9.22,913.56,25.25,
3279968,-0.02,-0.07,0.9,-2.2,6.59,9.22,913.65,25.24,
3280006,-0.03,-0.07,0.97,-2.32,5.74,9.4,913.68,25.24,
3280044,-0.02,-0.06,0.93,-2.93,5.62,9.28,913.71,25.25,
3280082,-0.01,-0.05,1.01,-2.87,4.27,9.46,913.71,25.26,
3280121,-0.01,-0.06,1.03,-2.93,3.97,9.46,913.71,25.25,
3280171,-0.02,-0.05,1.09,-2.56,2.38,9.64,913.71,25.24,
3280209,-0.02,-0.06,1.12,-2.38,2.81,9.52,913.69,25.24,
3280247,-0.02,-0.05,1.13,-2.2,1.95,9.4,913.7,25.25,
3280285,-0.03,-0.05,1.18,-2.01,1.65,9.64,913.67,25.25,
3280323,-0.03,-0.05,1.16,-1.95,2.14,9.52,913.71,25.24,
3280362,-0.03,-0.04,1.19,-1.53,2.26,9.34,913.75,25.25,
3280400,-0.02,-0.05,1.16,-1.59,3.05,9.4,913.76,25.26,
3280438,-0.03,-0.05,1.12,-1.28,3.11,9.46,913.75,25.26,
3280476,-0.03,-0.05,1.14,-1.16,3.97,9.46,913.8,25.25,
3280526,-0.02,-0.05,1.11,-0.98,5.25,9.46,913.73,25.24,
3280565,-0.02,-0.05,1.14,-0.98,5.07,9.34,913.74,25.25,
3280603,-0.03,-0.06,1.11,-0.92,6.16,9.52,913.77,25.26,
3280641,-0.01,-0.06,1.11,-0.85,5.8,9.64,913.77,25.25,
3280679,-0.01,-0.05,1.12,-0.85,5.92,9.52,913.75,25.26,
3280718,-0.02,-0.05,1.08,-0.73,5.86,9.52,913.76,25.26,
3280756,-0.01,-0.06,1.09,-0.49,5.92,9.83,913.81,25.27,
3280794,-0.02,-0.07,1.04,-0.43,6.16,9.64,913.78,25.27,
3280832,-0.01,-0.06,1.02,-0.43,5.49,9.95,913.87,25.26,
3280870,-0.02,-0.05,1.01,-0.61,5.19,9.89,913.86,25.26,
3280920,0.01,-0.06,0.99,-0.61,4.7,10.01,913.85,25.24,
3280959,0.01,-0.06,1.07,-0.67,2.93,9.83,913.74,25.25,
3280997,-0.01,-0.07,1.03,-0.98,2.56,10.13,913.86,25.27,
3281035,-0.0,-0.05,1.09,-1.28,1.1,10.19,913.79,25.26,
3281073,0.01,-0.06,1.12,-1.28,0.55,10.13,913.86,25.27,
3281112,-0.0,-0.06,1.11,-1.4,-0.43,9.89,913.84,25.26,
3281150,0.0,-0.06,1.18,-1.4,-0.12,10.01,913.9,25.27,
3281188,0.01,-0.05,1.16,-1.95,0.24,9.77,913.82,25.27,
3281226,-0.01,-0.05,1.21,-1.65,0.06,9.58,913.86,25.26,
3281302,-0.0,-0.06,1.22,-1.4,0.18,9.46,913.93,25.23,
3281340,0.01,-0.05,1.17,-1.71,1.34,9.22,913.87,25.24,
3281379,0.01,-0.06,1.17,-1.46,1.59,9.28,913.9,25.25,
3281468,0.01,-0.06,1.14,-1.28,1.95,8.73,913.98,25.21,
3281507,0.0,-0.06,1.15,-1.1,1.89,8.73,913.91,25.21,
3281545,0.01,-0.06,1.11,-0.98,2.38,8.61,913.91,25.23,
3281583,0.0,-0.07,1.11,-0.85,1.83,8.42,913.88,25.24,
3281621,0.01,-0.07,1.07,-0.73,2.08,8.42,913.91,25.24,
3281660,0.01,-0.07,1.06,-0.67,2.2,8.24,913.93,25.24,
3281698,0.02,-0.07,1.06,-0.55,1.77,8.12,913.94,25.24,
3281748,-0.0,-0.07,1.05,-0.37,1.46,8.06,913.92,25.24,
3281786,-0.0,-0.07,1.02,-0.61,1.65,7.93,913.87,25.22,
3281824,0.0,-0.06,1.04,-0.49,1.16,7.69,913.96,25.25,
3281863,0.01,-0.07,1.04,-0.85,0.92,7.57,913.89,25.23,
3281901,0.01,-0.07,1.03,-0.98,0.85,7.45,913.93,25.24,
3281939,-0.0,-0.06,1.04,-1.16,0.92,7.39,913.96,25.24,
3281977,0.01,-0.07,1.04,-1.22,1.1,7.32,913.91,25.25,
3282016,0.0,-0.06,1.03,-1.16,1.04,7.14,913.96,25.25,
3282054,0.01,-0.07,1.02,-1.16,0.67,6.96,914.02,25.25,
3282104,0.0,-0.07,1.01,-1.16,0.61,6.84,913.98,25.23,
3282142,0.01,-0.07,1.04,-1.4,0.43,6.9,913.97,25.25,
3282180,-0.01,-0.06,1.04,-1.34,0.49,6.9,914.01,25.25,
3282218,-0.02,-0.07,1.05,-1.4,0.73,6.77,914.02,25.26,
3282256,0.01,-0.06,1.05,-1.4,0.98,6.65,914.01,25.25,
3282295,-0.01,-0.06,1.06,-1.46,0.98,6.71,914.08,25.25,
3282333,-0.01,-0.07,1.04,-1.1,1.34,6.47,914.04,25.25,
3282371,-0.0,-0.07,1.07,-0.73,1.65,6.35,914.06,25.25,
3282409,-0.01,-0.05,1.07,-0.98,1.04,6.29,914.04,25.25,
3282447,-0.02,-0.06,1.09,-0.73,1.16,6.41,914.09,25.25,
3282497,-0.02,-0.06,1.1,-0.85,1.16,6.35,914.11,25.26,
3282536,-0.02,-0.06,1.12,-0.61,1.16,6.41,914.1,25.26,
3282574,-0.02,-0.06,1.09,-0.55,1.34,6.29,914.1,25.26,
3282612,-0.01,-0.05,1.09,-0.67,1.34,6.16,914.07,25.24,
3282650,-0.03,-0.06,1.07,-0.55,1.83,6.47,914.09,25.26,
3282689,-0.03,-0.06,1.07,-0.43,1.59,6.53,914.07,25.25,
3282727,-0.04,-0.06,1.06,-0.43,2.01,6.59,914.18,25.27,
3282765,-0.04,-0.06,1.06,-0.43,2.14,6.71,914.17,25.27,
3282803,-0.02,-0.06,1.06,-0.18,2.32,6.59,914.16,25.26,
3282853,-0.04,-0.06,1.01,-0.06,2.87,6.71,914.18,25.25,
3282891,-0.03,-0.06,1.03,-0.18,3.23,6.96,914.12,25.25,
3282930,-0.03,-0.07,1.01,-0.24,3.48,7.14,914.13,25.24,
3282968,-0.04,-0.06,1.03,-0.06,2.87,7.2,914.16,25.26,
3283006,-0.04,-0.06,1.04,-0.24,3.48,7.45,914.14,25.24,
3283044,-0.04,-0.06,1.08,0.06,3.36,7.45,914.15,25.25,
3283083,-0.01,-0.07,1.08,-0.06,3.3,7.75,914.15,25.25,
3283121,-0.04,-0.07,1.09,0.06,3.05,7.93,914.14,25.24,
3283159,-0.04,-0.06,1.07,0.0,3.3,8.06,914.18,25.26,
3283197,-0.04,-0.06,1.05,0.06,3.23,8.24,914.19,25.25,
3283247,-0.04,-0.06,1.04,0.0,3.72,8.48,914.22,25.24,
3283285,-0.03,-0.06,1.07,0.37,3.3,8.48,914.18,25.25,
3283323,-0.03,-0.06,1.1,0.12,3.42,8.73,914.18,25.25,
3283362,-0.03,-0.06,1.07,-0.18,3.17,9.03,914.21,25.25,
3283400,-0.04,-0.07,1.11,-0.12,3.36,9.16,914.22,25.25,
3283438,-0.02,-0.07,1.1,-0.43,3.42,9.22,914.27,25.25,
3283476,-0.02,-0.06,1.09,-0.49,2.56,9.46,914.31,25.25,
3283515,-0.03,-0.06,1.07,-0.79,2.32,9.52,914.33,25.25,
3283553,-0.03,-0.06,1.07,-0.79,2.75,9.7,914.24,25.25,
3283603,-0.02,-0.06,1.1,-1.16,2.2,9.77,914.26,25.24,
3283641,-0.03,-0.06,1.1,-1.34,2.62,9.64,914.31,25.26,
3283679,-0.03,-0.06,1.13,-1.59,2.93,9.95,914.29,25.24,
3283718,-0.02,-0.06,1.16,-1.59,3.3,10.07,914.3,25.25,
3283756,-0.03,-0.06,1.19,-1.59,2.75,10.07,914.3,25.25,
3283794,-0.03,-0.05,1.19,-2.01,2.99,10.25,914.36,25.25,
3283832,-0.02,-0.05,1.2,-2.44,3.36,10.31,914.35,25.25,
3283870,-0.02,-0.05,1.16,-2.56,3.17,10.38,914.37,25.26,
3283909,-0.01,-0.06,1.19,-2.44,2.99,10.56,914.4,25.25,
3283947,-0.01,-0.07,1.16,-2.44,3.3,10.5,914.41,25.24,
3283997,0.0,-0.06,1.17,-2.38,3.3,10.44,914.42,25.23,
3284035,-0.01,-0.07,1.16,-2.38,3.6,10.38,914.35,25.23,
3284073,-0.02,-0.05,1.15,-2.5,3.6,10.38,914.4,25.22,
3284112,-0.0,-0.07,1.19,-2.44,4.03,10.31,914.37,25.23,
3284150,-0.02,-0.06,1.17,-2.44,3.48,10.25,914.41,25.23,
3284188,-0.0,-0.06,1.23,-2.2,3.11,10.07,914.45,25.23,
3284226,0.0,-0.06,1.2,-2.81,2.69,10.5,914.37,25.22,
3284265,-0.01,-0.06,1.24,-2.26,2.44,10.19,914.5,25.23,
3284303,-0.0,-0.05,1.25,-2.32,2.38,10.38,914.46,25.22,
3284379,-0.01,-0.05,1.29,-1.95,1.4,10.38,914.4,25.18,
3284417,-0.01,-0.05,1.28,-1.89,1.53,10.38,914.46,25.2,
3284455,0.01,-0.05,1.32,-1.71,1.04,10.44,914.43,25.19,
3284545,0.0,-0.06,1.31,-1.34,1.34,10.38,914.52,25.18,
3284583,-0.0,-0.07,1.26,-1.77,1.53,10.01,914.47,25.18,
3284621,0.0,-0.06,1.28,-1.59,1.28,9.95,914.58,25.21,
3284660,0.01,-0.06,1.22,-1.77,2.44,9.77,914.51,25.19,
3284698,0.02,-0.06,1.23,-1.4,1.53,9.89,914.53,25.2,
3284736,0.0,-0.07,1.22,-1.4,1.83,9.89,914.53,25.21,
3284774,-0.0,-0.07,1.19,-1.28,1.22,9.58,914.52,25.21,
3284824,0.0,-0.07,1.18,-1.77,1.71,9.58,914.56,25.21,
3284862,-0.01,-0.07,1.19,-1.65,0.61,9.34,914.53,25.2,
3284900,0.01,-0.07,1.2,-1.65,0.67,9.28,914.58,25.21,
3284939,0.0,-0.08,1.16,-1.95,1.28,9.34,914.5,25.21,
3284977,0.01,-0.06,1.23,-1.65,0.85,9.22,914.54,25.21,
3285015,0.01,-0.07,1.2,-1.83,1.1,9.16,914.57,25.21,
3285053,-0.0,-0.07,1.24,-1.59,0.24,9.16,914.54,25.22,
3285092,-0.0,-0.07,1.25,-1.77,0.55,8.97,914.56,25.22,
3285130,0.0,-0.08,1.25,-1.71,0.43,8.91,914.55,25.22,
3285180,0.0,-0.05,1.3,-1.65,0.0,8.91,914.53,25.21,
3285218,0.0,-0.06,1.32,-1.59,0.98,8.67,914.49,25.23,
3285256,0.01,-0.07,1.31,-1.77,1.22,8.61,914.57,25.23,
3285294,-0.02,-0.07,1.35,-1.46,0.98,8.54,914.55,25.23,
3285333,-0.01,-0.07,1.33,-1.4,1.95,8.61,914.53,25.22,
3285371,0.02,-0.07,1.34,-1.34,1.65,8.36,914.55,25.22,
3285409,-0.0,-0.07,1.32,-1.34,2.14,8.3,914.58,25.23,
3285447,-0.0,-0.07,1.33,-1.16,2.32,8.3,914.6,25.22,
3285486,0.01,-0.07,1.3,-1.4,3.36,8.24,914.56,25.22,
3285524,-0.01,-0.07,1.29,-1.28,2.99,8.24,914.58,25.22,
3285574,0.0,-0.07,1.26,-1.1,3.42,8.3,914.52,25.21,
3285612,-0.0,-0.08,1.22,-1.1,3.48,8.24,914.51,25.22,
3285650,0.01,-0.08,1.21,-1.16,3.05,8.0,914.51,25.22,
3285688,0.01,-0.07,1.22,-1.34,3.66,8.24,914.48,25.23,
3285727,0.01,-0.08,1.23,-1.34,3.42,8.3,914.52,25.22,
3285765,-0.0,-0.07,1.22,-1.1,2.69,8.12,914.51,25.22,
3285803,0.0,-0.08,1.26,-1.04,1.89,8.24,914.52,25.23,
3285841,0.02,-0.09,1.25,-1.04,2.2,8.06,914.53,25.23,
3285880,0.02,-0.09,1.16,-1.16,2.75,7.81,914.54,25.24,
3285930,0.02,-0.08,1.14,-1.04,1.71,7.75,914.45,25.22,
3285968,0.01,-0.09,1.12,-1.28,2.62,7.51,914.46,25.22,
3286006,0.01,-0.08,1.1,-1.77,2.01,7.69,914.5,25.23,
3286044,0.0,-0.1,1.08,-1.59,2.44,7.51,914.35,25.22,
3286082,0.0,-0.09,1.08,-2.08,0.61,7.2,914.45,25.23,
3286121,0.02,-0.08,1.19,-1.89,0.0,7.2,914.49,25.24,
3286159,0.01,-0.08,1.22,-2.32,-0.73,7.14,914.44,25.23,
3286197,0.0,-0.08,1.29,-2.26,-2.08,7.39,914.39,25.22,
3286235,0.02,-0.09,1.38,-2.08,-2.87,7.14,914.52,25.23,
3286273,0.01,-0.08,1.34,-2.44,-2.56,7.02,914.47,25.23,
3286323,0.01,-0.08,1.31,-2.2,-1.16,6.96,914.47,25.23,
3286362,0.03,-0.08,1.31,-1.89,-0.92,6.53,914.43,25.23,
3286400,-0.01,-0.08,1.27,-1.59,-0.55,6.47,914.52,25.24,
3286438,-0.03,-0.08,1.26,-1.59,1.1,6.41,914.47,25.23,
3286476,0.01,-0.08,1.27,-1.71,1.77,6.23,914.43,25.22,
3286515,0.0,-0.07,1.32,-1.71,1.4,5.92,914.54,25.24,
3286553,-0.0,-0.07,1.32,-2.14,1.53,6.29,914.48,25.22,
3286591,0.01,-0.07,1.43,-1.83,1.77,6.29,914.51,25.24,
3286629,-0.0,-0.07,1.44,-1.77,2.26,6.23,914.42,25.23,
3286668,-0.01,-0.07,1.47,-1.28,1.16,6.47,914.44,25.24,
3286717,-0.01,-0.07,1.43,-1.16,2.14,6.47,914.38,25.21,
3286756,0.01,-0.06,1.45,-1.34,1.83,6.35,914.38,25.23,
3286794,-0.0,-0.07,1.4,-1.53,1.95,6.65,914.43,25.22,
3286832,-0.02,-0.08,1.38,-1.34,1.16,6.59,914.37,25.23,
3286870,-0.01,-0.06,1.4,-1.46,2.08,6.59,914.42,25.21,
3286909,-0.01,-0.08,1.4,-1.65,2.69,6.71,914.37,25.22,
3286947,-0.02,-0.09,1.32,-1.95,3.66,6.77,914.43,25.23,
3286985,-0.03,-0.09,1.23,-1.83,4.82,6.71,914.43,25.23,
3287023,-0.03,-0.1,1.15,-1.59,7.26,6.77,914.41,25.23,
3287073,0.0,-0.09,0.98,-2.32,7.69,6.47,914.37,25.21,
3287112,-0.02,-0.09,0.95,-2.2,8.97,6.65,914.31,25.22,
3287150,0.02,-0.09,0.92,-3.42,8.0,6.9,914.26,25.22,
3287188,0.0,-0.09,0.99,-3.17,6.71,6.84,914.3,25.23,
3287226,-0.02,-0.09,1.03,-3.91,6.71,7.02,914.3,25.22,
3287264,-0.01,-0.09,1.13,-3.42,5.43,6.84,914.3,25.22,
3287303,0.0,-0.09,1.17,-3.97,6.29,6.65,914.31,25.24,
3287341,0.01,-0.08,1.26,-4.21,6.29,6.77,914.25,25.23,
3287379,0.01,-0.09,1.3,-4.39,7.57,6.96,914.3,25.23,
3287417,-0.02,-0.09,1.27,-4.21,6.96,6.9,914.26,25.24,
3287495,-0.01,-0.09,1.25,-3.91,7.02,6.96,914.32,25.2,
3287533,-0.01,-0.09,1.19,-4.09,8.12,6.9,914.31,25.21,
3287571,0.0,-0.07,1.2,-3.85,7.51,7.02,914.35,25.22,
3287661,-0.01,-0.08,1.18,-3.54,8.61,7.02,914.29,25.19,
3287699,-0.01,-0.1,1.21,-3.3,8.24,7.08,914.22,25.19,
3287737,-0.0,-0.09,1.15,-3.72,5.62,7.32,914.24,25.19,
3287776,0.0,-0.08,1.21,-3.05,5.43,7.08,914.26,25.19,
3287814,0.0,-0.09,1.1,-3.54,5.25,7.14,914.19,25.2,
3287852,0.01,-0.08,1.23,-2.81,2.99,7.45,914.18,25.19,
3287902,-0.01,-0.1,1.16,-3.42,4.09,7.63,914.17,25.19,
3287940,-0.01,-0.07,1.24,-2.81,2.62,7.39,914.14,25.19,
3287978,-0.02,-0.09,1.3,-2.93,2.38,7.39,914.2,25.21,
3288017,-0.0,-0.08,1.25,-3.66,1.46,7.45,914.16,25.2,
3288055,-0.02,-0.08,1.35,-3.72,2.62,7.39,914.13,25.22,
3288093,-0.0,-0.07,1.32,-4.39,3.91,7.51,914.15,25.21,
3288131,-0.03,-0.08,1.37,-3.66,4.52,7.63,914.15,25.2,
3288170,-0.03,-0.1,1.36,-4.09,5.13,7.51,914.09,25.21,
3288208,-0.02,-0.08,1.42,-3.48,5.43,7.57,914.1,25.22,
3288246,-0.01,-0.07,1.41,-3.91,6.77,7.45,914.06,25.22,
3288296,0.0,-0.07,1.41,-3.91,7.45,7.63,913.98,25.21,
3288334,-0.02,-0.08,1.37,-4.15,8.42,7.81,914.02,25.22,
3288372,-0.0,-0.08,1.41,-4.15,8.42,7.93,913.95,25.21,
3288411,-0.03,-0.08,1.4,-3.72,8.36,7.93,914.0,25.21,
3288449,-0.02,-0.08,1.36,-3.36,7.81,8.12,913.94,25.21,
3288487,-0.01,-0.06,1.42,-3.11,6.84,8.12,913.94,25.22,
3288525,0.02,-0.07,1.4,-2.81,7.2,8.0,913.96,25.23,
3288564,-0.01,-0.08,1.35,-2.69,6.29,8.54,913.92,25.21,
3288602,-0.0,-0.08,1.39,-2.32,6.1,8.61,913.9,25.22,
3288652,0.0,-0.07,1.31,-2.14,4.94,8.36,913.89,25.22,
3288690,-0.01,-0.08,1.31,-2.01,4.58,8.67,913.89,25.22,
3288728,0.02,-0.09,1.25,-1.95,3.85,8.61,913.93,25.22,
3288767,0.03,-0.07,1.24,-2.81,3.05,8.3,913.85,25.22,
3288805,0.0,-0.07,1.19,-3.3,3.05,8.3,913.85,25.23,
3288843,-0.01,-0.07,1.2,-3.72,2.38,8.54,913.84,25.23,
3288881,0.02,-0.09,1.25,-3.85,1.95,8.36,913.77,25.22,
3288920,0.01,-0.07,1.28,-3.91,0.37,8.3,913.75,25.23,
3288958,-0.0,-0.05,1.41,-3.42,0.24,8.48,913.77,25.22,
3288996,0.02,-0.07,1.33,-3.78,1.1,8.24,913.76,25.22,
3289046,-0.0,-0.05,1.4,-2.56,15.32,8.42,913.79,25.22,
3289084,-0.02,-0.1,1.27,-2.01,1.1,8.48,913.75,25.22,
3289122,0.02,-0.08,1.21,-1.16,0.67,8.18,913.67,25.22,
3289161,0.02,-0.07,1.09,-0.92,1.34,8.24,913.74,25.21,
3289199,-0.01,-0.08,0.93,-1.34,1.71,8.06,913.55,25.2,
3289237,0.0,-0.07,0.91,-0.98,2.87,8.06,913.58,25.21,
3289275,0.04,-0.09,0.9,-1.53,3.17,7.69,913.55,25.22,
3289314,0.0,-0.08,0.97,-1.28,2.87,7.75,913.56,25.22,
3289352,-0.0,-0.09,0.95,-1.59,4.27,7.87,913.48,25.23,
3289402,0.04,-0.08,1.08,-1.16,4.76,7.39,913.43,25.2,
3289440,0.02,-0.08,1.03,-1.65,5.49,7.57,913.42,25.21,
3289478,0.02,-0.08,1.06,-1.28,4.94,7.39,913.42,25.22,
3289516,0.01,-0.08,1.09,-1.46,5.98,7.14,913.36,25.22,
3289555,0.04,-0.07,1.06,-1.53,5.68,7.02,913.38,25.22,
3289593,0.04,-0.06,1.12,-1.1,3.85,6.84,913.36,25.23,
3289631,0.02,-0.08,1.14,-0.85,4.58,6.84,913.38,25.22,
3289669,0.02,-0.07,1.2,-0.24,3.36,6.71,913.3,25.23,
3289708,0.04,-0.08,1.23,0.06,4.15,6.71,913.31,25.22,
3289746,0.03,-0.07,1.19,0.18,3.72,6.65,913.34,25.24,
3289796,0.02,-0.07,1.16,0.24,3.97,6.41,913.22,25.22,
3289834,0.02,-0.08,1.1,0.31,3.72,6.23,913.25,25.23,
3289872,0.02,-0.07,1.11,0.73,3.3,6.04,913.22,25.22,
3289910,0.03,-0.06,1.13,0.67,3.23,6.23,913.14,25.23,
3289949,0.02,-0.07,1.1,1.16,3.54,6.04,913.23,25.22,
3289987,0.02,-0.07,1.09,1.46,3.78,5.92,913.17,25.23,
3290025,0.03,-0.08,1.1,1.4,4.46,5.74,913.15,25.23,
3290063,0.02,-0.06,1.11,1.65,4.03,5.68,913.15,25.23,
3290102,0.01,-0.09,1.02,1.53,4.82,5.37,913.14,25.24,
3290140,0.01,-0.06,1.05,1.46,4.64,5.37,913.13,25.23,
3290190,0.01,-0.07,0.98,1.77,6.29,5.25,913.12,25.22,
3290228,0.02,-0.07,1.0,2.01,5.62,5.0,913.01,25.21,
3290266,0.01,-0.08,0.98,2.32,6.59,4.88,913.02,25.23,
3290305,0.02,-0.08,0.97,2.38,6.96,5.07,913.0,25.22,
3290343,0.02,-0.07,0.98,3.17,6.84,4.76,913.03,25.23,
3290381,0.02,-0.07,0.93,2.75,6.9,4.76,912.93,25.23,
3290419,-0.01,-0.07,0.9,3.66,6.65,4.94,912.99,25.24,
3290457,-0.01,-0.08,0.85,3.6,6.77,4.76,912.91,25.22,
3290496,-0.01,-0.09,0.86,4.27,7.2,4.58,912.89,25.24,
3290534,-0.0,-0.08,0.78,4.21,7.93,4.7,912.85,25.22,
3290610,0.01,-0.08,0.72,4.39,9.95,4.7,912.77,25.21,
3290648,-0.0,-0.08,0.73,4.21,10.01,4.64,912.76,25.21,
3290686,-0.01,-0.08,0.76,3.66,9.77,4.7,912.79,25.22,
3290776,0.02,-0.07,0.83,2.69,9.34,4.58,912.77,25.18,
3290814,0.02,-0.08,0.85,2.01,9.22,4.39,912.77,25.19,
3290852,0.01,-0.07,0.87,1.89,7.87,4.39,912.7,25.19,
3290891,0.0,-0.07,0.89,1.46,6.9,4.52,912.75,25.21,
3290929,0.01,-0.06,0.92,1.65,5.55,4.39,912.75,25.21,
3290967,0.01,-0.07,0.93,1.4,4.82,4.46,912.75,25.21,
3291017,-0.0,-0.07,0.92,1.59,4.33,4.52,912.78,25.21,
3291055,-0.01,-0.07,0.91,1.71,4.09,4.39,912.74,25.22,
3291093,0.0,-0.07,0.89,1.71,3.66,4.21,912.66,25.22,
3291132,0.01,-0.07,0.89,1.65,3.36,4.21,912.68,25.22,
3291170,-0.02,-0.07,0.89,1.77,4.21,4.33,912.66,25.2,
3291208,-0.0,-0.07,0.93,2.08,4.88,4.09,912.68,25.22,
3291246,-0.0,-0.07,0.96,2.56,5.13,3.85,912.67,25.22,
3291285,-0.0,-0.07,0.94,2.38,5.92,4.03,912.6,25.22,
3291323,-0.0,-0.07,0.96,2.69,6.16,3.91,912.61,25.22,
3291361,-0.01,-0.06,0.96,2.69,5.8,4.09,912.61,25.22,
3291411,-0.02,-0.07,0.93,3.17,4.7,4.09,912.55,25.21,
3291449,-0.03,-0.07,0.91,3.11,4.21,3.91,912.52,25.21,
3291487,-0.01,-0.06,0.92,3.36,3.66,4.15,912.53,25.22,
3291526,-0.01,-0.07,0.91,3.23,3.3,4.39,912.5,25.21,
3291564,-0.03,-0.08,0.91,3.23,3.23,4.33,912.51,25.22,
3291602,-0.02,-0.07,0.91,3.05,3.66,4.27,912.45,25.21,
3291640,-0.02,-0.07,0.89,3.05,3.54,4.39,912.48,25.23,
3291679,-0.03,-0.07,0.85,2.69,4.03,4.46,912.45,25.23,
3291717,-0.03,-0.08,0.82,2.38,4.46,4.39,912.43,25.23,
3291755,-0.02,-0.08,0.81,2.08,5.0,4.58,912.35,25.23,
3291805,-0.02,-0.07,0.82,1.59,5.49,4.76,912.36,25.22,
3291843,-0.03,-0.07,0.81,1.53,6.29,4.76,912.25,25.22,
3291881,-0.03,-0.07,0.83,1.95,6.71,4.94,912.37,25.23,
3291919,-0.02,-0.07,0.81,2.2,6.71,5.19,912.3,25.22,
3291958,-0.02,-0.07,0.8,2.01,6.65,5.25,912.33,25.21,
3291996,-0.02,-0.07,0.81,2.14,6.29,5.37,912.31,25.24,
3292034,-0.01,-0.07,0.79,2.32,5.98,5.25,912.38,25.24,
3292072,-0.01,-0.08,0.8,2.44,4.7,5.55,912.37,25.24,
3292110,-0.01,-0.07,0.8,2.5,4.09,5.43,912.28,25.22,
3292160,-0.01,-0.07,0.86,2.62,2.44,5.49,912.34,25.22,
3292199,-0.02,-0.07,0.86,2.5,2.08,5.68,912.27,25.22,
3292237,-0.02,-0.07,0.86,2.69,1.71,5.43,912.28,25.23,
3292275,-0.02,-0.08,0.85,2.87,2.01,5.55,912.24,25.22,
3292313,-0.01,-0.07,0.83,2.75,2.2,5.8,912.3,25.22,
3292351,-0.01,-0.06,0.86,2.69,1.65,5.37,912.27,25.23,
3292390,-0.01,-0.08,0.85,2.44,2.01,5.55,912.26,25.23,
3292428,-0.02,-0.07,0.88,2.26,1.83,5.49,912.25,25.23,
3292466,-0.0,-0.09,0.91,2.2,2.5,5.37,912.23,25.23,
3292504,-0.02,-0.07,0.85,1.59,2.56,5.31,912.19,25.22,
3292554,-0.02,-0.07,0.93,2.56,1.83,5.43,912.25,25.24,
3292593,-0.02,-0.08,0.89,2.08,2.2,5.25,912.23,25.21,
3292631,-0.01,-0.06,0.94,2.87,1.83,5.13,912.27,25.25,
3292669,-0.02,-0.07,0.92,3.05,2.26,5.25,912.3,25.24,
3292707,-0.03,-0.06,0.95,3.66,2.62,5.0,912.23,25.24,
3292745,-0.0,-0.07,0.92,3.6,2.62,5.0,912.23,25.24,
3292784,-0.02,-0.07,0.9,3.6,2.99,4.88,912.19,25.25,
3292822,-0.01,-0.09,0.83,2.99,3.36,4.94,912.1,25.24,
3292860,-0.02,-0.07,0.82,2.01,2.08,5.0,912.12,25.24,
3292898,-0.03,-0.07,0.87,1.22,2.14,5.37,912.19,25.24,
3292948,-0.01,-0.08,0.89,0.06,2.38,5.07,912.14,25.24,
3292987,-0.02,-0.06,1.01,-0.24,1.65,5.07,912.16,25.24,
3293025,-0.02,-0.06,1.05,-0.24,1.59,5.31,912.18,25.24,
3293063,-0.01,-0.06,1.13,-0.18,1.53,4.94,912.18,25.25,
3293101,-0.01,-0.06,1.16,-0.24,1.89,5.13,912.17,25.24,
3293140,-0.04,-0.06,1.19,0.0,2.01,5.25,912.17,25.24,
3293178,-0.01,-0.07,1.21,0.24,2.87,5.19,912.13,25.25,
3293216,-0.02,-0.06,1.24,0.55,2.2,5.0,912.17,25.24,
3293254,-0.02,-0.07,1.2,0.73,2.56,5.07,912.14,25.25,
3293304,-0.04,-0.07,1.19,1.4,3.05,4.88,912.17,25.22,
3293342,-0.02,-0.06,1.2,1.77,2.99,5.07,912.14,25.24,
3293381,-0.01,-0.06,1.18,1.83,2.81,4.88,912.11,25.24,
3293419,-0.04,-0.07,1.14,1.71,3.48,5.0,912.16,25.24,
3293457,-0.02,-0.06,1.19,2.26,3.17,5.19,912.05,25.24,
3293495,-0.01,-0.07,1.16,2.14,3.05,4.88,912.01,25.23,
3293534,-0.02,-0.06,1.13,2.5,2.2,4.88,912.05,25.24,
3293572,-0.04,-0.07,1.07,2.38,3.17,5.25,912.07,25.24,
3293610,-0.03,-0.06,1.08,2.75,2.62,5.0,912.08,25.25,
3293648,-0.02,-0.08,1.01,2.38,2.44,4.94,912.09,25.25,
3293724,-0.03,-0.07,0.99,2.81,1.77,5.19,912.0,25.21,
3293763,-0.02,-0.07,0.91,2.26,1.04,5.07,911.93,25.22,
3293801,-0.02,-0.07,0.88,2.38,-0.24,5.31,911.96,25.23,
3293891,-0.05,-0.08,0.79,1.16,-0.92,5.31,911.97,25.19,
3293929,-0.05,-0.07,0.82,1.77,-1.34,5.62,911.99,25.21,
3293967,-0.04,-0.1,0.72,0.79,-0.18,5.62,911.95,25.22,
3294005,0.0,-0.07,0.84,0.55,-1.28,5.43,911.99,25.22,
3294044,-0.02,-0.12,0.73,0.79,1.1,5.37,911.92,25.21,
3294082,-0.03,-0.07,0.8,0.0,0.37,5.43,911.91,25.23,
3294120,-0.02,-0.08,0.85,0.67,1.22,5.55,911.92,25.22,
3294170,-0.03,-0.08,0.9,0.49,1.65,5.37,911.93,25.21,
3294208,-0.03,-0.08,0.91,1.04,2.75,5.19,911.93,25.22,
3294246,-0.02,-0.08,0.92,0.85,4.03,4.88,911.94,25.22,
3294285,-0.0,-0.08,0.98,1.53,3.85,4.94,911.91,25.23,
3294323,-0.01,-0.07,0.95,1.16,4.39,4.94,911.9,25.21,
3294361,-0.04,-0.07,0.97,1.4,4.09,4.94,911.93,25.23,
3294399,-0.04,-0.08,0.99,0.92,5.0,5.0,911.91,25.22,
3294438,-0.01,-0.07,1.04,0.85,4.09,4.94,911.87,25.24,
3294476,-0.04,-0.08,1.02,0.67,5.31,5.0,911.94,25.23,
3294526,-0.04,-0.07,1.04,0.43,6.84,5.13,911.92,25.22,
3294564,-0.02,-0.08,1.06,0.31,7.87,5.13,911.86,25.23,
3294602,-0.03,-0.07,1.09,0.79,7.2,5.43,911.84,25.24,
3294641,-0.05,-0.08,1.07,0.92,7.63,5.43,911.89,25.22,
3294679,-0.01,-0.06,1.13,1.4,6.9,5.55,911.82,25.24,
3294717,0.01,-0.07,1.13,2.01,5.43,5.62,911.91,25.22,
3294755,-0.03,-0.07,1.04,1.83,3.85,5.62,911.9,25.24,
3294794,-0.03,-0.06,1.1,2.44,2.44,5.68,911.85,25.24,
3294832,-0.01,-0.09,1.05,1.89,2.69,5.68,911.93,25.24,
3294870,-0.03,-0.08,1.01,1.77,2.01,5.55,911.85,25.24,
3294920,-0.04,-0.07,0.98,1.71,3.72,5.74,911.81,25.22,
3294958,-0.0,-0.08,0.99,1.59,4.27,5.25,911.84,25.23,
3294997,-0.01,-0.08,0.97,1.59,4.39,5.31,911.87,25.23,
3295035,-0.04,-0.07,0.94,1.77,5.8,5.49,911.81,25.23,
3295073,-0.03,-0.08,0.86,1.71,6.84,5.62,911.83,25.23,
3295111,-0.04,-0.07,0.81,2.14,5.68,5.43,911.79,25.24,
3295150,-0.01,-0.07,0.78,2.14,5.07,5.68,911.85,25.24,
3295188,-0.02,-0.08,0.69,1.53,5.62,5.55,911.8,25.23,
3295226,-0.01,-0.07,0.75,2.32,5.0,5.43,911.77,25.24,
3295264,-0.01,-0.08,0.74,1.95,5.43,5.62,911.8,25.24,
3295314,-0.03,-0.08,0.79,1.83,4.94,5.62,911.78,25.23,
3295352,-0.01,-0.09,0.8,1.34,5.92,5.49,911.76,25.23,
3295391,-0.02,-0.08,0.86,1.16,4.76,5.37,911.76,25.23,
3295429,-0.03,-0.08,0.87,1.16,4.82,5.43,911.71,25.24,
3295467,-0.01,-0.08,0.87,0.73,4.58,5.25,911.81,25.24,
3295505,-0.03,-0.08,0.92,0.98,3.78,5.62,911.77,25.24,
3295543,-0.01,-0.09,0.95,0.55,3.48,5.49,911.85,25.25,
3295582,-0.03,-0.07,0.99,0.73,2.81,5.49,911.82,25.25,
3295620,-0.02,-0.08,1.01,0.67,2.44,5.62,911.79,25.23,
3295670,-0.03,-0.07,1.04,0.92,1.83,5.62,911.77,25.22,
3295708,-0.02,-0.07,1.04,1.1,1.89,5.49,911.76,25.23,
3295746,-0.02,-0.08,1.03,0.98,1.65,5.68,911.76,25.23,
3295785,-0.02,-0.07,1.03,1.04,1.34,5.49,911.73,25.22,
3295823,-0.02,-0.08,1.03,1.34,1.53,5.62,911.79,25.24,
3295861,-0.02,-0.07,1.01,1.16,1.65,5.62,911.82,25.23,
3295899,-0.01,-0.08,1.01,1.04,1.22,5.43,911.75,25.23,
3295938,-0.03,-0.08,0.96,0.67,1.16,5.49,911.73,25.23,
3295976,-0.03,-0.07,0.97,0.31,0.67,5.49,911.78,25.24,
3296014,-0.03,-0.08,0.99,-0.37,0.98,5.55,911.68,25.23,
3296064,-0.02,-0.07,1.06,-0.92,1.59,5.55,911.72,25.21,
3296102,-0.01,-0.07,1.09,-1.59,1.89,5.43,911.73,25.22,
3296140,-0.03,-0.08,1.11,-1.83,2.38,5.49,911.72,25.22,
3296179,-0.02,-0.07,1.12,-2.38,2.81,5.68,911.71,25.22,
3296217,-0.02,-0.07,1.13,-2.93,2.56,5.31,911.75,25.24,
3296255,-0.03,-0.07,1.17,-2.93,2.5,5.55,911.78,25.24,
3296293,-0.02,-0.07,1.15,-2.81,2.56,5.49,911.83,25.24,
3296332,-0.02,-0.07,1.23,-1.95,1.77,5.49,911.76,25.24,
3296370,-0.01,-0.07,1.22,-1.77,2.14,5.55,911.79,25.24,
3296420,-0.01,-0.06,1.28,-1.1,1.04,5.68,911.73,25.24,
3296458,-0.02,-0.07,1.21,-1.04,1.77,5.62,911.72,25.23,
3296496,-0.01,-0.06,1.27,-0.49,1.95,5.43,911.73,25.23,
3296535,-0.01,-0.07,1.22,-0.55,2.99,5.55,911.77,25.23,
3296573,-0.02,-0.07,1.2,-0.18,2.69,5.49,911.75,25.23,
3296611,-0.01,-0.07,1.15,0.06,3.48,5.49,911.82,25.25,
3296649,-0.01,-0.07,1.16,0.49,3.6,5.49,911.74,25.24,
3296688,-0.0,-0.08,1.15,0.37,4.33,5.25,911.79,25.24,
3296726,-0.02,-0.06,1.16,0.43,3.78,5.37,911.74,25.24,
3296764,-0.0,-0.07,1.13,0.37,4.58,5.43,911.7,25.25,
3296840,-0.01,-0.07,1.13,0.49,4.76,5.31,911.7,25.21,
3296878,-0.03,-0.07,1.11,0.85,4.58,5.25,911.67,25.23,
3296916,-0.02,-0.07,1.1,0.79,4.58,5.31,911.69,25.22,
3297006,-0.02,-0.07,1.05,1.22,3.72,5.25,911.72,25.19,
3297044,-0.02,-0.07,1.02,1.28,3.42,5.13,911.61,25.21,
3297083,-0.02,-0.08,0.99,1.1,3.36,5.19,911.62,25.2,
3297121,-0.02,-0.07,0.97,1.46,2.69,5.13,911.64,25.21,
3297159,-0.01,-0.08,0.97,1.4,2.81,5.19,911.66,25.22,
3297197,-0.0,-0.08,0.95,1.22,2.32,5.07,911.6,25.22,
3297236,-0.01,-0.08,0.96,1.77,0.98,5.19,911.67,25.23,
3297286,-0.01,-0.08,0.9,1.22,0.49,5.19,911.62,25.22,
3297324,-0.0,-0.07,0.93,1.28,-0.67,5.13,911.55,25.21,
3297362,-0.01,-0.08,0.88,0.79,-0.79,4.88,911.53,25.22,
3297400,-0.01,-0.07,0.9,0.73,-1.83,4.88,911.55,25.22,
3297439,-0.01,-0.09,0.93,0.12,-1.89,4.76,911.53,25.21,
3297477,-0.01,-0.07,0.94,-0.18,-2.08,4.76,911.57,25.22,
3297515,-0.02,-0.08,0.99,-0.43,-2.38,4.7,911.54,25.23,
3297553,-0.03,-0.08,1.0,-0.55,-2.38,4.58,911.5,25.22,
3297592,-0.02,-0.07,1.05,-0.24,-2.5,4.52,911.48,25.21,
3297642,-0.01,-0.07,1.07,-0.24,-2.01,4.46,911.55,25.2,
3297680,-0.01,-0.07,1.12,0.37,-2.26,4.09,911.52,25.23,
3297718,-0.03,-0.07,1.07,0.31,-1.71,4.09,911.57,25.23,
3297756,-0.02,-0.07,1.12,1.1,-1.71,4.09,911.53,25.22,
3297795,-0.01,-0.08,1.11,0.92,-1.34,3.91,911.52,25.23,
3297833,-0.02,-0.06,1.11,1.53,-1.28,3.85,911.57,25.23,
3297871,-0.02,-0.07,1.13,2.01,-1.04,3.91,911.54,25.23,
3297909,-0.01,-0.06,1.11,2.44,-1.34,3.6,911.51,25.23,
3297948,-0.02,-0.08,1.12,2.93,-1.53,3.48,911.5,25.23,
3297986,-0.02,-0.07,1.05,3.05,-0.73,3.54,911.52,25.23,
3298036,-0.03,-0.06,1.04,3.48,-1.46,3.48,911.51,25.23,
3298074,-0.03,-0.07,1.0,3.42,-1.65,3.48,911.49,25.22,
3298112,-0.03,-0.08,1.0,3.54,-2.01,3.54,911.45,25.22,
3298151,-0.03,-0.08,0.98,3.42,-1.59,3.54,911.44,25.22,
3298189,-0.02,-0.08,0.93,2.87,-1.4,3.48,911.41,25.24,
3298227,-0.04,-0.07,0.95,2.75,-1.22,3.42,911.42,25.24,
3298265,-0.02,-0.09,0.92,2.2,-0.79,3.54,911.38,25.23,
3298304,-0.04,-0.07,0.93,1.46,-1.22,3.54,911.34,25.23,
3298342,-0.05,-0.09,0.93,0.73,-0.18,3.6,911.36,25.24,
3298392,-0.05,-0.08,0.96,0.37,-0.55,3.78,911.41,25.22,
3298430,-0.05,-0.08,0.96,0.49,0.18,3.72,911.39,25.23,
3298468,-0.05,-0.08,0.97,0.43,0.31,3.78,911.43,25.23,
3298507,-0.05,-0.08,0.99,0.55,1.04,3.78,911.39,25.22,
3298545,-0.04,-0.07,0.91,0.12,1.95,4.15,911.36,25.24,
3298583,-0.05,-0.07,0.93,0.49,1.4,4.33,911.42,25.23,
3298621,-0.06,-0.07,0.91,-0.18,2.5,4.33,911.41,25.23,
3298660,-0.06,-0.08,0.92,0.12,2.38,4.58,911.38,25.23,
3298698,-0.04,-0.07,0.96,0.0,2.44,4.88,911.34,25.24,
3298736,-0.05,-0.08,0.95,0.0,2.69,4.88,911.36,25.23,
3298786,-0.05,-0.07,0.97,0.12,2.93,5.31,911.38,25.21,
3298824,-0.04,-0.08,0.96,0.0,2.81,5.25,911.4,25.23,
3298862,-0.04,-0.08,0.94,0.18,2.62,5.43,911.39,25.23,
3298900,-0.04,-0.07,0.92,0.12,2.93,5.68,911.31,25.23,
3298939,-0.04,-0.07,0.92,0.06,2.26,5.68,911.34,25.23,
3298977,-0.05,-0.08,0.94,0.12,1.59,5.86,911.35,25.25,
3299015,-0.05,-0.08,0.96,0.12,0.49,6.29,911.25,25.24,
3299053,-0.04,-0.08,0.95,-0.12,0.37,6.23,911.36,25.24,
3299092,-0.04,-0.07,0.97,-0.18,-0.24,6.47,911.37,25.24,
3299142,-0.03,-0.08,0.98,-0.31,-0.37,6.71,911.29,25.23,
3299180,-0.04,-0.07,1.02,-0.18,-0.98,6.71,911.32,25.23,
3299218,-0.05,-0.07,1.06,-0.43,-1.04,6.96,911.37,25.24,
3299256,-0.03,-0.07,1.09,-0.73,-0.98,7.08,911.3,25.24,
3299295,-0.03,-0.06,1.15,-0.98,-1.4,7.14,911.31,25.23,
3299333,-0.04,-0.07,1.16,-1.28,-1.1,7.32,911.3,25.23,
3299371,-0.04,-0.06,1.21,-1.46,-1.53,7.45,911.29,25.23,
3299409,-0.04,-0.06,1.22,-1.83,-1.59,7.57,911.26,25.24,
3299447,-0.03,-0.06,1.24,-1.95,-1.28,7.57,911.33,25.23,
3299486,-0.03,-0.06,1.29,-2.32,-1.83,7.57,911.28,25.23,
3299536,-0.03,-0.06,1.31,-2.69,-1.1,7.63,911.2,25.22,
3299574,-0.02,-0.05,1.34,-2.69,-1.65,7.51,911.25,25.23,
3299612,-0.03,-0.06,1.36,-2.5,-0.73,7.39,911.28,25.23,
3299650,-0.03,-0.06,1.33,-2.01,-0.73,7.51,911.31,25.24,
3299689,-0.03,-0.06,1.33,-1.22,-0.43,7.08,911.3,25.24,
3299727,-0.02,-0.05,1.31,-0.98,-0.12,7.2,911.27,25.23,
3299765,-0.02,-0.05,1.3,-0.18,-0.06,7.63,911.33,25.23,
3299803,-0.02,-0.06,1.26,0.24,0.37,7.26,911.23,25.23,
3299842,-0.04,-0.06,1.23,0.73,0.79,7.39,911.26,25.23,
3299917,-0.02,-0.06,1.18,1.22,1.28,7.26,911.26,25.21,
3299956,-0.03,-0.07,1.11,1.22,1.59,7.32,911.25,25.21,
3299994,-0.02,-0.07,1.1,1.65,0.85,7.26,911.23,25.22,
3300084,-0.03,-0.06,1.01,1.65,0.18,7.26,911.2,25.18,
3300122,-0.02,-0.06,1.02,2.08,0.18,7.26,911.23,25.2,
3300160,-0.04,-0.07,1.01,1.59,0.31,7.2,911.18,25.21,
3300198,-0.03,-0.07,1.04,1.59,0.0,7.63,911.13,25.21,
3300236,-0.04,-0.08,1.02,1.59,0.0,7.57,911.18,25.22,
3300275,-0.04,-0.08,0.99,1.53,0.24,7.69,911.09,25.21,
3300313,-0.04,-0.08,0.98,1.34,-0.18,7.69,911.18,25.21,
3300363,-0.02,-0.08,0.94,1.04,-0.18,7.69,911.11,25.21,
3300401,-0.02,-0.08,0.89,0.67,-0.12,7.81,911.16,25.21,
3300439,-0.03,-0.07,0.83,0.73,-0.31,7.93,911.09,25.2,
3300478,-0.02,-0.08,0.85,0.61,-1.22,7.93,911.07,25.23,
3300516,-0.01,-0.08,0.8,0.18,-1.04,8.06,911.06,25.22,
3300554,-0.01,-0.06,0.85,-0.06,-2.69,7.93,911.1,25.23,
3300592,-0.03,-0.08,0.82,0.0,-2.62,7.87,911.07,25.23,
3300631,-0.02,-0.08,0.87,-0.24,-3.78,8.0,911.09,25.23,
3300669,-0.01,-0.08,0.9,-0.18,-3.6,7.87,911.05,25.22,
3300719,-0.03,-0.07,0.89,-0.79,-2.44,8.06,911.04,25.21,
3300757,-0.0,-0.07,0.93,-0.98,-2.32,7.87,911.03,25.23,
3300795,-0.04,-0.08,0.94,-1.59,-1.04,7.75,910.98,25.22,
3300833,-0.02,-0.08,0.96,-1.77,-0.55,7.75,911.07,25.23,
3300872,-0.02,-0.06,1.03,-1.95,0.12,7.57,911.07,25.23,
3300910,-0.03,-0.08,1.02,-2.14,0.61,7.81,911.02,25.23,
3300948,-0.03,-0.07,1.03,-1.95,0.55,7.75,911.04,25.23,
3300986,-0.02,-0.07,1.04,-2.08,1.16,7.63,911.07,25.22,
3301025,-0.01,-0.07,1.04,-2.14,0.85,7.93,911.03,25.24,
3301075,-0.02,-0.07,1.04,-2.01,0.37,8.0,911.09,25.22,
3301113,-0.02,-0.07,1.05,-2.01,0.18,8.18,911.05,25.23,
3301151,-0.01,-0.07,1.07,-1.71,-0.12,8.06,911.01,25.22,
3301189,-0.02,-0.07,1.05,-1.95,-0.24,8.12,911.07,25.22,
3301228,-0.02,-0.07,1.07,-1.77,-0.55,8.18,911.04,25.22,
3301266,-0.02,-0.07,1.04,-1.77,-0.12,8.18,911.04,25.22,
3301304,-0.01,-0.07,1.06,-1.65,-0.37,8.18,911.04,25.23,
3301342,-0.02,-0.07,1.07,-1.65,-0.12,8.36,911.05,25.22,
3301381,-0.02,-0.07,1.07,-1.89,-0.12,8.24,911.1,25.24,
3301419,-0.02,-0.07,1.09,-2.08,0.18,7.93,911.07,25.23,
3301469,-0.02,-0.06,1.1,-2.14,0.0,8.12,911.06,25.21,
3301507,-0.01,-0.07,1.1,-2.01,0.37,7.93,911.05,25.23,
3301545,-0.01,-0.06,1.1,-2.08,0.67,8.0,911.05,25.24,
3301584,-0.02,-0.07,1.11,-2.2,0.49,8.06,911.03,25.22,
3301622,-0.02,-0.07,1.1,-2.44,0.31,7.87,911.0,25.23,
3301660,-0.02,-0.07,1.1,-2.5,0.55,7.87,911.01,25.23,
3301698,-0.01,-0.07,1.11,-2.62,0.49,7.81,911.05,25.22,
3301736,-0.03,-0.07,1.09,-2.56,0.31,7.87,910.99,25.23,
3301775,-0.02,-0.06,1.1,-2.5,0.24,7.81,911.02,25.22,
3301825,-0.02,-0.06,1.08,-2.38,0.43,7.93,910.99,25.21,
3301863,-0.02,-0.07,1.09,-2.32,0.18,7.93,911.02,25.21,
3301901,-0.02,-0.06,1.07,-2.44,0.55,8.06,910.98,25.22,
3301939,-0.02,-0.07,1.11,-2.5,0.61,7.87,911.0,25.22,
3301977,-0.02,-0.07,1.1,-2.62,0.55,8.12,911.0,25.22,
3302016,-0.02,-0.07,1.14,-2.87,0.12,8.12,911.02,25.22,
3302054,-0.02,-0.06,1.14,-3.11,0.06,8.06,910.99,25.23,
3302092,-0.03,-0.07,1.17,-3.6,0.06,8.06,911.01,25.22,
3302130,-0.02,-0.06,1.19,-3.72,-0.06,8.3,910.94,25.22,
3302168,-0.02,-0.06,1.19,-3.78,-0.12,8.18,911.01,25.23,
3302218,-0.02,-0.06,1.19,-3.6,-0.18,8.3,910.98,25.21,
3302257,-0.02,-0.05,1.22,-3.42,-0.37,8.12,910.98,25.22,
3302295,-0.02,-0.06,1.21,-3.42,0.0,8.0,911.0,25.21,
3302333,-0.02,-0.05,1.23,-3.05,-0.06,8.18,911.04,25.22,
3302371,-0.02,-0.06,1.22,-2.87,0.06,8.18,910.93,25.21,
3302409,-0.02,-0.06,1.22,-2.56,-0.18,8.06,910.93,25.22,
3302448,-0.03,-0.06,1.19,-2.44,0.43,8.18,910.93,25.22,
3302486,-0.03,-0.06,1.15,-2.44,0.31,8.18,910.95,25.22,
3302524,-0.03,-0.06,1.14,-2.62,0.55,8.18,910.97,25.21,
3302574,-0.02,-0.06,1.13,-2.32,1.04,8.36,910.96,25.22,
3302612,-0.02,-0.06,1.15,-2.26,1.65,8.24,910.94,25.22,
3302651,-0.02,-0.06,1.15,-1.59,1.71,8.3,910.94,25.22,
3302689,-0.02,-0.06,1.15,-1.28,1.59,8.42,910.96,25.22,
3302727,-0.03,-0.07,1.12,-0.73,1.4,8.48,910.97,25.23,
3302765,-0.02,-0.06,1.09,-0.73,1.34,8.67,910.98,25.22,
3302803,-0.02,-0.07,1.05,-0.67,1.34,8.36,911.02,25.22,
3302842,-0.02,-0.06,1.03,-0.79,1.28,8.79,910.92,25.22,
3302880,-0.02,-0.07,1.0,-0.85,1.16,8.97,910.91,25.22,
3302918,-0.02,-0.06,1.01,-1.1,0.98,8.73,910.87,25.22,
3302994,-0.02,-0.06,1.01,-2.08,0.73,8.97,910.92,25.2,
3303032,-0.01,-0.06,1.03,-2.26,1.04,8.85,910.89,25.21,
3303070,-0.01,-0.07,1.01,-2.81,1.34,8.79,910.95,25.21,
3303160,-0.02,-0.06,1.06,-3.3,1.89,8.79,910.93,25.18,
3303198,-0.02,-0.06,1.09,-3.48,2.32,8.67,910.92,25.2,
3303237,-0.02,-0.06,1.1,-3.6,2.38,8.91,910.92,25.2,
3303275,-0.02,-0.05,1.14,-3.72,2.56,8.67,910.91,25.2,
3303313,-0.02,-0.06,1.13,-3.91,3.23,8.79,910.91,25.21,
3303351,-0.02,-0.06,1.16,-3.78,3.36,8.61,910.91,25.21,
3303401,-0.02,-0.06,1.16,-3.91,3.85,8.91,910.88,25.2,
3303439,-0.03,-0.05,1.17,-3.72,3.91,8.67,910.92,25.2,
3303478,-0.02,-0.05,1.18,-3.85,4.27,8.61,910.93,25.21,
3303516,-0.02,-0.05,1.2,-3.66,4.58,8.73,910.93,25.2,
3303554,-0.01,-0.05,1.2,-3.78,4.64,8.61,910.88,25.21,
3303592,-0.03,-0.05,1.19,-3.72,4.58,8.79,910.95,25.22,
3303631,-0.03,-0.05,1.19,-3.78,5.07,8.91,910.91,25.22,
3303669,-0.03,-0.05,1.19,-3.48,5.31,8.85,910.92,25.21,
3303707,-0.02,-0.05,1.23,-3.11,5.25,8.73,910.93,25.21,
3303745,-0.02,-0.05,1.24,-2.87,5.37,8.97,910.94,25.22,
3303795,-0.02,-0.05,1.24,-2.38,5.49,9.03,910.92,25.19,
3303834,-0.02,-0.04,1.23,-1.83,4.82,9.22,910.86,25.21,
3303872,-0.03,-0.05,1.23,-1.65,4.76,9.34,910.91,25.21,
3303910,-0.03,-0.06,1.18,-1.22,4.52,9.28,910.99,25.21,
3303948,-0.03,-0.06,1.17,-1.1,4.27,9.28,910.94,25.21,
3303987,-0.03,-0.06,1.11,-1.1,4.03,9.58,910.91,25.21,
3304025,-0.03,-0.06,1.1,-1.1,3.85,9.58,910.92,25.21,
3304063,-0.02,-0.06,1.07,-1.34,4.21,9.58,910.87,25.21,
3304101,-0.03,-0.06,1.06,-1.4,3.36,9.64,910.91,25.21,
3304151,-0.04,-0.07,1.06,-1.34,3.05,9.89,910.91,25.2,
3304189,-0.02,-0.06,1.08,-1.53,2.5,9.89,910.9,25.21,
3304228,-0.02,-0.05,1.12,-1.83,2.08,9.83,910.9,25.21,
3304266,-0.02,-0.07,1.08,-2.32,2.14,10.19,910.84,25.21,
3304304,-0.03,-0.07,1.12,-2.38,1.4,10.25,910.88,25.2,
3304342,-0.02,-0.07,1.1,-2.62,1.4,10.19,910.86,25.22,
3304380,-0.02,-0.05,1.13,-2.75,0.43,10.13,910.92,25.21,
3304419,-0.03,-0.06,1.09,-2.99,1.28,10.25,910.88,25.22,
3304457,-0.02,-0.05,1.1,-3.17,0.67,10.19,910.88,25.2,
3304507,-0.02,-0.07,1.11,-3.17,1.4,10.5,910.87,25.19,
3304545,-0.02,-0.06,1.12,-3.42,0.79,10.44,910.83,25.2,
3304583,-0.02,-0.05,1.16,-3.36,1.04,10.31,910.93,25.2,
3304622,-0.02,-0.06,1.12,-3.54,1.4,10.38,910.92,25.21,
3304660,-0.03,-0.06,1.11,-3.48,1.16,10.38,910.92,25.22,
3304698,-0.02,-0.06,1.11,-3.6,1.16,10.19,910.88,25.21,
3304736,-0.03,-0.06,1.1,-3.85,1.34,10.38,910.91,25.21,
3304775,-0.02,-0.05,1.09,-3.66,1.65,10.31,910.93,25.21,
3304813,-0.01,-0.06,1.1,-3.85,1.83,10.31,910.9,25.22,
3304851,-0.02,-0.06,1.11,-3.91,2.62,10.19,910.89,25.22,
3304901,-0.01,-0.06,1.16,-3.72,3.05,10.13,910.92,25.21,
3304939,-0.02,-0.05,1.15,-3.72,3.54,10.07,910.93,25.21,
3304978,-0.02,-0.05,1.19,-3.6,3.05,10.07,910.91,25.21,
3305016,-0.02,-0.06,1.19,-3.36,3.85,10.07,910.89,25.22,
3305054,-0.01,-0.05,1.17,-3.42,3.54,9.83,910.91,25.22,
3305092,-0.01,-0.04,1.2,-3.05,3.36,9.95,910.9,25.21,
3305131,-0.02,-0.05,1.19,-2.81,3.17,10.01,910.9,25.21,
3305169,-0.02,-0.05,1.2,-2.62,3.11,9.95,910.9,25.21,
3305207,-0.01,-0.06,1.18,-2.38,2.81,9.89,910.93,25.22,
3305257,-0.02,-0.05,1.19,-2.26,2.62,10.13,910.89,25.2,
3305295,-0.01,-0.05,1.17,-2.26,2.69,9.83,910.89,25.19,
3305334,-0.01,-0.05,1.16,-2.32,2.38,9.95,910.9,25.21,
3305372,-0.01,-0.06,1.16,-2.2,2.56,10.01,910.91,25.21,
3305410,-0.02,-0.05,1.14,-2.32,2.69,9.83,910.9,25.22,
3305448,-0.02,-0.05,1.14,-2.14,2.69,9.89,910.86,25.21,
3305487,-0.02,-0.05,1.13,-2.08,2.81,10.01,910.91,25.21,
3305525,-0.02,-0.05,1.13,-1.95,2.56,9.95,910.89,25.21,
3305563,-0.01,-0.05,1.11,-2.14,2.87,9.89,910.95,25.21,
3305613,-0.02,-0.06,1.11,-2.08,2.56,9.83,910.93,25.2,
3305651,-0.01,-0.05,1.09,-2.26,2.99,9.64,910.95,25.2,
3305690,-0.02,-0.05,1.09,-2.08,2.75,9.83,910.96,25.2,
3305728,-0.01,-0.05,1.1,-2.14,3.17,9.83,910.85,25.2,
3305766,-0.02,-0.06,1.1,-2.08,2.99,9.77,910.95,25.2,
3305804,-0.02,-0.06,1.11,-2.26,3.05,9.83,910.91,25.21,
3305843,-0.01,-0.06,1.12,-2.5,3.3,9.89,910.89,25.2,
3305881,-0.01,-0.05,1.12,-2.56,3.23,9.77,910.89,25.22,
3305919,-0.01,-0.05,1.11,-2.56,2.87,9.7,910.9,25.21,
3305957,-0.01,-0.05,1.12,-2.5,2.56,9.83,910.97,25.21,
3306035,-0.01,-0.05,1.14,-2.56,1.34,9.7,910.91,25.16,
3306073,-0.01,-0.05,1.14,-2.5,0.55,9.58,910.92,25.18,
3306111,-0.02,-0.05,1.12,-2.38,0.06,9.52,910.88,25.15,
3306201,-0.01,-0.05,1.12,-2.81,0.49,9.16,910.91,25.14,
3306239,-0.01,-0.05,1.14,-2.93,0.43,9.28,910.95,25.15,
3306277,-0.01,-0.06,1.12,-2.99,0.61,9.09,910.96,25.17,
3306316,-0.02,-0.05,1.13,-3.05,0.37,8.97,910.9,25.16,
3306354,-0.02,-0.05,1.13,-3.05,1.34,8.97,910.91,25.16,
3306392,-0.02,-0.05,1.15,-3.17,1.59,8.85,910.9,25.16,
3306442,-0.02,-0.05,1.19,-3.23,2.44,8.79,910.94,25.16,
3306480,-0.02,-0.04,1.2,-2.87,2.62,8.85,910.96,25.16,
3306519,-0.03,-0.05,1.23,-2.5,2.62,8.67,910.86,25.15,
3306557,-0.01,-0.05,1.21,-2.26,2.5,8.61,910.95,25.16,
3306595,-0.01,-0.04,1.2,-1.83,2.44,8.67,910.93,25.17,
3306633,-0.02,-0.05,1.18,-1.46,1.83,8.61,910.97,25.16,
3306672,-0.02,-0.05,1.17,-1.46,1.28,8.48,910.95,25.16,
3306710,-0.02,-0.06,1.15,-1.4,0.98,8.91,910.96,25.15,
3306748,-0.02,-0.05,1.17,-1.46,0.55,8.61,910.88,25.15,
3306786,-0.02,-0.06,1.14,-1.22,0.67,8.54,910.89,25.15,
3306836,-0.02,-0.05,1.12,-1.22,0.67,8.54,910.98,25.14,
3306875,-0.02,-0.06,1.1,-1.46,1.34,8.42,910.95,25.14,
3306913,-0.02,-0.06,1.06,-1.71,1.46,8.42,910.95,25.14,
3306951,-0.03,-0.05,1.09,-1.59,1.59,8.36,910.92,25.15,
3306989,-0.02,-0.06,1.06,-1.77,2.2,8.36,910.98,25.16,
3307028,-0.03,-0.06,1.11,-1.77,1.83,8.18,910.9,25.16,
3307066,-0.03,-0.06,1.1,-2.08,2.69,8.48,910.95,25.16,
3307104,-0.03,-0.05,1.09,-1.65,2.75,8.36,910.96,25.18,
3307142,-0.03,-0.05,1.09,-1.77,3.42,8.36,910.94,25.17,
3307192,-0.04,-0.06,1.05,-1.71,3.66,8.42,910.99,25.16,
3307231,-0.03,-0.06,1.04,-1.71,3.91,8.42,910.94,25.16,
3307269,-0.03,-0.06,1.01,-1.95,3.91,8.61,910.98,25.17,
3307307,-0.03,-0.06,1.01,-1.83,4.64,8.54,910.94,25.17,
3307345,-0.03,-0.06,1.01,-2.08,4.64,8.67,910.95,25.18,
3307384,-0.04,-0.06,1.01,-1.89,4.64,8.79,911.02,25.18,
3307422,-0.03,-0.06,1.01,-1.89,4.88,8.67,910.98,25.17,
3307460,-0.03,-0.06,1.0,-1.95,5.0,8.61,911.0,25.17,
3307498,-0.03,-0.06,1.0,-1.77,5.0,8.73,911.02,25.16,
3307537,-0.03,-0.06,0.98,-1.89,5.0,8.73,910.99,25.18,
3307587,-0.03,-0.06,0.99,-1.83,4.88,8.85,910.98,25.16,
3307625,-0.03,-0.06,0.99,-1.59,4.46,8.91,910.97,25.17,
3307663,-0.03,-0.06,0.99,-1.89,4.09,8.73,911.01,25.18,
3307701,-0.02,-0.06,1.0,-1.95,4.21,8.91,911.0,25.17,
3307740,-0.03,-0.06,1.01,-1.89,4.03,8.91,910.98,25.18,
3307778,-0.03,-0.06,1.01,-1.89,3.97,8.97,911.0,25.18,
3307816,-0.03,-0.06,1.0,-2.01,3.78,8.91,911.09,25.19,
3307854,-0.03,-0.05,1.03,-1.77,3.6,8.97,911.07,25.19,
3307892,-0.02,-0.05,1.02,-1.89,3.66,9.09,911.04,25.19,
3307942,-0.03,-0.05,1.04,-1.95,3.05,9.09,911.04,25.17,
3307981,-0.01,-0.06,1.04,-2.08,3.6,9.28,911.07,25.17,
3308019,-0.02,-0.05,1.06,-2.14,3.05,9.22,911.07,25.18,
3308057,-0.03,-0.06,1.08,-2.44,3.23,9.16,911.03,25.18,
3308095,-0.01,-0.06,1.09,-2.08,2.56,9.16,911.09,25.19,
3308134,-0.02,-0.05,1.11,-2.44,2.69,9.03,911.1,25.19,
3308172,-0.02,-0.05,1.11,-2.5,2.56,9.09,911.11,25.18,
3308210,-0.03,-0.05,1.13,-2.32,2.44,8.97,911.12,25.18,
3308248,-0.03,-0.05,1.13,-2.44,2.38,8.97,911.11,25.19,
3308287,-0.03,-0.05,1.13,-2.5,2.5,9.16,911.11,25.19,
3308337,-0.03,-0.05,1.12,-2.32,3.05,9.16,911.07,25.18,
3308375,-0.02,-0.05,1.14,-2.38,3.23,9.16,911.12,25.18,
3308413,-0.02,-0.05,1.12,-2.26,3.17,9.09,911.14,25.18,
3308451,-0.02,-0.05,1.14,-2.08,3.11,9.16,911.16,25.19,
3308490,-0.02,-0.05,1.1,-2.32,3.78,9.16,911.19,25.19,
3308528,-0.02,-0.05,1.13,-2.2,3.42,9.16,911.15,25.21,
3308566,-0.01,-0.05,1.13,-2.26,3.48,9.09,911.17,25.19,
3308604,-0.02,-0.05,1.17,-2.01,2.38,9.03,911.17,25.19,
3308642,-0.01,-0.05,1.18,-2.38,2.62,9.28,911.17,25.19,
3308692,-0.01,-0.04,1.27,-2.2,0.79,9.28,911.17,25.19,
3308731,-0.02,-0.04,1.25,-2.87,0.98,9.46,911.14,25.19,
3308769,-0.03,-0.04,1.31,-2.75,-0.18,9.28,911.21,25.21,
3308807,-0.03,-0.05,1.32,-3.23,0.18,9.52,911.22,25.18,
3308845,-0.01,-0.04,1.33,-3.54,-0.37,9.4,911.18,25.2,
3308884,-0.03,-0.03,1.33,-3.3,0.06,9.52,911.18,25.19,
3308922,-0.03,-0.04,1.29,-3.3,0.79,9.4,911.26,25.2,
3308960,-0.01,-0.05,1.31,-2.81,1.1,9.16,911.21,25.21,
3308998,-0.02,-0.05,1.24,-2.75,1.83,9.09,911.22,25.19,
3309037,-0.04,-0.05,1.23,-2.5,2.5,9.16,911.3,25.2,
3309113,-0.02,-0.05,1.21,-2.01,3.42,8.85,911.27,25.17,
3309151,-0.01,-0.06,1.17,-1.89,3.78,8.97,911.22,25.18,
3309189,-0.02,-0.06,1.18,-2.01,2.93,8.97,911.25,25.19,
3309279,-0.01,-0.05,1.18,-2.14,2.69,8.91,911.26,25.16,
3309317,-0.03,-0.06,1.2,-1.89,2.44,8.97,911.24,25.18,
3309355,-0.03,-0.07,1.17,-2.2,2.93,9.22,911.25,25.18,
3309393,-0.02,-0.06,1.17,-2.44,2.44,9.22,911.27,25.18,
3309432,-0.02,-0.05,1.12,-2.56,2.93,9.4,911.28,25.18,
3309470,-0.02,-0.07,1.07,-2.56,3.05,9.16,911.26,25.18,
3309520,-0.03,-0.07,1.0,-3.17,2.93,9.46,911.21,25.16,
3309558,-0.01,-0.07,1.05,-2.56,1.65,9.46,911.26,25.18,
3309596,-0.03,-0.07,0.98,-3.3,1.71,9.28,911.25,25.19,
3309634,-0.04,-0.07,1.01,-3.05,1.1,9.46,911.29,25.19,
3309672,0.0,-0.07,1.03,-3.36,0.61,9.52,911.27,25.19,
3309711,-0.02,-0.06,1.03,-3.54,-0.67,9.7,911.32,25.19,
3309749,-0.02,-0.06,1.07,-3.66,-0.79,9.7,911.37,25.21,
3309787,-0.03,-0.06,1.1,-3.78,-0.98,9.58,911.32,25.19,
3309825,-0.02,-0.06,1.11,-3.54,-1.22,9.77,911.24,25.19,
3309863,-0.03,-0.06,1.11,-3.6,-1.71,9.83,911.27,25.19,
3309913,-0.04,-0.06,1.13,-3.48,-0.92,9.83,911.29,25.16,
3309952,-0.03,-0.05,1.17,-3.11,-1.1,9.83,911.37,25.19,
3309990,-0.03,-0.06,1.15,-2.69,-1.22,10.19,911.34,25.18,
3310028,-0.02,-0.05,1.18,-2.56,-1.83,10.13,911.33,25.18,
3310066,-0.03,-0.05,1.24,-2.01,-1.53,10.31,911.37,25.18,
3310104,-0.04,-0.06,1.17,-2.01,-0.79,10.44,911.32,25.18,
3310143,-0.03,-0.05,1.18,-1.83,-0.79,10.44,911.37,25.18,
3310181,-0.01,-0.05,1.18,-1.77,-0.18,10.5,911.31,25.17,
3310219,-0.04,-0.06,1.1,-1.83,0.18,10.68,911.37,25.18,
3310269,-0.04,-0.04,1.21,-1.46,0.12,10.99,911.4,25.15,
3310307,-0.02,-0.06,1.19,-1.4,0.31,10.86,911.37,25.15,
3310345,-0.03,-0.06,1.27,-1.1,0.12,11.05,911.42,25.17,
3310384,-0.03,-0.06,1.22,-1.71,1.89,11.23,911.41,25.18,
3310422,-0.03,-0.05,1.23,-1.22,1.04,11.35,911.38,25.16,
3310460,-0.03,-0.05,1.16,-1.83,1.83,11.47,911.4,25.17,
3310498,-0.02,-0.05,1.23,-1.65,0.67,11.54,911.37,25.17,
3310537,-0.03,-0.07,1.2,-2.2,2.14,11.66,911.37,25.18,
3310575,-0.01,-0.05,1.19,-2.44,1.59,11.72,911.37,25.18,
3310625,-0.04,-0.06,1.18,-2.56,3.23,12.02,911.4,25.17,
3310663,-0.0,-0.05,1.21,-2.44,2.14,11.96,911.42,25.16,
3310701,-0.02,-0.06,1.2,-2.2,2.99,12.08,911.42,25.17,
3310739,-0.04,-0.06,1.17,-2.26,2.32,12.15,911.48,25.18,
3310778,-0.01,-0.07,1.18,-1.95,3.85,12.15,911.39,25.17,
3310816,-0.0,-0.05,1.14,-3.05,3.6,11.96,911.44,25.18,
3310854,-0.02,-0.05,1.19,-2.99,2.99,12.21,911.43,25.18,
3310892,-0.01,-0.06,1.12,-4.03,3.36,12.08,911.48,25.18,
3310931,-0.02,-0.05,1.22,-4.21,2.32,11.96,911.45,25.18,
3310969,0.0,-0.05,1.21,-5.13,3.23,12.08,911.47,25.17,
3311019,-0.01,-0.04,1.33,-4.88,1.77,11.9,911.49,25.17,
3311057,0.0,-0.05,1.35,-5.68,2.81,11.9,911.52,25.18,
3311095,-0.01,-0.04,1.4,-5.62,1.34,11.9,911.57,25.18,
3311134,-0.02,-0.04,1.39,-5.92,2.38,11.96,911.54,25.17,
3311172,-0.01,-0.04,1.37,-5.98,2.38,12.02,911.55,25.16,
3311210,0.01,-0.06,1.36,-5.92,2.81,11.6,911.6,25.18,
3311248,-0.01,-0.04,1.31,-5.98,2.26,11.6,911.56,25.18,
3311287,-0.03,-0.03,1.4,-5.62,2.2,11.78,911.6,25.18,
3311325,0.0,-0.05,1.36,-5.86,4.09,11.6,911.56,25.19,
3311375,0.0,-0.01,1.45,-5.55,2.69,11.41,911.59,25.17,
3311413,-0.03,-0.04,1.41,-6.1,4.46,11.47,911.58,25.18,
3311451,-0.02,-0.04,1.42,-5.62,4.39,11.23,911.6,25.18,
3311490,0.0,-0.04,1.42,-5.68,4.76,11.05,911.58,25.17,
3311528,-0.02,-0.05,1.34,-5.19,4.27,11.17,911.6,25.17,
3311566,-0.02,-0.05,1.28,-5.07,4.09,11.29,911.62,25.17,
3311604,-0.0,-0.04,1.27,-4.58,3.72,11.23,911.62,25.17,
3311643,0.01,-0.04,1.25,-4.52,3.6,11.29,911.66,25.17,
3311681,-0.01,-0.06,1.19,-4.15,2.56,11.35,911.64,25.17,
3311731,-0.0,-0.06,1.21,-4.27,3.11,11.54,911.63,25.16,
3311769,0.01,-0.06,1.21,-3.66,2.08,11.17,911.65,25.16,
3311807,0.0,-0.06,1.16,-3.85,2.26,11.23,911.68,25.16,
3311846,0.01,-0.06,1.16,-3.6,1.71,10.86,911.57,25.15,
3311884,-0.01,-0.06,1.1,-3.85,2.38,10.86,911.66,25.16,
3311922,0.01,-0.06,1.1,-3.78,2.08,10.74,911.63,25.16,
3311960,0.02,-0.05,1.14,-3.78,2.2,10.56,911.65,25.16,
3311999,0.01,-0.07,1.12,-4.09,2.01,10.62,911.66,25.16,
3312037,0.0,-0.07,1.15,-3.78,1.89,10.5,911.63,25.16,
3312075,0.01,-0.07,1.16,-4.03,2.01,10.25,911.63,25.16,
3312151,0.02,-0.06,1.2,-4.21,1.28,10.07,911.7,25.14,
3312189,0.01,-0.06,1.23,-4.27,0.55,9.95,911.63,25.14,
3312228,0.01,-0.07,1.22,-4.64,0.98,9.64,911.65,25.15,
3312317,0.01,-0.06,1.22,-4.46,0.43,9.22,911.73,25.13,
3312356,0.01,-0.05,1.26,-4.46,0.0,8.97,911.75,25.12,
3312394,0.01,-0.06,1.22,-4.82,0.85,8.97,911.7,25.14,
3312432,0.01,-0.05,1.24,-4.46,-0.06,8.67,911.74,25.14,
3312470,0.01,-0.06,1.28,-4.88,1.22,8.61,911.69,25.14,
3312508,0.0,-0.05,1.22,-5.19,1.65,8.3,911.76,25.14,
3312558,0.01,-0.05,1.3,-4.94,1.59,8.06,911.74,25.13,
3312597,-0.01,-0.06,1.25,-5.43,1.34,8.12,911.75,25.15,
3312635,0.0,-0.04,1.33,-5.86,1.04,8.0,911.69,25.13,
3312673,0.01,-0.05,1.31,-6.23,1.77,7.93,911.76,25.15,
3312711,-0.01,-0.04,1.41,-6.29,0.37,7.93,911.72,25.14,
3312750,-0.0,-0.05,1.43,-6.16,1.16,7.81,911.74,25.15,
3312788,-0.01,-0.03,1.5,-6.23,0.85,7.63,911.75,25.15,
3312826,0.0,-0.03,1.51,-5.98,1.22,7.57,911.81,25.15,
3312864,-0.01,-0.04,1.52,-5.74,0.18,7.57,911.82,25.15,
3312903,0.0,-0.05,1.49,-5.62,0.92,7.57,911.82,25.14,
3312952,-0.01,-0.05,1.42,-5.07,0.79,7.63,911.8,25.13,
3312991,0.0,-0.07,1.34,-4.64,1.71,7.69,911.83,25.14,
3313029,-0.01,-0.06,1.28,-4.7,1.1,7.45,911.79,25.15,
3313067,-0.02,-0.05,1.25,-4.46,1.53,7.57,911.83,25.14,
3313105,0.0,-0.08,1.14,-5.19,2.32,7.39,911.84,25.15,
3313144,-0.02,-0.06,1.18,-5.19,1.89,7.26,911.8,25.15,
3313182,-0.02,-0.07,1.12,-6.16,3.42,7.45,911.82,25.15,
3313220,-0.0,-0.05,1.23,-6.41,2.93,7.2,911.77,25.14,
3313258,-0.0,-0.06,1.22,-7.14,4.03,7.32,911.8,25.14,
3313308,-0.02,-0.05,1.31,-7.02,3.42,6.96,911.78,25.14,
3313346,-0.02,-0.04,1.32,-7.45,4.33,7.26,911.85,25.15,
3313385,-0.01,-0.04,1.37,-6.71,3.78,7.2,911.82,25.16,
3313423,-0.02,-0.03,1.4,-6.53,4.64,7.32,911.84,25.16,
3313461,-0.02,-0.04,1.41,-5.74,3.66,7.26,911.84,25.15,
3313499,-0.03,-0.06,1.35,-5.55,4.15,7.39,911.85,25.15,
3313538,-0.03,-0.05,1.31,-4.76,2.75,7.75,911.85,25.14,
3313576,-0.02,-0.05,1.32,-4.03,2.69,7.63,911.83,25.15,
3313614,-0.03,-0.05,1.22,-3.72,2.62,7.81,911.84,25.14,
3313652,-0.02,-0.04,1.28,-2.99,1.83,7.81,911.89,25.15,
3313702,-0.03,-0.05,1.17,-3.05,2.56,7.81,911.81,25.13,
3313741,-0.03,-0.04,1.26,-2.5,1.77,8.0,911.83,25.15,
3313779,-0.03,-0.06,1.18,-2.81,2.81,7.93,911.89,25.14,
3313817,-0.02,-0.06,1.22,-2.14,1.53,8.06,911.89,25.14,
3313855,-0.03,-0.06,1.13,-2.44,2.32,7.93,911.9,25.14,
3313893,-0.03,-0.06,1.1,-1.95,1.65,8.06,911.87,25.13,
3313932,-0.03,-0.06,1.08,-1.95,2.38,8.24,911.88,25.15,
3313970,-0.02,-0.06,1.08,-1.89,1.59,8.3,911.88,25.14,
3314008,-0.04,-0.06,1.07,-1.89,2.5,8.3,911.89,25.15,
3314058,-0.04,-0.07,1.02,-2.2,4.76,8.24,911.89,25.13,
3314096,-0.03,-0.07,1.06,-1.4,5.37,8.18,911.86,25.14,
3314135,-0.05,-0.08,1.03,-1.28,5.8,8.24,911.85,25.14,
3314173,-0.05,-0.08,0.92,-1.65,7.63,8.24,911.88,25.15,
3314211,-0.03,-0.05,0.97,-1.22,7.14,8.3,911.86,25.14,
3314249,-0.03,-0.07,0.96,-1.65,6.77,8.42,911.81,25.15,
3314288,-0.06,-0.08,0.91,-2.01,6.16,8.54,911.8,25.15,
3314326,-0.03,-0.06,1.02,-2.08,5.43,8.79,911.81,25.15,
3314364,-0.06,-0.07,1.01,-3.05,4.46,9.03,911.82,25.15,
3314402,-0.07,-0.07,1.05,-3.17,4.03,9.09,911.82,25.15,
3314452,-0.04,-0.06,1.12,-3.23,4.7,9.22,911.83,25.14,
3314491,-0.06,-0.07,1.06,-3.72,4.46,9.4,911.82,25.15,
3314529,-0.05,-0.06,1.12,-3.85,3.72,9.77,911.77,25.14,
3314567,-0.06,-0.06,1.14,-4.03,4.33,9.77,911.82,25.15,
3314605,-0.05,-0.06,1.16,-4.15,3.54,10.07,911.78,25.15,
3314644,-0.05,-0.07,1.19,-3.78,2.5,10.19,911.83,25.15,
3314682,-0.06,-0.07,1.15,-4.09,3.05,10.44,911.79,25.16,
3314720,-0.05,-0.05,1.19,-3.85,2.87,10.38,911.85,25.16,
3314758,-0.06,-0.06,1.17,-4.27,2.62,10.5,911.79,25.15,
3314808,-0.05,-0.05,1.23,-3.97,1.89,10.86,911.77,25.14,
3314847,-0.05,-0.07,1.22,-4.58,2.14,10.86,911.82,25.15,
3314885,-0.06,-0.06,1.25,-4.52,2.08,11.05,911.85,25.16,
3314923,-0.05,-0.04,1.28,-4.64,2.26,11.23,911.82,25.14,
3314961,-0.05,-0.05,1.3,-4.21,2.38,11.23,911.82,25.14,
3314999,-0.04,-0.05,1.29,-4.33,2.81,11.35,911.81,25.14,
3315038,-0.05,-0.05,1.35,-3.6,1.71,11.6,911.85,25.15,
3315076,-0.06,-0.06,1.25,-3.78,2.93,11.6,911.84,25.16,
3315114,-0.05,-0.05,1.28,-3.6,2.38,11.6,911.79,25.15,
3315152,-0.02,-0.06,1.28,-4.21,2.81,11.66,911.8,25.15,
3315228,-0.05,-0.06,1.28,-5.37,2.2,12.02,911.81,25.11,
3315267,-0.04,-0.06,1.27,-5.49,2.62,12.08,911.89,25.13,
3315305,-0.03,-0.05,1.32,-5.68,2.08,11.96,911.9,25.14,
3315395,-0.03,-0.04,1.37,-6.1,2.26,12.15,911.89,25.11,
3315433,-0.03,-0.04,1.41,-6.29,2.5,12.02,911.88,25.12,
3315471,-0.03,-0.04,1.42,-6.41,2.38,12.21,911.9,25.13,
3315509,-0.02,-0.04,1.49,-6.16,1.83,12.08,911.89,25.12,
3315548,-0.04,-0.04,1.44,-6.16,2.38,12.08,911.96,25.13,
3315586,-0.01,-0.04,1.48,-5.8,1.65,11.96,911.87,25.13,
3315636,-0.01,-0.04,1.42,-5.43,2.38,11.66,911.94,25.13,
3315674,-0.03,-0.04,1.43,-5.0,2.14,11.9,911.9,25.13,
3315712,-0.02,-0.04,1.41,-5.0,2.69,11.78,911.91,25.14,
3315751,-0.03,-0.05,1.38,-4.64,2.99,11.72,911.89,25.13,
3315789,-0.02,-0.05,1.37,-4.58,2.87,11.6,911.91,25.14,
3315827,-0.01,-0.05,1.35,-4.64,3.05,11.6,911.94,25.15,
3315865,-0.01,-0.05,1.34,-4.7,2.5,11.47,911.84,25.14,
3315904,-0.03,-0.06,1.32,-5.19,1.89,11.66,911.86,25.15,
3315942,-0.02,-0.05,1.31,-5.37,1.89,11.6,911.91,25.15,
3315992,-0.01,-0.05,1.32,-5.8,2.44,11.35,911.91,25.14,
3316030,-0.02,-0.05,1.33,-6.04,1.77,11.47,911.9,25.14,
3316068,-0.02,-0.05,1.31,-6.29,2.01,11.29,911.91,25.15,
3316106,-0.01,-0.05,1.33,-6.16,1.83,11.17,911.83,25.15,
3316145,-0.01,-0.06,1.29,-6.65,2.44,11.05,911.89,25.15,
3316183,-0.02,-0.05,1.3,-6.65,2.62,10.93,911.91,25.15,
3316221,-0.02,-0.06,1.31,-6.71,2.93,10.99,911.86,25.16,
3316259,-0.03,-0.06,1.3,-6.77,2.2,10.86,911.9,25.17,
3316298,-0.01,-0.05,1.34,-6.71,1.71,10.93,911.9,25.16,
3316348,-0.02,-0.06,1.33,-6.47,2.44,10.62,911.89,25.14,
3316386,-0.02,-0.05,1.34,-6.23,1.65,10.8,911.89,25.15,
3316424,-0.02,-0.05,1.34,-5.37,2.69,10.74,911.88,25.15,
3316462,-0.02,-0.05,1.33,-5.13,2.5,10.62,911.88,25.16,
3316500,-0.03,-0.05,1.29,-4.76,2.75,10.68,911.9,25.16,
3316539,-0.03,-0.04,1.29,-3.85,2.38,10.68,911.82,25.14,
3316577,-0.04,-0.06,1.24,-3.78,3.3,10.74,911.87,25.15,
3316615,-0.06,-0.05,1.21,-3.54,3.54,10.56,911.87,25.14,
3316653,-0.04,-0.05,1.24,-2.99,3.3,10.68,911.87,25.14,
3316692,-0.05,-0.06,1.15,-3.3,3.78,10.56,911.85,25.15,
3316741,-0.04,-0.05,1.19,-2.81,3.72,10.86,911.9,25.14,
3316780,-0.04,-0.06,1.15,-2.87,4.21,10.86,911.85,25.14,
3316818,-0.04,-0.05,1.16,-2.87,3.48,10.86,911.86,25.15,
3316856,-0.05,-0.06,1.13,-2.99,4.09,11.17,911.87,25.16,
3316894,-0.05,-0.06,1.14,-2.81,3.97,11.11,911.8,25.14,
3316933,-0.04,-0.06,1.14,-2.62,4.21,11.35,911.82,25.14,
3316971,-0.05,-0.06,1.12,-2.62,3.72,11.35,911.79,25.15,
3317009,-0.05,-0.05,1.14,-2.5,3.91,11.6,911.75,25.15,
3317047,-0.05,-0.07,1.08,-2.26,4.21,11.47,911.85,25.15,
3317097,-0.06,-0.06,1.1,-1.89,3.48,11.6,911.87,25.14,
3317135,-0.04,-0.07,1.0,-2.26,4.64,11.84,911.77,25.15,
3317174,-0.04,-0.05,1.02,-2.26,3.97,11.66,911.79,25.14,
3317212,-0.04,-0.07,0.97,-1.95,4.64,12.15,911.84,25.15,
3317250,-0.05,-0.06,0.93,-2.56,4.03,12.27,911.81,25.14,
3317288,-0.03,-0.06,1.03,-1.83,3.36,12.33,911.76,25.14,
3317327,-0.02,-0.07,0.99,-2.69,3.66,12.33,911.79,25.16,
3317365,-0.03,-0.06,1.08,-2.32,2.26,12.76,911.83,25.15,
3317403,-0.01,-0.08,1.05,-3.17,2.5,12.7,911.81,25.15,
3317453,-0.04,-0.06,1.09,-2.87,1.89,13.0,911.83,25.14,
3317491,-0.03,-0.06,1.1,-3.36,2.26,12.88,911.78,25.15,
3317530,-0.03,-0.06,1.11,-2.75,1.16,12.94,911.83,25.14,
3317568,-0.04,-0.06,1.09,-3.17,1.95,13.24,911.84,25.14,
3317606,-0.01,-0.06,1.13,-3.23,1.22,13.0,911.75,25.13,
3317644,-0.02,-0.06,1.16,-2.99,1.34,13.24,911.81,25.15,
3317683,-0.01,-0.06,1.16,-3.23,0.85,13.31,911.79,25.14,
3317721,-0.04,-0.06,1.17,-3.3,0.24,13.31,911.79,25.15,
3317759,-0.02,-0.05,1.16,-3.36,0.55,13.18,911.8,25.14,
3317797,-0.01,-0.06,1.12,-3.85,0.79,13.06,911.82,25.15,
3317847,-0.01,-0.05,1.14,-3.42,0.49,12.88,911.78,25.14,
3317886,-0.02,-0.06,1.16,-3.23,0.79,13.06,911.84,25.14,
3317924,-0.02,-0.06,1.14,-3.36,0.67,13.0,911.77,25.14,
3317962,-0.02,-0.05,1.17,-3.42,1.04,12.82,911.8,25.15,
3318000,-0.03,-0.04,1.23,-3.17,1.53,12.82,911.86,25.16,
3318038,-0.02,-0.06,1.22,-3.42,2.01,12.82,911.75,25.14,
3318077,-0.02,-0.06,1.26,-3.05,2.38,12.45,911.83,25.14,
3318115,-0.03,-0.05,1.2,-3.42,3.05,12.7,911.78,25.14,
3318153,-0.03,-0.04,1.25,-2.87,2.08,13.0,911.83,25.13,
3318229,-0.02,-0.05,1.21,-3.17,2.62,13.06,911.76,25.09,
3318267,-0.01,-0.06,1.19,-3.17,3.17,12.94,911.77,25.1,
3318306,-0.0,-0.05,1.18,-2.81,3.05,13.0,911.79,25.1,
3318395,0.0,-0.06,1.14,-1.89,3.17,12.63,911.8,25.06,
3318434,-0.01,-0.07,1.1,-1.53,3.48,12.63,911.82,25.08,
3318472,-0.0,-0.07,1.07,-1.59,2.69,12.76,911.78,25.11,
3318510,0.01,-0.06,1.09,-1.46,2.14,12.39,911.82,25.1,
3318548,0.02,-0.06,1.07,-1.71,2.2,12.27,911.79,25.08,
3318587,0.0,-0.07,1.08,-2.14,1.28,12.39,911.82,25.1,
3318637,-0.01,-0.07,1.11,-2.56,1.1,12.27,911.81,25.1,
3318675,-0.01,-0.05,1.13,-2.56,0.73,12.27,911.87,25.1,
3318713,-0.0,-0.06,1.16,-2.99,0.61,12.27,911.8,25.1,
3318751,-0.01,-0.06,1.13,-3.05,0.49,12.15,911.82,25.1,
3318789,-0.0,-0.06,1.17,-3.17,0.61,12.02,911.82,25.1,
3318828,0.0,-0.05,1.14,-3.23,0.61,12.02,911.78,25.1,
3318866,-0.0,-0.06,1.17,-3.48,0.43,12.08,911.84,25.11,
3318904,-0.01,-0.06,1.21,-3.78,0.37,11.9,911.8,25.11,
3318942,-0.01,-0.06,1.23,-3.85,0.43,11.96,911.76,25.11,
3318981,-0.01,-0.05,1.23,-4.15,0.55,11.96,911.74,25.12,
3319031,-0.0,-0.05,1.26,-4.15,0.06,11.84,911.75,25.1,
3319069,-0.0,-0.04,1.28,-4.52,-0.49,11.84,911.79,25.12,
3319107,-0.0,-0.04,1.33,-4.7,-0.61,11.78,911.85,25.12,
3319145,0.0,-0.04,1.31,-5.13,0.0,11.66,911.8,25.12,
3319184,-0.01,-0.03,1.36,-5.0,-0.24,11.72,911.82,25.12,
3319222,0.0,-0.04,1.4,-5.19,-0.31,11.72,911.83,25.12,
3319260,-0.02,-0.05,1.37,-5.25,-0.06,11.6,911.89,25.13,
3319298,-0.0,-0.04,1.36,-5.25,0.18,11.35,911.85,25.11,
3319337,0.01,-0.04,1.38,-4.76,-0.43,11.54,911.81,25.11,
3319387,-0.01,-0.04,1.36,-4.88,-0.55,11.47,911.79,25.1,
3319425,-0.01,-0.04,1.37,-4.76,0.37,11.17,911.82,25.1,
3319463,0.0,-0.05,1.36,-4.39,-0.06,11.29,911.82,25.11,
3319501,-0.02,-0.05,1.36,-4.21,-0.92,10.99,911.8,25.11,
3319540,-0.04,-0.06,1.32,-4.09,0.31,10.86,911.86,25.13,
3319578,-0.02,-0.06,1.3,-3.97,1.1,10.8,911.86,25.12,
3319616,-0.01,-0.05,1.26,-4.03,1.59,10.86,911.8,25.12,
3319654,-0.02,-0.07,1.2,-3.66,2.14,10.68,911.84,25.12,
3319693,-0.02,-0.06,1.17,-3.72,3.11,10.62,911.83,25.13,
3319743,-0.02,-0.07,1.14,-3.97,4.82,10.62,911.83,25.11,
3319781,-0.01,-0.07,1.13,-4.15,4.94,10.38,911.82,25.12,
3319819,-0.02,-0.07,1.11,-4.15,5.86,10.56,911.83,25.13,
3319857,-0.01,-0.06,1.15,-3.85,6.16,10.44,911.84,25.13,
3319895,-0.01,-0.07,1.16,-3.91,6.47,10.62,911.88,25.14,
3319934,-0.01,-0.08,1.16,-4.15,4.82,10.62,911.83,25.14,
3319972,-0.01,-0.06,1.25,-4.33,3.72,10.74,911.77,25.12,
3320010,-0.02,-0.07,1.23,-5.25,3.78,10.8,911.81,25.12,
3320048,-0.01,-0.07,1.3,-5.19,2.56,10.99,911.79,25.15,
3320087,-0.02,-0.07,1.3,-5.74,3.11,10.99,911.79,25.13,
3320137,-0.01,-0.07,1.31,-5.98,2.81,11.05,911.84,25.12,
3320175,-0.01,-0.06,1.33,-5.98,2.93,10.86,911.82,25.13,
3320213,-0.01,-0.07,1.32,-5.74,2.93,10.86,911.83,25.12,
3320251,-0.02,-0.06,1.36,-5.49,2.99,10.86,911.82,25.12,
3320290,-0.01,-0.07,1.35,-5.62,3.42,10.86,911.79,25.12,
3320328,-0.0,-0.06,1.35,-5.43,2.87,10.68,911.83,25.12,
3320366,-0.01,-0.06,1.35,-5.68,2.81,10.68,911.85,25.12,
3320404,-0.01,-0.06,1.36,-5.55,2.69,10.8,911.86,25.12,
3320443,-0.01,-0.07,1.36,-5.62,2.81,10.93,911.86,25.12,
3320493,-0.03,-0.07,1.33,-5.37,3.11,10.93,911.86,25.11,
3320531,-0.01,-0.08,1.33,-5.07,2.99,10.86,911.84,25.11,
3320569,-0.02,-0.07,1.34,-5.0,2.56,10.93,911.89,25.12,
3320607,-0.01,-0.06,1.37,-4.76,2.01,10.74,911.87,25.11,
3320646,-0.01,-0.07,1.33,-5.13,2.38,10.86,911.87,25.12,
3320684,-0.01,-0.06,1.38,-4.88,1.53,10.99,911.82,25.12,
3320722,-0.01,-0.07,1.34,-5.43,2.2,11.17,911.81,25.11,
3320760,-0.02,-0.06,1.35,-5.68,1.65,11.11,911.85,25.12,
3320799,-0.03,-0.06,1.38,-5.92,2.75,11.11,911.82,25.13,
3320849,-0.02,-0.05,1.47,-5.74,1.95,11.11,911.85,25.11,
3320887,0.0,-0.06,1.5,-5.98,3.05,10.99,911.85,25.11,
3320925,-0.02,-0.05,1.51,-5.98,3.42,10.99,911.81,25.11,
3320963,-0.02,-0.05,1.54,-5.74,4.27,11.05,911.79,25.11,
3321002,-0.0,-0.04,1.6,-5.49,5.13,10.86,911.78,25.11,
3321040,-0.01,-0.04,1.59,-5.62,5.55,10.62,911.8,25.12,
3321078,-0.01,-0.05,1.54,-5.68,5.74,10.68,911.83,25.11,
3321116,-0.02,-0.06,1.5,-5.07,6.9,10.74,911.83,25.12,
3321154,-0.01,-0.06,1.47,-4.39,5.86,10.62,911.85,25.11,
3321193,-0.02,-0.07,1.37,-4.03,5.25,10.86,911.83,25.12,
3321269,0.02,-0.06,1.29,-3.6,4.88,10.93,911.84,25.08,
3321307,-0.01,-0.09,1.22,-3.72,3.85,11.11,911.89,25.1,
3321345,-0.02,-0.08,1.19,-3.6,1.95,11.17,911.84,25.1,
3321435,-0.0,-0.07,1.13,-3.11,1.53,10.93,911.81,25.07,
3321473,0.01,-0.09,1.09,-3.05,1.04,10.99,911.78,25.09,
3321511,-0.0,-0.08,1.04,-3.42,2.26,10.93,911.81,25.1,
3321549,-0.01,-0.08,1.07,-3.11,2.32,10.8,911.83,25.1,
3321588,-0.01,-0.08,1.05,-3.17,2.5,10.74,911.74,25.11,
3321626,-0.0,-0.08,1.08,-3.05,2.44,10.62,911.73,25.1,
3321676,-0.0,-0.08,1.12,-3.6,3.36,10.56,911.73,25.09,
3321714,-0.0,-0.07,1.15,-3.72,4.03,10.62,911.78,25.11,
3321752,-0.01,-0.07,1.16,-4.03,5.0,10.44,911.72,25.1,
3321791,-0.01,-0.08,1.1,-4.21,5.55,10.31,911.72,25.1,
3321829,-0.0,-0.07,1.2,-3.97,4.94,10.19,911.78,25.11,
3321867,0.0,-0.09,1.14,-4.58,5.68,10.25,911.75,25.11,
3321905,-0.0,-0.05,1.2,-4.33,3.91,10.25,911.78,25.12,
3321943,-0.02,-0.07,1.23,-4.58,4.15,10.56,911.73,25.12,
3321982,0.01,-0.07,1.29,-5.25,4.88,10.31,911.74,25.12,
3322032,-0.01,-0.05,1.43,-5.49,4.94,10.19,911.73,25.11,
3322070,-0.01,-0.04,1.49,-5.74,4.58,10.13,911.67,25.11,
3322108,-0.03,-0.04,1.54,-5.55,4.33,10.5,911.73,25.13,
3322146,-0.0,-0.05,1.55,-5.68,4.46,10.25,911.74,25.11,
3322185,-0.01,-0.04,1.59,-5.37,3.72,10.31,911.69,25.12,
3322223,0.02,-0.05,1.51,-5.37,3.54,10.44,911.71,25.12,
3322261,0.01,-0.04,1.52,-5.0,3.6,10.25,911.72,25.14,
3322299,-0.0,-0.05,1.52,-5.0,3.48,10.19,911.72,25.13,
3322338,0.01,-0.06,1.51,-4.76,2.56,10.19,911.74,25.12,
3322376,-0.02,-0.06,1.46,-4.33,1.71,10.07,911.67,25.12,
3322426,-0.02,-0.05,1.35,-3.85,0.79,10.19,911.71,25.11,
3322464,-0.02,-0.05,1.35,-3.48,0.49,10.01,911.71,25.12,
3322502,0.0,-0.06,1.3,-3.54,0.43,9.89,911.7,25.12,
3322540,-0.03,-0.06,1.27,-3.54,1.28,10.01,911.68,25.11,
3322579,-0.03,-0.07,1.25,-3.11,2.56,10.13,911.65,25.12,
3322617,-0.01,-0.06,1.28,-3.05,2.08,10.13,911.72,25.12,
3322655,-0.0,-0.05,1.31,-2.99,1.89,10.13,911.69,25.12,
3322693,-0.0,-0.06,1.28,-3.05,2.2,10.19,911.68,25.12,
3322732,0.0,-0.07,1.33,-2.81,2.44,10.07,911.59,25.12,
3322782,-0.01,-0.07,1.19,-3.11,2.87,10.19,911.63,25.11,
3322820,-0.02,-0.06,1.27,-2.32,3.72,10.19,911.68,25.12,
3322858,0.0,-0.07,1.15,-2.93,4.58,10.01,911.62,25.13,
3322896,-0.01,-0.05,1.23,-2.2,3.85,9.89,911.57,25.11,
3322935,0.01,-0.07,1.19,-2.81,5.43,9.89,911.62,25.12,
3322973,0.01,-0.06,1.26,-2.2,5.37,9.46,911.63,25.12,
3323011,0.01,-0.06,1.28,-2.44,6.96,9.58,911.54,25.1,
3323049,0.01,-0.06,1.3,-2.08,6.35,9.52,911.6,25.12,
3323087,-0.01,-0.06,1.3,-2.2,6.16,9.52,911.52,25.1,
3323137,0.02,-0.06,1.31,-1.95,5.31,9.34,911.55,25.11,
3323176,0.01,-0.06,1.27,-2.44,5.68,9.28,911.53,25.11,
3323214,0.01,-0.07,1.24,-2.26,5.0,9.22,911.55,25.12,
3323252,0.0,-0.07,1.22,-2.01,5.49,9.09,911.46,25.1,
3323290,0.0,-0.08,1.18,-1.77,5.37,9.09,911.5,25.11,
3323329,0.0,-0.07,1.17,-1.83,4.76,8.97,911.49,25.12,
3323367,-0.01,-0.06,1.14,-1.89,4.27,8.91,911.44,25.12,
3323405,-0.01,-0.07,1.14,-2.08,3.91,8.97,911.49,25.12,
3323443,0.03,-0.08,1.1,-2.14,4.15,8.73,911.5,25.11,
3323482,0.01,-0.07,1.12,-2.14,3.78,8.67,911.42,25.1,
3323532,-0.0,-0.07,1.09,-2.38,4.21,8.97,911.49,25.11,
3323570,0.01,-0.06,1.12,-2.32,4.27,8.73,911.41,25.11,
3323608,-0.0,-0.07,1.11,-2.44,4.15,8.54,911.47,25.12,
3323646,0.0,-0.07,1.1,-2.99,3.85,8.67,911.45,25.11,
3323685,0.0,-0.07,1.13,-2.62,4.88,8.36,911.41,25.12,
3323723,0.01,-0.08,1.07,-2.81,4.94,8.24,911.42,25.11,
3323761,-0.0,-0.07,1.08,-2.69,4.15,8.42,911.36,25.11,
3323799,-0.01,-0.08,1.05,-2.99,4.82,8.3,911.42,25.12,
3323837,-0.0,-0.06,1.07,-2.99,5.0,8.12,911.38,25.1,
3323876,-0.01,-0.07,1.08,-2.75,5.43,8.06,911.39,25.11,
3323926,0.01,-0.07,1.06,-2.62,5.13,8.06,911.32,25.1,
3323964,0.01,-0.07,1.09,-2.5,5.31,7.87,911.38,25.11,
3324002,0.0,-0.07,1.08,-2.69,4.64,7.93,911.34,25.09,
3324040,0.01,-0.07,1.09,-2.62,4.27,8.12,911.36,25.11,
3324078,0.0,-0.07,1.09,-2.5,4.03,7.87,911.34,25.11,
3324117,-0.0,-0.08,1.1,-2.5,3.42,7.75,911.35,25.1,
3324155,0.0,-0.08,1.08,-2.44,2.87,7.69,911.35,25.1,
3324193,0.0,-0.07,1.08,-2.56,2.87,7.81,911.36,25.11,
3324231,0.0,-0.07,1.11,-2.5,2.08,7.75,911.35,25.11,
3324307,-0.0,-0.06,1.14,-2.75,2.62,7.51,911.34,25.07,
3324345,0.0,-0.07,1.15,-2.69,3.72,7.32,911.32,25.09,
3324383,0.01,-0.07,1.14,-2.38,3.66,7.32,911.33,25.09,
3324545,-0.01,-0.07,1.09,-2.2,2.87,6.96,911.25,25.02,
3324583,-0.01,-0.07,1.1,-2.2,3.05,6.9,911.28,25.05,
3324621,0.0,-0.08,1.1,-2.26,3.36,6.9,911.27,25.07,
3324660,-0.0,-0.06,1.15,-2.56,2.75,6.71,911.24,25.06,
3324698,-0.01,-0.08,1.16,-2.5,3.23,6.77,911.27,25.06,
3324736,-0.0,-0.07,1.17,-2.62,2.93,6.65,911.32,25.07,
3324774,-0.0,-0.07,1.18,-2.56,3.3,6.65,911.23,25.05,
3324824,0.0,-0.07,1.14,-2.32,3.36,6.59,911.24,25.05,
3324863,0.0,-0.07,1.13,-2.5,3.23,6.53,911.29,25.08,
3324901,-0.0,-0.07,1.12,-2.2,3.36,6.41,911.24,25.07,
3324939,-0.02,-0.07,1.11,-2.08,3.23,6.59,911.21,25.07,
3324977,-0.01,-0.07,1.09,-2.08,3.54,6.41,911.28,25.09,
3325015,-0.01,-0.07,1.11,-1.83,3.23,6.47,911.24,25.07,
3325054,-0.0,-0.07,1.12,-1.83,3.54,6.16,911.22,25.08,
3325092,-0.01,-0.07,1.09,-1.65,3.54,6.23,911.18,25.08,
3325130,-0.02,-0.07,1.09,-1.4,3.97,6.29,911.22,25.08,
3325180,-0.0,-0.07,1.07,-1.46,4.21,6.29,911.21,25.09,
3325218,-0.02,-0.07,1.06,-1.16,3.97,6.29,911.2,25.09,
3325257,-0.03,-0.08,1.02,-1.34,4.88,6.1,911.19,25.09,
3325295,-0.02,-0.08,1.02,-1.28,4.64,6.29,911.2,25.08,
3325333,-0.02,-0.07,1.04,-1.28,4.58,6.23,911.21,25.09,
3325371,-0.02,-0.08,0.97,-1.4,4.46,6.29,911.14,25.08,
3325409,-0.02,-0.07,1.0,-1.16,4.15,6.23,911.18,25.1,
3325448,-0.01,-0.07,0.95,-1.4,4.7,6.23,911.17,25.1,
3325486,-0.03,-0.07,0.97,-1.34,4.52,6.35,911.14,25.11,
3325524,-0.04,-0.07,0.95,-1.4,5.31,6.53,911.09,25.09,
3325574,-0.03,-0.07,0.96,-1.46,5.55,6.41,911.06,25.09,
3325612,-0.03,-0.07,0.96,-1.83,6.1,6.53,911.08,25.1,
3325650,-0.03,-0.08,0.98,-1.83,6.35,6.77,911.08,25.1,
3325688,-0.03,-0.07,0.95,-2.14,7.08,6.47,911.09,25.11,
3325726,-0.03,-0.07,0.97,-2.26,6.96,6.47,911.09,25.11,
3325765,-0.03,-0.08,0.93,-2.2,8.36,6.53,911.06,25.11,
3325803,-0.02,-0.07,0.96,-2.26,8.18,6.53,911.03,25.09,
3325841,-0.03,-0.07,0.95,-2.14,8.36,6.71,911.08,25.11,
3325879,-0.03,-0.07,0.93,-2.2,7.45,6.84,911.04,25.11,
3325929,-0.03,-0.07,0.98,-1.71,7.63,6.84,911.05,25.09,
3325967,-0.03,-0.07,0.97,-2.2,6.71,7.26,911.03,25.11,
3326006,-0.04,-0.07,1.01,-1.53,5.98,7.14,910.98,25.09,
3326044,-0.04,-0.08,0.98,-1.83,6.77,7.45,911.13,25.1,
3326082,-0.03,-0.06,1.07,-1.53,5.43,7.45,911.05,25.09,
3326120,-0.03,-0.07,1.05,-1.77,5.98,7.63,911.0,25.1,
3326159,-0.04,-0.07,1.06,-1.46,5.62,7.57,911.06,25.11,
3326197,-0.03,-0.07,1.14,-1.28,6.1,7.81,911.03,25.09,
3326235,-0.03,-0.07,1.13,-1.28,5.55,8.0,911.02,25.1,
3326273,-0.04,-0.05,1.19,-0.67,4.39,8.0,911.06,25.1,
3326323,-0.03,-0.06,1.18,-0.24,4.64,8.24,911.05,25.08,
3326361,-0.04,-0.06,1.21,0.37,4.09,8.24,911.04,25.1,
3326400,-0.05,-0.06,1.12,0.79,4.21,8.42,911.03,25.11,
3326438,-0.04,-0.05,1.14,1.4,4.03,8.36,911.04,25.11,
3326476,-0.04,-0.06,1.06,1.4,5.25,8.73,911.0,25.1,
3326514,-0.04,-0.06,1.08,1.89,4.39,8.85,910.96,25.09,
3326552,-0.04,-0.07,1.06,1.89,4.94,9.03,910.91,25.1,
3326591,-0.03,-0.06,1.06,1.71,5.0,9.22,910.96,25.1,
3326629,-0.03,-0.07,1.08,1.46,5.0,9.4,910.92,25.1,
3326679,-0.04,-0.06,1.06,0.73,5.13,9.46,910.95,25.08,
3326717,-0.04,-0.06,1.01,-0.06,5.37,9.7,910.93,25.09,
3326755,-0.04,-0.07,1.03,-0.24,4.76,9.77,910.95,25.09,
3326793,-0.03,-0.07,0.99,-0.55,5.62,9.83,910.97,25.09,
3326832,-0.04,-0.07,1.0,-0.61,5.31,9.89,910.92,25.09,
3326870,-0.02,-0.07,1.0,-0.85,5.07,10.07,910.89,25.08,
3326908,-0.01,-0.07,1.03,-0.92,4.88,10.01,910.98,25.08,
3326946,-0.03,-0.07,1.04,-1.16,5.37,10.19,910.93,25.09,
3326985,-0.02,-0.07,1.03,-1.53,5.25,10.31,910.87,25.09,
3327023,-0.01,-0.07,1.04,-1.59,5.49,10.13,910.91,25.09,
3327073,-0.02,-0.06,1.08,-1.95,5.49,10.5,910.95,25.08,
3327111,-0.01,-0.07,1.1,-1.77,5.86,10.38,910.92,25.09,
3327149,-0.0,-0.07,1.1,-1.71,5.8,10.13,910.9,25.08,
3327187,-0.01,-0.06,1.11,-1.65,5.43,10.31,910.9,25.09,
3327226,-0.0,-0.07,1.11,-1.65,5.62,10.19,910.94,25.09,
3327264,-0.0,-0.06,1.1,-1.71,5.74,10.19,910.83,25.09,
3327302,-0.02,-0.07,1.08,-1.71,5.25,10.38,910.89,25.09,
3327340,-0.0,-0.07,1.07,-1.95,5.0,10.25,910.85,25.08,
3327379,0.0,-0.07,1.03,-2.38,4.52,10.13,910.86,25.1,
3327455,-0.0,-0.07,1.03,-2.62,3.42,10.25,910.86,25.07,
3327493,-0.01,-0.06,1.04,-2.69,2.99,10.19,910.86,25.07,
3327531,-0.01,-0.06,1.09,-2.5,3.97,10.25,910.89,25.08,
3327621,-0.02,-0.06,1.14,-2.38,5.49,10.13,910.84,25.04,
3327659,-0.0,-0.07,1.12,-2.81,6.41,10.01,910.92,25.06,
3327697,0.0,-0.06,1.17,-2.32,6.1,9.83,910.85,25.07,
3327735,-0.0,-0.06,1.14,-2.5,6.84,9.83,910.86,25.07,
3327774,-0.0,-0.06,1.13,-2.69,6.47,10.01,910.86,25.08,
3327812,0.02,-0.05,1.2,-2.81,6.47,9.83,910.82,25.06,
3327850,-0.0,-0.06,1.17,-2.93,7.08,9.83,910.82,25.08,
3327900,0.0,-0.05,1.21,-2.69,6.53,9.89,910.86,25.06,
3327938,0.02,-0.06,1.21,-2.75,7.02,10.01,910.87,25.07,
3327976,0.02,-0.06,1.22,-2.38,5.98,9.64,910.8,25.06,
3328015,0.01,-0.06,1.21,-2.38,6.29,9.58,910.83,25.06,
3328053,0.02,-0.06,1.17,-2.26,6.77,9.64,910.86,25.07,
3328091,0.02,-0.05,1.17,-2.2,6.65,9.52,910.78,25.07,
3328129,0.0,-0.06,1.14,-2.08,6.53,9.4,910.84,25.07,
3328167,0.02,-0.07,1.13,-1.77,6.9,9.34,910.82,25.07,
3328206,0.02,-0.07,1.12,-1.83,6.77,9.03,910.82,25.08,
3328256,0.01,-0.06,1.09,-1.95,7.69,8.91,910.83,25.07,
3328294,0.01,-0.06,1.12,-2.01,8.12,8.73,910.75,25.07,
3328332,0.03,-0.06,1.14,-1.95,8.3,8.73,910.77,25.07,
3328370,0.02,-0.07,1.17,-1.89,8.48,8.61,910.76,25.08,
3328409,0.02,-0.07,1.14,-2.14,9.28,8.61,910.82,25.09,
3328447,0.02,-0.05,1.19,-1.65,8.73,8.42,910.75,25.09,
3328485,0.03,-0.06,1.16,-1.89,9.22,8.18,910.78,25.09,
3328523,0.04,-0.05,1.19,-1.46,7.93,8.06,910.83,25.09,
3328561,0.02,-0.06,1.2,-1.46,7.57,8.06,910.85,25.08,
3328600,0.03,-0.06,1.19,-0.98,6.96,7.93,910.79,25.08,
3328650,0.03,-0.05,1.19,-0.73,6.04,7.69,910.82,25.07,
3328688,0.03,-0.06,1.19,-0.24,5.31,7.39,910.82,25.09,
3328726,0.02,-0.06,1.19,-0.06,4.58,7.26,910.81,25.08,
3328764,0.02,-0.06,1.17,0.24,4.03,7.14,910.78,25.08,
3328802,0.02,-0.07,1.13,0.24,4.03,6.96,910.79,25.09,
3328841,0.02,-0.06,1.12,0.55,3.78,6.71,910.77,25.09,
3328879,0.02,-0.06,1.11,0.79,3.42,6.53,910.8,25.09,
3328917,0.02,-0.07,1.07,0.92,3.6,6.29,910.79,25.1,
3328955,0.02,-0.06,1.11,1.28,2.99,6.23,910.75,25.11,
3328994,0.01,-0.07,1.06,1.34,3.72,5.98,910.77,25.12,
3329043,0.01,-0.06,1.08,2.08,2.93,5.68,910.74,25.08,
3329082,0.02,-0.07,1.04,2.08,4.09,5.31,910.76,25.09,
3329120,0.03,-0.07,1.03,2.32,3.6,5.37,910.74,25.1,
3329158,0.01,-0.07,1.01,2.69,3.97,5.07,910.74,25.1,
3329196,0.0,-0.07,0.99,2.62,4.03,4.76,910.71,25.1,
3329235,0.01,-0.06,1.01,2.93,4.64,4.64,910.75,25.09,
3329273,0.02,-0.07,1.01,2.99,4.64,4.39,910.73,25.09,
3329311,0.0,-0.06,1.02,3.05,5.0,4.27,910.74,25.09,
3329349,0.0,-0.07,0.98,2.93,5.68,4.03,910.69,25.09,
3329399,0.01,-0.07,0.98,3.05,5.0,3.85,910.72,25.09,
3329437,-0.0,-0.08,0.87,2.26,5.8,3.66,910.63,25.09,
3329476,0.01,-0.06,0.9,2.26,4.52,3.66,910.67,25.08,
3329514,0.01,-0.08,0.86,1.77,4.76,3.6,910.63,25.08,
3329552,0.01,-0.07,0.86,1.16,3.66,3.54,910.59,25.08,
3329590,0.01,-0.07,0.91,1.89,2.62,3.36,910.61,25.09,
3329629,0.0,-0.08,0.86,1.1,2.62,3.42,910.6,25.07,
3329667,-0.0,-0.07,0.92,1.71,1.28,3.48,910.65,25.06,
3329705,0.0,-0.08,0.85,1.22,2.2,3.23,910.63,25.08,
3329743,-0.01,-0.07,0.85,1.28,1.34,3.11,910.62,25.08,
3329793,0.0,-0.07,0.87,1.16,2.56,3.05,910.59,25.05,
3329832,-0.0,-0.07,0.88,0.79,2.38,2.81,910.6,25.07,
3329870,-0.02,-0.06,0.95,0.79,2.87,2.81,910.59,25.08,
3329908,-0.02,-0.07,0.96,0.37,4.09,2.62,910.59,25.08,
3329946,-0.01,-0.07,0.98,0.49,4.21,2.69,910.55,25.07,
3329985,-0.02,-0.07,0.97,0.24,5.0,2.69,910.51,25.09,
3330023,-0.02,-0.06,0.98,0.12,5.25,2.62,910.56,25.09,
3330061,-0.01,-0.07,0.98,0.24,6.35,2.75,910.56,25.09,
3330099,-0.01,-0.06,0.97,0.37,6.35,2.93,910.56,25.1,
3330138,-0.02,-0.06,0.96,0.24,6.04,2.99,910.5,25.09,
3330188,-0.01,-0.06,1.0,0.43,5.98,2.93,910.5,25.08,
3330226,-0.0,-0.06,1.02,0.06,6.23,2.87,910.46,25.08,
3330264,-0.0,-0.06,1.08,0.0,5.86,3.11,910.45,25.08,
3330302,-0.01,-0.05,1.1,0.0,6.16,3.23,910.57,25.1,
3330340,-0.01,-0.06,1.11,-0.49,6.29,3.17,910.51,25.1,
3330378,-0.01,-0.05,1.14,-0.55,6.47,3.17,910.51,25.09,
3330417,-0.01,-0.06,1.14,-0.49,6.9,3.11,910.5,25.1,
3330455,0.0,-0.04,1.22,-0.37,5.55,3.11,910.45,25.09,
3330493,-0.01,-0.04,1.25,-0.06,5.43,3.36,910.43,25.09,
3330569,0.0,-0.04,1.26,0.31,4.94,3.54,910.47,25.06,
3330607,0.0,-0.06,1.23,0.06,5.07,3.6,910.41,25.08,
3330646,0.0,-0.05,1.24,0.37,4.7,3.66,910.46,25.09,
3330735,-0.01,-0.04,1.19,0.85,4.46,3.66,910.4,25.05,
3330774,-0.01,-0.05,1.18,0.85,4.33,3.66,910.43,25.06,
3330812,-0.02,-0.05,1.16,0.92,4.64,3.6,910.39,25.08,
3330850,-0.01,-0.06,1.18,1.22,5.13,3.72,910.41,25.08,
3330888,-0.01,-0.06,1.17,1.28,5.31,3.72,910.38,25.09,
3330926,-0.02,-0.05,1.18,1.83,4.94,3.85,910.38,25.09,
3330965,-0.02,-0.07,1.1,1.77,5.74,3.78,910.39,25.09,
3331015,-0.01,-0.06,1.1,2.2,6.23,3.78,910.43,25.08,
3331053,-0.0,-0.07,1.0,2.26,6.29,3.97,910.34,25.08,
3331091,-0.01,-0.06,0.98,2.26,5.43,3.97,910.33,25.07,
3331129,-0.02,-0.07,0.94,2.32,6.1,3.91,910.25,25.08,
3331167,-0.01,-0.07,0.93,2.08,5.43,3.91,910.36,25.11,
3331206,-0.0,-0.07,0.93,2.01,5.55,3.97,910.28,25.1,
3331244,-0.02,-0.07,0.91,1.65,5.31,4.09,910.28,25.09,
3331282,-0.01,-0.07,0.93,1.59,5.13,4.09,910.26,25.1,
3331320,-0.01,-0.07,0.91,1.16,5.19,4.09,910.32,25.1,
3331359,-0.01,-0.06,0.94,1.28,4.7,4.21,910.26,25.09,
3331409,-0.01,-0.08,0.93,0.98,4.82,4.33,910.2,25.08,
3331447,-0.02,-0.07,0.97,1.1,4.39,3.97,910.23,25.08,
3331485,-0.01,-0.07,0.95,1.04,4.7,4.21,910.23,25.1,
3331523,-0.01,-0.06,0.96,0.85,4.03,4.27,910.25,25.1,
3331561,-0.01,-0.07,0.96,0.92,4.09,4.21,910.22,25.09,
3331600,-0.01,-0.07,0.95,0.79,3.85,4.27,910.26,25.11,
3331638,-0.02,-0.07,0.97,0.73,3.66,4.21,910.24,25.09,
3331676,-0.01,-0.06,0.99,0.73,3.54,4.15,910.22,25.1,
3331714,-0.01,-0.07,0.99,0.79,3.11,4.21,910.18,25.1,
3331753,-0.01,-0.06,1.0,0.85,3.05,4.21,910.19,25.11,
3331802,-0.02,-0.07,0.99,0.85,2.81,4.21,910.22,25.09,
3331841,-0.01,-0.07,1.0,0.85,2.87,4.15,910.19,25.1,
3331879,-0.02,-0.07,1.0,0.98,2.62,4.21,910.14,25.11,
3331917,-0.02,-0.06,1.01,0.98,2.62,4.21,910.16,25.1,
3331955,-0.03,-0.06,1.01,1.1,2.26,4.27,910.18,25.11,
3331993,-0.02,-0.06,1.01,1.22,2.32,4.39,910.1,25.1,
3332032,-0.02,-0.06,1.02,1.1,2.44,4.27,910.14,25.1,
3332070,-0.03,-0.06,1.01,1.1,2.56,4.52,910.13,25.11,
3332108,-0.03,-0.06,1.0,1.22,2.32,4.33,910.05,25.1,
3332158,-0.03,-0.06,1.01,1.4,2.56,4.58,910.06,25.09,
3332196,-0.03,-0.06,1.01,1.34,2.32,4.7,910.12,25.11,
3332234,-0.04,-0.06,1.02,1.83,1.77,4.76,910.05,25.1,
3332273,-0.03,-0.07,1.02,1.83,1.59,4.82,910.08,25.11,
3332311,-0.02,-0.06,1.02,1.95,1.22,4.94,910.03,25.1,
3332349,-0.02,-0.07,1.0,1.89,0.85,5.13,909.96,25.08,
3332387,-0.02,-0.07,0.97,1.83,0.31,5.13,910.01,25.11,
3332425,-0.03,-0.06,0.96,2.08,-0.43,5.19,909.95,25.11,
3332464,-0.03,-0.06,0.98,2.14,-1.46,5.37,909.91,25.12,
3332502,-0.02,-0.06,0.95,2.08,-2.14,5.25,909.98,25.12,
3332552,-0.02,-0.06,0.99,2.08,-3.72,5.31,909.95,25.11,
3332590,-0.04,-0.08,1.0,1.83,-3.66,5.62,909.95,25.11,
3332628,-0.03,-0.06,1.0,1.83,-4.03,5.55,909.93,25.12,
3332666,-0.03,-0.06,0.99,2.08,-3.66,5.43,909.94,25.12,
3332705,-0.04,-0.07,0.93,2.32,-3.48,5.25,909.92,25.11,
3332743,-0.04,-0.07,0.91,2.5,-3.78,5.37,909.93,25.11,
3332781,-0.03,-0.06,0.9,2.87,-3.48,5.31,909.86,25.11,
3332819,-0.03,-0.07,0.89,3.05,-2.93,5.37,909.91,25.11,
3332858,-0.03,-0.07,0.88,3.3,-2.44,5.49,909.91,25.12,
3332908,-0.03,-0.07,0.87,3.78,-1.89,5.37,909.88,25.09,
3332946,-0.03,-0.07,0.83,3.97,-0.92,5.43,909.87,25.12,
3332984,-0.04,-0.07,0.81,4.21,-1.1,5.55,909.92,25.1,
3333022,-0.04,-0.07,0.79,4.21,-0.31,5.62,909.94,25.12,
3333060,-0.02,-0.07,0.77,4.21,-0.12,5.55,909.88,25.11,
3333099,-0.03,-0.07,0.74,4.46,0.43,5.62,909.92,25.12,
3333137,-0.03,-0.06,0.76,4.58,0.0,5.68,909.86,25.12,
3333175,-0.02,-0.07,0.74,4.88,0.67,5.74,909.88,25.11,
3333213,-0.03,-0.06,0.72,4.88,0.98,5.8,909.89,25.13,
3333251,-0.02,-0.07,0.73,5.49,0.73,6.16,909.83,25.12,
3333301,-0.03,-0.07,0.64,4.52,1.04,6.16,909.8,25.11,
3333339,-0.02,-0.07,0.66,4.15,0.18,6.16,909.8,25.12,
3333378,-0.03,-0.08,0.65,2.99,0.37,6.23,909.78,25.11,
3333416,-0.03,-0.07,0.68,2.26,0.12,6.29,909.81,25.11,
3333454,-0.02,-0.07,0.73,1.59,-0.06,6.41,909.78,25.12,
3333492,-0.02,-0.07,0.76,0.37,0.18,6.29,909.86,25.12,
3333531,-0.02,-0.07,0.81,0.24,0.43,6.59,909.86,25.12,
3333569,-0.03,-0.06,0.86,-0.12,0.43,6.53,909.83,25.13,
3333607,-0.01,-0.06,0.88,-0.43,0.31,6.84,909.86,25.13,
3333683,-0.02,-0.06,0.97,-0.18,0.12,6.71,909.84,25.09,
3333721,-0.03,-0.06,1.03,0.0,0.0,6.65,909.81,25.1,
3333759,-0.01,-0.05,1.01,0.0,0.55,6.77,909.85,25.11,
3333849,-0.02,-0.05,1.02,0.0,1.59,6.96,909.83,25.07,
3333887,-0.01,-0.05,1.05,0.55,1.04,6.96,909.87,25.08,
3333925,-0.03,-0.04,1.08,0.92,0.98,6.77,909.88,25.11,
3333963,-0.01,-0.05,1.08,1.16,1.28,6.9,909.87,25.11,
3334002,-0.01,-0.05,1.07,1.34,1.65,6.77,909.89,25.11,
3334040,-0.02,-0.04,1.06,1.53,1.46,6.84,909.92,25.09,
3334078,-0.01,-0.06,1.07,1.59,1.77,7.02,909.88,25.1,
3334128,-0.0,-0.05,1.07,1.46,1.53,6.65,909.89,25.1,
3334166,-0.0,-0.05,1.06,1.22,1.59,6.65,909.87,25.1,
3334204,0.0,-0.06,1.04,1.04,2.08,6.59,909.85,25.1,
3334243,-0.0,-0.05,1.05,0.67,1.95,6.59,909.83,25.11,
3334281,0.0,-0.05,1.04,0.37,1.83,6.53,909.89,25.12,
3334319,0.0,-0.05,1.05,0.12,1.65,6.41,909.94,25.11,
3334357,-0.0,-0.06,1.04,-0.37,2.08,6.1,909.93,25.12,
3334395,0.0,-0.05,1.05,-0.31,1.89,6.1,909.9,25.11,
3334434,0.0,-0.06,1.05,-0.37,2.5,6.04,909.88,25.12,
3334472,0.01,-0.06,1.05,-0.43,2.2,5.86,909.93,25.12,
3334522,-0.0,-0.05,1.07,-0.24,2.2,5.74,909.78,25.11,
3334560,0.01,-0.05,1.08,-0.37,1.65,5.62,909.84,25.12,
3334598,0.01,-0.05,1.1,-0.18,1.95,5.49,909.85,25.12,
3334636,0.0,-0.06,1.09,-0.24,1.89,5.37,909.85,25.12,
3334675,0.01,-0.05,1.09,-0.37,2.26,5.37,909.84,25.12,
3334713,0.0,-0.05,1.07,-0.49,2.08,5.19,909.87,25.12,
3334751,-0.01,-0.05,1.06,-0.37,2.44,5.13,909.88,25.12,
3334789,0.0,-0.05,1.05,-0.43,2.81,4.88,909.84,25.13,
3334828,0.01,-0.06,1.07,-0.31,2.75,4.82,909.84,25.11,
3334878,0.01,-0.05,1.09,-0.06,2.69,4.76,909.81,25.11,
3334916,0.0,-0.05,1.1,-0.06,2.87,4.58,909.85,25.12,
3334954,0.01,-0.05,1.12,0.18,2.99,4.58,909.9,25.13,
3334992,0.0,-0.05,1.11,0.49,2.93,4.58,909.86,25.12,
3335030,0.0,-0.05,1.13,0.43,2.38,4.46,909.81,25.13,
3335069,0.01,-0.05,1.11,0.67,2.38,4.52,909.88,25.12,
3335107,0.0,-0.05,1.12,0.92,1.53,4.39,909.9,25.13,
3335145,0.01,-0.05,1.12,1.28,0.98,4.46,909.83,25.12,
3335183,0.0,-0.05,1.07,1.16,0.31,4.52,909.87,25.11,
3335221,0.0,-0.05,1.08,1.16,-0.06,4.33,909.82,25.13,
3335271,0.0,-0.06,1.05,0.92,-0.55,4.15,909.86,25.13,
3335309,0.01,-0.05,1.08,1.4,-1.16,4.09,909.86,25.12,
3335348,-0.0,-0.06,1.04,1.4,-0.85,3.97,909.92,25.12,
3335386,-0.01,-0.05,1.04,1.65,-0.98,3.97,909.87,25.13,
3335424,-0.01,-0.05,1.02,1.46,-0.73,3.91,909.9,25.12,
3335462,-0.02,-0.05,1.01,1.59,-0.79,3.85,909.89,25.13,
3335501,-0.01,-0.06,1.01,1.53,-0.12,3.85,909.89,25.12,
3335539,-0.0,-0.05,1.03,1.83,0.0,3.78,909.85,25.12,
3335577,-0.01,-0.06,0.98,1.89,0.55,3.78,909.85,25.13,
3335615,-0.03,-0.05,1.0,1.95,0.85,3.97,909.82,25.13,
3335665,-0.03,-0.06,1.01,2.26,2.44,4.21,909.81,25.11,
3335703,-0.02,-0.06,0.99,2.62,3.05,4.03,909.8,25.12,
3335741,-0.02,-0.05,0.99,2.99,3.48,4.03,909.85,25.12,
3335779,-0.01,-0.05,0.94,3.3,4.21,4.09,909.81,25.12,
3335818,-0.01,-0.05,0.92,3.66,5.0,4.09,909.8,25.13,
3335856,-0.01,-0.06,0.89,3.78,5.74,4.21,909.83,25.12,
3335894,-0.02,-0.06,0.87,3.78,5.92,4.39,909.78,25.14,
3335932,-0.02,-0.07,0.84,3.48,6.04,4.39,909.8,25.13,
3335970,-0.02,-0.06,0.85,3.17,5.49,4.46,909.82,25.12,
3336020,-0.01,-0.06,0.83,2.32,6.1,4.33,909.84,25.13,
3336059,-0.0,-0.06,0.87,1.95,5.74,4.39,909.83,25.12,
3336097,-0.0,-0.06,0.87,1.34,6.1,4.27,909.78,25.12,
3336135,-0.01,-0.05,0.92,1.34,5.62,4.27,909.85,25.13,
3336173,-0.02,-0.06,0.94,0.79,5.49,4.39,909.83,25.13,
3336211,-0.01,-0.06,0.96,0.67,5.0,4.46,909.83,25.12,
3336249,-0.01,-0.06,0.99,0.49,4.76,4.21,909.82,25.12,
3336288,-0.01,-0.06,0.97,0.18,5.31,4.46,909.88,25.12,
3336326,-0.01,-0.05,0.98,0.18,5.0,4.39,909.78,25.12,
3336364,-0.01,-0.05,0.98,0.12,5.68,4.46,909.83,25.13,
3336414,-0.02,-0.05,0.95,-0.12,5.74,4.58,909.85,25.12,
3336452,-0.02,-0.06,1.0,-0.24,6.41,4.52,909.8,25.11,
3336490,-0.02,-0.06,0.98,-0.73,6.29,4.46,909.78,25.12,
3336529,-0.02,-0.05,1.03,-0.43,6.04,4.7,909.87,25.12,
3336567,-0.01,-0.06,1.02,-0.79,6.9,4.7,909.86,25.12,
3336605,-0.03,-0.05,1.06,-0.49,6.41,4.82,909.85,25.12,
3336643,-0.02,-0.05,1.04,-0.85,6.84,4.88,909.86,25.11,
3336681,-0.02,-0.04,1.07,-0.73,6.16,5.0,909.86,25.11,
3336720,-0.02,-0.05,1.07,-0.67,6.9,4.88,909.82,25.12,
3336758,-0.01,-0.04,1.08,-0.55,6.35,5.13,909.88,25.12,
3336834,-0.02,-0.05,1.09,-0.18,5.98,5.43,909.94,25.09,
3336872,-0.03,-0.04,1.1,-0.06,5.37,5.37,909.89,25.09,
3336910,-0.02,-0.04,1.11,0.12,4.7,5.43,909.83,25.09,
3337000,-0.02,-0.06,1.04,0.49,4.7,5.49,909.87,25.07,
3337038,-0.01,-0.05,1.03,0.61,4.52,5.55,909.84,25.09,
3337076,-0.02,-0.05,1.04,0.98,4.58,5.55,909.96,25.1,
3337114,-0.03,-0.06,0.98,0.92,4.7,5.68,909.87,25.1,
3337153,-0.03,-0.06,1.04,1.59,4.33,5.55,909.93,25.11,
3337191,-0.0,-0.07,1.0,1.46,5.25,5.62,909.92,25.1,
3337241,-0.0,-0.06,1.01,2.01,4.52,5.62,909.95,25.09,
3337279,0.0,-0.06,0.93,1.71,5.37,5.55,909.97,25.1,
3337317,-0.02,-0.06,0.95,2.32,4.64,5.55,909.96,25.11,
3337355,-0.01,-0.08,0.88,1.95,5.07,5.62,909.86,25.1,
3337394,-0.01,-0.06,0.92,2.01,4.33,5.49,909.89,25.11,
3337432,-0.02,-0.07,0.91,1.95,4.7,5.25,909.89,25.1,
3337470,-0.02,-0.07,0.88,1.65,4.52,5.43,909.86,25.11,
3337508,-0.01,-0.06,0.92,1.59,3.85,5.43,909.93,25.12,
3337547,-0.01,-0.07,0.89,1.04,4.7,5.62,909.92,25.12,
3337585,-0.01,-0.06,0.91,0.73,4.15,5.43,909.9,25.12,
3337635,-0.02,-0.06,0.9,-0.18,5.0,5.43,909.95,25.1,
3337673,-0.02,-0.06,0.97,-0.18,4.58,5.31,909.93,25.11,
3337711,-0.01,-0.07,0.99,-0.61,4.64,5.55,909.89,25.11,
3337749,-0.01,-0.06,1.0,-0.79,3.91,5.43,909.92,25.11,
3337787,-0.02,-0.06,1.03,-0.85,4.21,5.62,909.93,25.11,
3337826,-0.02,-0.07,1.02,-1.1,4.64,5.74,909.97,25.12,
3337864,-0.01,-0.06,1.07,-0.98,3.66,5.74,909.95,25.11,
3337902,-0.02,-0.05,1.09,-0.98,3.23,5.55,909.93,25.11,
3337940,-0.02,-0.06,1.1,-0.85,2.93,5.68,909.94,25.12,
3337990,-0.0,-0.05,1.13,-0.73,2.32,5.49,909.97,25.11,
3338029,-0.01,-0.06,1.12,-0.67,2.01,5.49,910.02,25.12,
3338067,-0.02,-0.05,1.11,-0.55,2.26,5.49,910.0,25.11,
3338105,-0.02,-0.05,1.12,-0.61,2.87,5.49,910.01,25.12,
3338143,-0.01,-0.05,1.12,-0.49,3.05,5.49,909.93,25.12,
3338181,-0.02,-0.05,1.11,-0.18,2.87,5.43,909.96,25.11,
3338220,-0.03,-0.05,1.11,-0.06,3.54,5.31,909.97,25.13,
3338258,-0.01,-0.05,1.12,0.12,3.91,5.49,909.96,25.12,
3338296,-0.01,-0.05,1.13,0.43,3.97,5.19,910.01,25.12,
3338334,-0.02,-0.05,1.12,0.49,3.72,5.55,909.98,25.14,
3338384,-0.02,-0.06,1.1,0.85,4.09,5.43,909.94,25.11,
3338422,-0.02,-0.06,1.08,0.92,4.27,5.25,909.97,25.12,
3338460,-0.01,-0.05,1.07,1.22,4.33,5.31,910.03,25.11,
3338499,-0.02,-0.05,1.06,1.4,4.39,5.25,909.96,25.12,
3338537,-0.01,-0.06,1.05,1.53,4.58,5.31,909.93,25.12,
3338575,-0.01,-0.05,1.04,1.59,4.46,5.19,909.96,25.12,
3338613,-0.01,-0.05,1.06,1.89,4.09,5.31,909.98,25.13,
3338652,-0.01,-0.06,1.02,1.77,4.09,5.19,909.98,25.12,
3338690,-0.02,-0.06,1.04,2.14,3.72,5.25,910.0,25.11,
3338728,-0.01,-0.06,1.0,2.01,3.6,5.0,910.02,25.12,
3338778,-0.01,-0.06,0.98,2.14,3.05,5.25,910.0,25.1,
3338816,-0.01,-0.06,0.96,1.89,3.17,4.94,910.03,25.11,
3338854,-0.02,-0.06,0.97,1.95,3.3,5.07,910.01,25.1,
3338892,-0.01,-0.07,0.98,1.83,3.3,4.82,910.01,25.11,
3338931,-0.01,-0.06,0.98,1.95,3.54,4.7,909.96,25.09,
3338969,-0.01,-0.06,0.98,1.83,3.91,4.64,910.01,25.1,
3339007,-0.01,-0.06,0.97,1.95,3.6,4.7,910.02,25.1,
3339045,-0.02,-0.06,0.97,2.01,3.36,4.64,910.02,25.1,
3339084,-0.01,-0.07,0.93,1.95,3.54,4.58,909.99,25.11,
3339134,-0.01,-0.06,0.94,2.08,3.54,4.39,910.01,25.1,
3339172,-0.0,-0.06,0.92,1.89,3.3,4.39,909.98,25.11,
3339210,-0.02,-0.06,0.94,1.83,3.42,4.52,909.97,25.1,
3339248,-0.02,-0.06,0.92,1.34,3.72,4.33,909.96,25.12,
3339286,-0.01,-0.06,0.96,1.1,4.03,4.39,909.98,25.11,
3339325,-0.01,-0.06,0.96,0.85,4.03,4.21,909.98,25.12,
3339363,-0.03,-0.06,0.99,0.79,4.03,4.33,909.96,25.1,
3339401,-0.02,-0.06,0.97,0.49,4.39,4.39,910.01,25.12,
3339439,-0.02,-0.06,0.99,0.37,4.39,4.33,909.99,25.11,
3339478,-0.01,-0.05,0.99,0.24,4.58,4.33,910.04,25.11,
3339528,-0.01,-0.06,1.0,0.06,4.27,4.46,909.98,25.11,
3339566,-0.01,-0.06,1.02,-0.06,4.21,4.39,909.98,25.09,
3339604,-0.01,-0.06,1.04,0.0,4.15,4.39,910.04,25.11,
3339642,-0.01,-0.06,1.07,-0.06,4.15,4.58,910.03,25.1,
3339680,-0.02,-0.05,1.08,15.56,3.66,4.46,910.03,25.11,
3339719,-0.01,-0.06,1.09,0.37,3.78,4.58,910.05,25.11,
3339757,-0.01,-0.06,1.06,0.61,3.23,4.52,909.97,25.11,
3339795,-0.02,-0.06,1.07,0.92,2.44,4.64,910.05,25.11,
3339833,-0.01,-0.06,1.05,0.92,2.75,4.58,910.06,25.12,
3339909,-0.01,-0.06,1.05,1.46,2.32,4.7,909.99,25.09,
3339947,-0.02,-0.06,1.07,1.46,2.2,4.64,910.0,25.09,
3339985,-0.01,-0.07,1.04,1.65,2.56,4.64,910.0,25.09,
3340075,-0.03,-0.06,1.02,1.28,2.44,4.76,910.01,25.06,
3340113,-0.01,-0.06,1.01,0.92,2.56,4.7,910.1,25.09,
3340152,-0.02,-0.06,1.03,0.61,3.11,4.33,910.03,25.08,
3340190,-0.03,-0.06,1.04,0.61,3.23,4.64,910.0,25.09,
3340228,-0.02,-0.06,1.07,0.85,3.11,4.64,910.0,25.09,
3340266,-0.04,-0.06,1.08,0.37,3.42,4.52,910.01,25.09,
3340304,-0.03,-0.05,1.07,0.55,3.85,4.58,910.04,25.1,
3340354,-0.02,-0.05,1.08,0.55,4.76,4.39,910.05,25.08,
3340393,-0.02,-0.05,1.07,0.49,5.31,4.7,910.02,25.09,
3340431,-0.02,-0.05,1.09,0.79,4.88,4.7,910.06,25.1,
3340469,-0.04,-0.06,1.08,0.79,5.43,4.58,910.0,25.1,
3340507,-0.02,-0.05,1.09,0.98,5.25,4.7,910.07,25.1,
3340546,-0.03,-0.05,1.09,1.1,5.25,4.64,910.07,25.1,
3340584,-0.03,-0.05,1.08,1.4,5.37,4.82,910.04,25.11,
3340622,-0.02,-0.05,1.07,1.22,5.43,4.88,910.07,25.1,
3340660,-0.03,-0.05,1.08,1.46,5.07,5.25,910.03,25.11,
3340698,-0.03,-0.05,1.06,1.46,5.07,5.0,910.0,25.1,
3340748,-0.02,-0.05,1.07,1.65,4.46,5.31,910.03,25.09,
3340787,-0.03,-0.06,1.06,1.77,4.09,5.55,909.98,25.09,
3340825,-0.02,-0.06,1.04,1.71,3.91,5.55,910.05,25.1,
3340863,-0.02,-0.05,1.04,1.77,4.03,5.43,910.06,25.1,
3340901,-0.02,-0.05,1.02,1.89,3.78,5.55,910.06,25.1,
3340939,-0.02,-0.05,1.02,2.14,3.66,5.62,910.08,25.11,
3340978,-0.03,-0.06,1.0,2.01,3.72,5.8,910.1,25.11,
3341016,-0.02,-0.06,1.0,2.32,3.72,5.62,909.98,25.1,
3341054,-0.02,-0.06,1.0,2.32,3.54,5.68,910.1,25.1,
3341104,-0.02,-0.06,0.98,2.38,3.48,5.68,910.04,25.1,
3341142,-0.01,-0.06,0.98,2.2,3.36,5.68,910.07,25.1,
3341180,-0.02,-0.06,0.97,2.01,3.17,5.74,910.11,25.1,
3341219,-0.01,-0.06,0.98,2.08,3.05,5.68,910.09,25.09,
3341257,-0.02,-0.06,0.98,1.89,2.69,5.8,910.02,25.1,
