timestamp,acc_x,acc_y,acc_z,rot_x,rot_y,rot_z,qfe,temp
3048524,-0.04,-0.05,0.79,4.27,-1.65,1.71,938.99,32.83
3048562,-0.05,-0.06,0.76,4.33,-1.95,1.89,939.02,32.83
3048601,-0.05,-0.06,0.79,4.46,-3.36,2.44,938.96,32.83
3048650,-0.07,-0.05,0.8,4.39,-4.94,2.62,938.94,32.82
3048688,-0.07,-0.05,0.78,4.33,-5.37,2.75,938.92,32.83
3048727,-0.07,-0.05,0.8,4.64,-6.59,2.87,938.92,32.83
3048765,-0.06,-0.06,0.8,4.52,-7.63,3.11,938.86,32.83
3048803,-0.05,-0.06,0.78,4.15,-8.42,3.48,938.9,32.84
3048841,-0.07,-0.04,0.77,4.15,-9.83,3.6,938.88,32.83
3048879,-0.08,-0.05,0.75,3.72,-9.7,3.85,938.89,32.83
3048917,-0.06,-0.06,0.79,3.48,-11.29,4.15,938.83,32.84
3048955,-0.07,-0.06,0.78,3.23,-11.78,4.27,938.81,32.83
3048993,-0.07,-0.07,0.79,3.11,-11.72,4.46,938.81,32.83
3049043,-0.06,-0.05,0.82,2.93,-12.15,4.76,938.79,32.81
3049081,-0.05,-0.05,0.85,2.93,-12.27,4.7,938.88,32.82
3049119,-0.07,-0.06,0.83,2.69,-11.9,4.88,938.82,32.84
3049157,-0.06,-0.05,0.88,2.81,-12.08,4.7,938.81,32.82
3049195,-0.05,-0.05,0.9,2.69,-11.35,4.7,938.81,32.82
3049234,-0.07,-0.05,0.88,2.5,-11.47,4.94,938.86,32.82
3049272,-0.07,-0.04,0.92,2.44,-12.21,4.88,938.85,32.85
3049310,-0.07,-0.06,0.91,2.5,-11.84,4.7,938.84,32.83
3049348,-0.06,-0.04,0.95,2.08,-12.76,4.76,938.83,32.83
3049398,-0.06,-0.04,0.92,2.32,-11.66,4.82,938.85,32.81
3049436,-0.05,-0.06,0.89,2.01,-11.6,4.82,938.9,32.82
3049474,-0.06,-0.04,0.93,2.44,-12.21,4.64,938.92,32.82
3049512,-0.06,-0.05,0.92,2.2,-12.15,4.94,938.91,32.84
3049550,-0.07,-0.05,0.91,2.2,-12.27,5.07,938.87,32.82
3049588,-0.06,-0.04,0.96,2.26,-12.88,5.43,938.86,32.83
3049627,-0.06,-0.06,0.93,1.89,-13.0,5.43,938.87,32.83
3049665,-0.08,-0.05,0.97,1.83,-14.4,5.43,938.79,32.83
3049703,-0.07,-0.05,0.96,1.65,-13.49,5.68,938.84,32.83
3049753,-0.07,-0.05,0.92,1.22,-14.4,5.86,938.86,32.82
3049791,-0.08,-0.05,0.93,1.16,-13.55,5.8,938.92,32.83
3049829,-0.06,-0.06,0.91,0.85,-12.7,5.98,938.88,32.81
3049867,-0.05,-0.04,0.93,0.55,-12.88,5.92,938.84,32.82
3049905,-0.06,-0.04,0.93,0.18,-11.84,6.23,938.88,32.83
3049943,-0.09,-0.05,0.9,-0.18,-10.19,6.1,938.9,32.82
3049981,-0.07,-0.05,0.94,-0.79,-9.4,6.04,938.85,32.82
3050020,-0.04,-0.06,0.99,-0.98,-8.67,5.98,938.88,32.83
3050058,-0.06,-0.07,0.94,-0.92,-7.69,6.16,938.91,32.82
3050107,-0.05,-0.04,0.96,-1.16,-7.39,6.23,938.88,32.82
3050146,-0.06,-0.05,0.94,-1.28,-6.23,6.29,938.97,32.83
3050184,-0.05,-0.05,0.93,-1.46,-7.63,6.29,938.93,32.82
3050222,-0.07,-0.04,1.02,-1.59,-7.2,6.53,938.97,32.83
3050260,-0.04,-0.04,1.02,-2.01,-7.32,6.53,939.04,32.83
3050298,-0.05,-0.03,1.13,-1.95,-8.48,6.59,939.08,32.84
3050336,-0.04,-0.03,1.14,-2.56,-8.12,6.9,939.04,32.83
3050374,-0.07,-0.04,1.15,-2.62,-8.06,6.9,939.1,32.83
3050412,-0.06,-0.05,1.14,-2.62,-7.26,7.02,939.09,32.82
3050451,-0.08,-0.03,1.07,-2.99,-6.59,6.96,939.1,32.83
3050500,-0.07,-0.03,1.09,-2.81,-5.98,6.96,939.1,32.83
3050538,-0.08,-0.03,1.05,-3.42,-5.07,7.14,939.14,32.82
3050577,-0.1,-0.02,1.1,-2.99,-6.04,7.26,939.14,32.83
3050615,-0.08,-0.03,1.1,-3.17,-5.0,7.63,939.14,32.84
3050653,-0.1,-0.03,1.13,-3.23,-5.0,7.93,939.2,32.83
3050691,-0.07,-0.03,1.12,-3.48,-3.97,8.12,939.21,32.83
3050729,-0.07,-0.02,1.15,-3.17,-4.88,8.18,939.18,32.83
3050767,-0.08,-0.02,1.11,-3.6,-4.21,8.54,939.16,32.83
3050805,-0.11,-0.0,1.17,-3.54,-5.49,8.73,939.11,32.83
3050881,-0.08,-0.02,1.14,-4.39,-4.76,9.7,939.16,32.81
3050919,-0.07,-0.04,1.16,-4.33,-3.72,9.7,939.18,32.81
3050957,-0.1,-0.03,1.1,-4.58,-3.6,10.01,939.22,32.82
3051046,-0.11,-0.02,1.13,-4.27,-1.65,10.56,939.21,32.79
3051085,-0.12,-0.01,1.17,-3.72,-1.71,11.23,939.16,32.8
3051123,-0.12,-0.03,1.12,-4.39,0.0,11.72,939.2,32.81
3051161,-0.1,-0.01,1.12,-4.64,-0.31,11.84,939.21,32.81
3051199,-0.12,-0.02,1.11,-4.46,2.62,12.33,939.24,32.83
3051237,-0.07,-0.04,1.05,-4.88,4.7,12.76,939.22,32.82
3051287,-0.07,-0.03,0.99,-4.58,7.87,12.88,939.27,32.81
3051325,-0.08,-0.02,1.01,-4.15,7.2,13.55,939.31,32.8
3051363,-0.06,-0.04,1.0,-4.58,8.48,13.98,939.37,32.81
3051401,-0.04,-0.04,1.03,-4.7,7.81,14.04,939.31,32.82
3051439,-0.03,-0.05,1.06,-5.07,8.61,14.4,939.34,32.81
3051477,-0.01,-0.04,1.08,-5.55,7.75,14.71,939.31,32.82
3051515,-0.02,-0.02,1.17,-5.68,7.63,14.71,939.33,32.81
3051553,-0.03,-0.03,1.15,-6.71,8.73,15.26,939.36,32.83
3051592,-0.03,-0.03,1.19,-6.53,7.57,15.08,939.33,32.83
3051630,-0.01,-0.04,1.17,-7.08,7.2,15.32,939.34,32.82
3051679,-0.01,-0.02,1.18,-7.39,5.07,15.44,939.4,32.82
3051718,-0.02,-0.01,1.23,-7.57,5.19,15.75,939.37,32.82
3051756,0.01,-0.02,1.23,-8.12,5.49,15.87,939.39,32.81
3051794,-0.01,-0.02,1.35,-7.02,4.27,15.75,939.47,32.82
3051832,-0.02,-0.05,1.29,-7.2,5.68,15.81,939.52,32.83
3051870,0.0,-0.02,1.34,-6.71,4.21,15.5,939.5,32.83
3051908,0.01,-0.01,1.33,-6.47,3.11,15.38,939.45,32.82
3051946,0.01,-0.02,1.3,-6.23,1.16,15.44,939.48,32.84
3051985,0.0,-0.02,1.29,-6.29,-0.49,15.2,939.53,32.82
3052034,0.01,-0.03,1.31,-6.23,-2.01,14.95,939.48,32.8
3052072,0.02,-0.03,1.34,-5.92,-2.87,14.71,939.6,32.82
3052111,0.01,-0.03,1.3,-5.62,-2.75,14.34,939.55,32.79
3052149,0.01,-0.03,1.29,-5.13,-3.6,13.85,939.56,32.82
3052187,0.01,-0.04,1.22,-4.88,-3.23,13.37,939.62,32.82
3052225,-0.0,-0.04,1.2,-4.27,-4.27,13.06,939.61,32.84
3052263,0.0,-0.04,1.17,-4.27,-3.85,12.63,939.5,32.81
3052301,-0.02,-0.05,1.13,-4.09,-3.66,12.39,939.49,32.81
3052339,-0.03,-0.05,1.12,-4.03,-3.3,12.15,939.54,32.82
3052389,-0.02,-0.05,1.07,-4.58,-1.89,11.96,939.5,32.8
3052427,-0.02,-0.05,1.13,-4.94,-1.71,11.84,939.5,32.81
3052465,-0.02,-0.05,1.11,-5.74,-0.55,11.72,939.47,32.81
3052503,-0.0,-0.02,1.23,-5.37,-0.18,11.35,939.49,32.81
3052541,-0.01,-0.03,1.25,-5.92,1.28,11.11,939.49,32.81
3052580,-0.03,-0.02,1.31,-5.92,0.79,10.68,939.57,32.83
3052618,-0.03,-0.03,1.31,-5.92,2.01,10.68,939.57,32.82
3052656,-0.01,-0.02,1.34,-6.16,2.26,10.19,939.53,32.82
3052694,-0.02,-0.01,1.36,-5.68,2.69,10.19,939.5,32.82
3052744,-0.01,-0.01,1.36,-5.62,2.81,10.07,939.49,32.8
3052782,-0.02,-0.02,1.33,-5.8,4.09,9.64,939.47,32.81
3052820,-0.03,-0.03,1.35,-5.55,3.6,9.58,939.51,32.81
3052858,-0.01,-0.03,1.34,-5.68,4.46,9.64,939.55,32.82
3052896,-0.02,-0.02,1.32,-5.62,4.64,9.4,939.55,32.81
3052934,-0.03,-0.01,1.34,-4.7,4.64,9.34,939.51,32.82
3052972,-0.0,-0.03,1.31,-5.07,5.0,9.16,939.54,32.81
3053010,-0.03,-0.01,1.38,-4.94,3.3,9.22,939.55,32.83
3053049,-0.04,-0.03,1.3,-5.62,4.82,9.28,939.49,32.81
3053087,-0.01,-0.01,1.37,-5.19,3.54,8.97,939.5,32.83
3053136,-0.01,-0.01,1.38,-5.37,3.72,9.34,939.52,32.81
3053175,-0.01,-0.01,1.4,-5.37,2.99,9.28,939.53,32.81
3053213,-0.03,-0.01,1.39,-4.7,3.66,9.28,939.5,32.81
3053251,-0.03,-0.02,1.34,-4.76,3.11,9.4,939.52,32.83
3053289,-0.0,-0.0,1.38,-4.46,1.77,9.58,939.54,32.82
3053327,-0.02,-0.01,1.37,-3.97,0.98,9.7,939.61,32.82
3053365,-0.01,-0.03,1.34,-3.6,0.92,9.46,939.6,32.82
3053403,-0.02,-0.02,1.36,-2.62,-0.12,9.46,939.66,32.83
3053441,-0.01,-0.03,1.31,-2.38,0.18,9.64,939.61,32.82
3053491,-0.01,-0.02,1.3,-1.46,-0.73,9.22,939.56,32.81
3053529,-0.02,-0.04,1.22,-1.59,0.06,9.16,939.65,32.83
3053567,-0.03,-0.03,1.19,-1.59,-1.04,9.34,939.6,32.84
3053605,-0.04,-0.05,1.18,-1.71,-0.55,9.03,939.62,32.83
3053644,-0.02,-0.04,1.14,-2.44,-0.55,9.09,939.61,32.83
3053682,-0.02,-0.03,1.19,-2.75,-1.28,9.09,939.58,32.82
3053720,-0.05,-0.05,1.11,-3.6,-0.37,9.28,939.66,32.84
3053758,-0.03,-0.04,1.11,-3.85,-0.55,9.03,939.57,32.83
3053796,-0.04,-0.04,1.13,-4.03,0.18,9.09,939.68,32.84
3053834,-0.02,-0.04,1.11,-4.76,-0.12,9.4,939.66,32.84
3053910,-0.03,-0.05,1.12,-5.25,1.83,9.34,939.65,32.8
3053948,-0.04,-0.04,1.19,-5.37,1.77,9.52,939.65,32.81
3053986,-0.02,-0.04,1.2,-6.04,1.83,9.58,939.6,32.82
3054075,-0.04,-0.04,1.18,-6.41,1.89,9.83,939.61,32.79
3054114,-0.04,-0.03,1.2,-6.04,1.34,9.95,939.65,32.81
3054152,-0.02,-0.04,1.16,-6.59,2.08,10.01,939.64,32.82
3054190,-0.03,-0.03,1.19,-6.41,1.89,10.07,939.64,32.81
3054228,-0.06,-0.02,1.23,-6.47,2.69,10.25,939.63,32.81
3054266,-0.04,-0.03,1.26,-6.65,3.54,10.07,939.62,32.83
3054316,-0.04,-0.02,1.3,-6.23,4.09,9.95,939.6,32.8
3054354,-0.04,-0.03,1.31,-6.41,6.04,10.19,939.6,32.81
3054392,-0.04,-0.01,1.32,-6.65,6.23,10.01,939.5,32.8
3054430,-0.03,-0.0,1.38,-6.9,6.29,9.95,939.6,32.82
3054469,-0.03,0.0,1.38,-7.14,6.47,10.13,939.66,32.82
3054507,-0.04,0.0,1.43,-6.9,5.98,10.44,939.59,32.81
3054545,-0.05,-0.01,1.39,-6.59,6.23,10.5,939.65,32.82
3054583,-0.03,-0.0,1.4,-5.98,4.7,10.74,939.64,32.82
3054621,-0.02,-0.01,1.42,-4.94,3.91,10.74,939.66,32.81
3054659,-0.01,-0.03,1.37,-4.58,3.11,10.8,939.71,32.82
3054709,-0.02,-0.02,1.36,-3.66,0.49,10.74,939.65,32.81
3054747,-0.03,-0.05,1.25,-3.36,-0.18,10.8,939.69,32.82
3054785,-0.03,-0.04,1.16,-3.72,-2.08,10.86,939.7,32.83
3054823,-0.05,-0.03,1.16,-2.87,-3.42,10.8,939.72,32.82
3054862,-0.02,-0.04,1.13,-3.05,-1.95,10.86,939.68,32.82
3054900,-0.02,-0.04,1.13,-2.99,-1.65,10.56,939.67,32.82
3054938,-0.04,-0.05,1.14,-2.44,-0.73,10.31,939.66,32.83
3054976,-0.04,-0.07,1.06,-3.17,0.92,10.38,939.66,32.83
3055014,-0.01,-0.04,1.13,-3.36,1.59,9.77,939.66,32.83
3055064,-0.03,-0.05,1.11,-3.6,2.56,9.95,939.69,32.81
3055102,-0.01,-0.05,1.1,-4.82,3.23,10.01,939.66,32.82
3055140,-0.02,-0.05,1.15,-5.31,3.36,9.95,939.61,32.81
3055178,-0.01,-0.04,1.18,-5.86,4.03,10.19,939.62,32.84
3055216,-0.01,-0.04,1.19,-6.71,4.58,10.07,939.66,32.82
3055255,-0.04,-0.03,1.23,-6.65,3.54,9.95,939.64,32.82
3055293,-0.01,-0.02,1.26,-7.57,3.3,9.95,939.63,32.83
3055331,-0.02,-0.03,1.33,-7.45,2.08,10.01,939.68,32.82
3055369,-0.02,-0.04,1.32,-8.06,1.71,10.44,939.7,32.82
3055419,-0.03,-0.0,1.41,-7.75,-0.79,10.25,939.61,32.81
3055457,-0.02,-0.01,1.39,-8.36,-0.55,10.5,939.64,32.82
3055495,-0.02,-0.0,1.47,-8.06,-3.11,10.44,939.63,32.82
3055533,-0.05,-0.01,1.47,-7.45,-2.87,10.62,939.66,32.83
3055571,-0.04,-0.02,1.44,-6.77,-2.69,10.62,939.7,32.84
3055609,-0.03,-0.03,1.4,-5.68,-2.5,10.62,939.7,32.83
3055647,-0.05,-0.03,1.36,-4.03,-3.17,10.44,939.7,32.83
3055686,-0.03,-0.04,1.26,-3.42,-2.14,10.31,939.75,32.83
3055724,-0.02,-0.04,1.25,-2.14,-3.48,10.25,939.72,32.83
3055773,0.01,-0.05,1.14,-1.89,-2.38,9.83,939.69,32.82
3055812,-0.04,-0.04,1.11,-1.77,-3.3,10.13,939.69,32.83
3055850,-0.06,-0.07,1.08,-1.53,-2.75,10.13,939.71,32.83
3055888,-0.02,-0.07,1.04,-2.44,-2.01,9.64,939.79,32.83
3055926,-0.05,-0.05,1.02,-2.5,-2.32,9.77,939.72,32.83
3055964,-0.02,-0.07,0.92,-3.36,-1.16,9.7,939.72,32.83
3056002,-0.03,-0.08,0.88,-4.27,-0.49,9.4,939.71,32.83
3056040,-0.01,-0.06,0.96,-4.46,0.0,9.28,939.75,32.82
3056078,-0.03,-0.07,0.94,-5.49,1.4,9.64,939.8,32.83
3056116,-0.02,-0.07,0.92,-6.35,0.55,9.28,939.84,32.83
3056166,-0.03,-0.07,0.94,-7.26,1.4,9.22,939.88,32.82
3056204,-0.0,-0.06,1.0,-7.75,0.49,9.28,939.86,32.82
3056242,0.02,-0.06,1.06,-8.54,0.67,9.03,939.89,32.83
3056280,-0.02,-0.06,1.07,-8.67,1.53,8.79,939.89,32.83
3056318,-0.02,-0.07,1.12,-8.79,1.77,8.79,939.91,32.83
3056357,-0.02,-0.05,1.12,-9.83,3.66,8.54,939.91,32.83
3056395,-0.02,-0.04,1.2,-9.4,3.6,8.12,939.96,32.83
3056433,-0.03,-0.05,1.16,-9.83,5.8,8.24,939.94,32.84
3056471,-0.01,-0.04,1.22,-9.52,4.64,8.12,939.91,32.83
3056521,-0.02,-0.04,1.24,-9.34,6.16,8.0,939.94,32.83
3056559,-0.02,-0.04,1.27,-8.97,5.19,7.87,939.89,32.83
3056597,-0.04,-0.04,1.28,-8.67,5.74,8.0,939.99,32.82
3056635,-0.02,-0.04,1.36,-8.36,5.13,7.87,939.96,32.83
3056673,-0.02,-0.03,1.39,-8.12,5.25,7.87,940.03,32.83
3056711,-0.01,-0.03,1.39,-7.93,5.43,7.69,940.02,32.84
3056750,-0.01,-0.01,1.49,-7.02,4.09,7.69,939.99,32.83
3056788,-0.02,-0.03,1.43,-7.14,5.13,7.93,939.95,32.83
3056826,-0.05,-0.01,1.49,-6.65,2.32,8.06,939.92,32.84
3056864,-0.04,-0.03,1.5,-6.41,3.11,8.18,940.03,32.85
3056940,-0.03,-0.02,1.47,-6.23,2.5,8.06,940.0,32.81
3056978,-0.01,-0.04,1.34,-6.84,4.46,8.0,940.02,32.81
3057016,-0.03,-0.02,1.35,-6.04,3.23,7.63,940.06,32.83
3057105,-0.04,-0.03,1.34,-6.23,3.3,7.51,940.05,32.8
3057143,-0.04,-0.04,1.34,-6.84,5.25,7.51,940.12,32.81
3057181,-0.04,-0.0,1.39,-6.84,3.6,7.39,940.09,32.82
3057219,-0.04,-0.04,1.41,-6.77,4.15,7.57,940.11,32.81
3057257,-0.02,-0.04,1.39,-6.84,3.36,7.69,940.08,32.81
3057295,-0.05,-0.02,1.43,-5.98,2.93,7.75,940.12,32.83
3057345,-0.04,-0.04,1.37,-6.53,2.81,8.0,940.14,32.81
3057383,-0.05,-0.03,1.43,-5.68,1.89,8.18,940.17,32.81
3057422,-0.05,-0.05,1.37,-5.62,1.53,8.24,940.17,32.82
3057460,-0.04,-0.02,1.41,-5.55,0.37,8.24,940.17,32.83
3057498,-0.05,-0.03,1.39,-5.68,0.37,8.48,940.19,32.82
3057536,-0.04,-0.04,1.37,-5.25,-0.85,8.67,940.16,32.82
3057574,-0.06,-0.04,1.32,-5.43,-0.24,8.85,940.26,32.83
3057612,-0.06,-0.03,1.31,-5.07,-1.16,8.91,940.25,32.83
3057650,-0.05,-0.04,1.29,-5.37,-1.04,9.03,940.25,32.83
3057700,-0.07,-0.04,1.23,-5.62,-1.4,9.34,940.18,32.83
3057738,-0.06,-0.04,1.2,-6.16,-0.85,9.28,940.21,32.82
3057776,-0.06,-0.05,1.18,-6.96,-0.49,9.4,940.25,32.83
3057815,-0.06,-0.04,1.21,-6.96,-0.61,9.64,940.26,32.82
3057853,-0.06,-0.05,1.19,-7.69,0.55,9.7,940.28,32.83
3057891,-0.08,-0.04,1.17,-7.81,1.16,9.7,940.2,32.83
3057929,-0.07,-0.04,1.17,-7.87,1.95,9.83,940.25,32.84
3057967,-0.06,-0.04,1.17,-7.81,2.44,9.95,940.24,32.82
3058005,-0.06,-0.03,1.19,-7.63,2.69,10.19,940.31,32.83
3058043,-0.08,-0.02,1.24,-7.39,2.87,10.38,940.33,32.83
3058093,-0.08,-0.02,1.26,-6.84,4.09,10.56,940.34,32.81
3058131,-0.08,-0.02,1.28,-5.86,4.09,10.62,940.31,32.83
3058170,-0.09,-0.02,1.29,-5.07,5.31,10.86,940.3,32.82
3058208,-0.05,-0.01,1.29,-4.27,5.98,11.11,940.37,32.84
3058246,-0.06,-0.01,1.32,-3.17,6.65,11.11,940.32,32.83
3058284,-0.07,-0.02,1.27,-1.71,7.26,11.47,940.41,32.84
3058322,-0.08,-0.03,1.25,-0.85,8.48,11.6,940.42,32.83
3058360,-0.08,-0.03,1.22,0.12,8.48,11.84,940.39,32.84
3058398,-0.08,-0.02,1.2,1.16,8.91,12.21,940.42,32.85
3058448,-0.08,-0.05,1.12,1.83,9.77,12.39,940.44,32.83
3058486,-0.06,-0.05,1.02,1.95,10.01,12.63,940.51,32.83
3058525,-0.07,-0.05,0.96,2.08,9.22,12.94,940.51,32.84
3058563,-0.06,-0.06,0.88,1.71,9.16,13.24,940.48,32.84
3058601,-0.06,-0.05,0.85,1.04,8.12,13.55,940.48,32.84
3058639,-0.05,-0.06,0.85,0.18,8.12,13.61,940.4,32.83
3058677,-0.05,-0.07,0.82,-1.22,7.81,14.04,940.48,32.83
3058715,-0.06,-0.06,0.89,-1.89,6.96,14.04,940.55,32.85
3058753,-0.06,-0.07,0.93,-3.36,8.06,14.16,940.57,32.84
3058791,-0.05,-0.06,0.99,-4.33,7.2,14.22,940.53,32.83
3058841,-0.05,-0.06,1.02,-4.94,7.51,14.4,940.57,32.82
3058879,-0.04,-0.06,1.0,-5.68,7.14,14.59,940.65,32.82
3058918,-0.04,-0.05,1.08,-5.74,6.47,14.65,940.61,32.83
3058956,-0.05,-0.06,1.06,-6.47,7.14,14.77,940.6,32.82
3058994,-0.05,-0.05,1.11,-6.71,6.84,14.65,940.68,32.83
3059032,-0.04,-0.05,1.13,-7.02,7.26,14.89,940.68,32.83
3059070,-0.04,-0.05,1.16,-7.45,6.9,14.65,940.73,32.82
3059108,-0.03,-0.05,1.19,-7.51,7.14,14.71,940.79,32.82
3059146,-0.03,-0.05,1.21,-7.69,6.84,14.95,940.79,32.84
3059196,-0.04,-0.05,1.23,-7.87,6.41,15.01,940.83,32.81
3059234,-0.04,-0.04,1.23,-8.18,6.41,14.89,940.89,32.83
3059273,-0.03,-0.04,1.28,-8.12,6.04,14.77,940.93,32.83
3059311,-0.04,-0.04,1.28,-8.42,6.41,14.77,940.93,32.82
3059349,-0.03,-0.04,1.3,-8.67,5.98,14.77,940.9,32.82
3059387,-0.03,-0.05,1.3,-8.79,6.29,14.83,940.92,32.82
3059425,-0.04,-0.04,1.28,-9.28,6.59,14.65,940.92,32.81
3059463,-0.03,-0.03,1.34,-9.09,6.04,14.4,940.99,32.83
3059501,-0.02,-0.04,1.31,-9.7,6.96,14.59,941.01,32.83
3059551,-0.02,-0.03,1.35,-9.95,6.84,14.4,941.04,32.82
3059589,-0.02,-0.04,1.35,-9.95,7.87,14.4,941.05,32.8
3059628,-0.04,-0.03,1.35,-10.07,7.26,14.22,941.1,32.82
3059666,-0.04,-0.03,1.4,-10.19,7.93,14.1,941.15,32.82
3059704,-0.03,-0.04,1.36,-10.38,8.3,14.28,941.13,32.82
3059742,-0.02,-0.04,1.37,-10.38,7.75,13.85,941.1,32.81
3059780,-0.03,-0.03,1.35,-10.68,8.48,14.16,941.16,32.82
3059818,-0.03,-0.02,1.37,-10.19,7.81,14.1,941.21,32.83
3059856,-0.03,-0.03,1.35,-10.74,8.61,14.04,941.24,32.82
3059934,-0.04,-0.03,1.44,-11.23,8.06,14.28,941.31,32.79
3059972,-0.04,-0.01,1.5,-11.17,6.65,14.04,941.33,32.81
3060010,-0.01,-0.01,1.51,-11.6,7.32,14.1,941.29,32.8
3060100,-0.01,-0.02,1.46,-11.6,8.18,13.67,941.42,32.78
3060138,-0.03,-0.01,1.48,-11.72,8.73,13.73,941.43,32.79
3060176,-0.02,0.0,1.51,-11.72,8.3,13.79,941.42,32.8
3060214,-0.01,0.01,1.59,-11.96,7.45,13.61,941.41,32.8
3060252,-0.03,-0.0,1.61,-11.96,8.0,13.61,941.43,32.81
3060291,-0.02,0.01,1.73,-12.02,7.14,13.61,941.47,32.8
3060329,-0.01,0.02,1.75,-11.66,8.12,13.43,941.46,32.79
3060379,-0.04,0.03,1.72,-11.72,6.47,13.67,941.48,32.79
3060417,-0.03,0.01,1.7,-11.72,7.32,13.85,941.55,32.79
3060455,-0.01,0.01,1.67,-11.41,7.45,13.55,941.58,32.81
3060493,-0.03,0.03,1.67,-11.11,7.26,13.61,941.56,32.81
3060531,-0.02,0.01,1.64,-11.23,8.3,13.43,941.57,32.79
3060569,-0.01,0.01,1.67,-11.05,7.81,13.06,941.57,32.8
3060608,-0.01,0.0,1.68,-10.86,8.97,12.88,941.63,32.8
3060646,-0.02,0.0,1.66,-10.86,8.24,12.88,941.64,32.82
3060684,-0.02,0.01,1.68,-10.86,8.73,12.94,941.68,32.81
3060734,-0.01,0.0,1.66,-10.74,7.93,12.7,941.7,32.8
3060772,-0.03,0.01,1.63,-10.86,7.45,12.7,941.68,32.79
3060810,0.0,-0.0,1.63,-10.93,8.42,12.82,941.71,32.8
3060848,-0.01,0.01,1.61,-10.8,7.57,12.51,941.7,32.81
3060886,-0.02,0.02,1.65,-10.8,7.08,12.57,941.73,32.81
3060924,-0.01,0.0,1.64,-11.17,7.69,12.57,941.72,32.8
3060962,0.0,0.02,1.7,-11.05,7.32,12.15,941.74,32.8
3061001,0.0,0.02,1.7,-11.11,7.2,11.96,941.78,32.82
3061039,-0.02,0.02,1.75,-10.56,6.29,12.02,941.74,32.8
3061088,-0.01,0.02,1.74,-10.25,7.14,11.84,941.83,32.81
3061127,-0.01,0.03,1.79,-9.09,6.9,11.66,941.76,32.8
3061165,-0.02,0.03,1.75,-8.3,6.77,11.72,941.84,32.81
3061203,-0.01,0.02,1.77,-7.32,5.55,11.6,941.87,32.81
3061241,-0.03,0.01,1.73,-6.16,5.62,11.35,941.92,32.81
3061279,0.0,0.0,1.71,-5.07,4.58,11.35,941.92,32.82
3061317,-0.01,0.0,1.66,-4.7,4.64,11.29,941.92,32.81
3061356,-0.02,0.01,1.62,-3.78,3.72,11.11,941.84,32.8
3061394,-0.01,0.0,1.61,-3.42,3.3,11.11,941.91,32.83
3061432,-0.02,-0.01,1.57,-2.69,2.87,10.74,941.95,32.82
3061482,-0.02,-0.02,1.54,-2.38,2.2,10.62,942.02,32.81
3061520,-0.02,-0.02,1.5,-2.2,2.75,10.5,941.95,32.81
3061558,-0.02,-0.02,1.45,-2.2,2.44,10.31,941.93,32.81
3061596,-0.03,-0.03,1.41,-2.32,3.05,10.25,941.96,32.82
3061634,-0.04,-0.03,1.37,-2.5,3.23,10.25,941.98,32.82
3061672,-0.03,-0.04,1.36,-2.5,3.3,10.13,941.89,32.81
3061710,-0.03,-0.03,1.36,-2.75,3.36,10.19,941.97,32.82
3061748,-0.04,-0.03,1.36,-3.05,3.36,10.13,941.92,32.81
3061787,-0.04,-0.04,1.32,-3.42,3.91,10.19,941.93,32.81
3061836,-0.04,-0.04,1.34,-3.23,4.33,10.19,942.0,32.81
3061874,-0.04,-0.04,1.33,-3.78,5.07,10.25,941.97,32.81
3061913,-0.04,-0.03,1.32,-3.78,5.49,10.31,942.02,32.82
3061951,-0.03,-0.03,1.35,-4.03,6.04,10.25,942.02,32.82
3061989,-0.04,-0.03,1.35,-4.21,6.9,10.19,941.95,32.82
3062027,-0.05,-0.04,1.34,-4.39,7.26,10.5,942.01,32.83
3062065,-0.04,-0.03,1.36,-4.46,7.57,10.44,941.96,32.82
3062103,-0.04,-0.03,1.36,-4.15,7.81,10.86,941.99,32.82
3062142,-0.04,-0.02,1.4,-3.85,7.14,10.93,941.95,32.81
3062191,-0.04,-0.04,1.41,-4.03,8.48,11.23,941.97,32.81
3062229,-0.05,-0.02,1.46,-3.42,7.08,11.17,942.05,32.81
3062268,-0.05,-0.03,1.45,-3.48,7.45,11.84,942.0,32.81
3062306,-0.03,-0.03,1.42,-3.54,7.57,12.02,942.06,32.81
3062344,-0.03,-0.03,1.42,-3.23,6.47,12.02,942.06,32.82
3062382,-0.02,-0.04,1.37,-3.17,5.62,12.15,942.03,32.82
3062420,-0.04,-0.05,1.36,-2.93,4.33,12.57,942.06,32.8
3062458,-0.02,-0.04,1.34,-3.05,3.85,12.39,942.04,32.81
3062496,-0.02,-0.04,1.34,-2.62,3.11,12.39,942.04,32.81
3062535,-0.03,-0.05,1.32,-2.75,2.56,12.45,942.05,32.82
3062584,-0.02,-0.05,1.31,-2.75,2.56,12.27,942.0,32.81
3062623,-0.02,-0.05,1.28,-3.42,2.5,12.39,942.02,32.81
3062661,-0.03,-0.05,1.26,-3.54,2.01,12.57,942.07,32.82
3062699,-0.02,-0.04,1.27,-3.97,1.89,12.51,942.04,32.82
3062737,-0.03,-0.05,1.28,-4.27,2.01,12.51,942.03,32.81
3062775,-0.02,-0.06,1.3,-4.64,2.32,12.27,942.05,32.8
3062813,-0.03,-0.05,1.31,-4.64,2.01,12.39,942.06,32.83
3062852,-0.04,-0.04,1.32,-4.76,2.14,12.27,942.08,32.81
3062890,-0.03,-0.04,1.29,-5.07,2.5,12.27,942.1,32.82
3062965,-0.04,-0.05,1.26,-4.88,2.08,12.45,942.08,32.8
3063004,-0.03,-0.05,1.22,-5.07,2.69,12.33,942.05,32.81
3063042,-0.02,-0.04,1.26,-4.76,2.26,12.45,942.04,32.81
3063131,-0.04,-0.05,1.28,-4.88,2.44,12.57,942.07,32.79
3063169,-0.02,-0.06,1.25,-4.88,3.17,12.57,942.08,32.79
3063207,-0.03,-0.04,1.25,-4.82,1.95,12.51,942.09,32.79
3063246,-0.03,-0.04,1.23,-4.7,2.32,12.63,942.04,32.79
3063284,-0.03,-0.05,1.23,-4.58,2.08,12.39,942.09,32.8
3063322,-0.02,-0.05,1.26,-4.64,2.08,12.57,942.01,32.8
3063372,-0.03,-0.05,1.28,-4.52,1.46,12.51,942.07,32.8
3063410,-0.02,-0.04,1.27,-4.46,1.83,12.57,942.03,32.81
3063448,-0.02,-0.05,1.26,-4.27,1.95,12.33,942.04,32.8
3063486,-0.03,-0.05,1.25,-4.15,2.2,12.51,941.99,32.8
3063524,-0.02,-0.05,1.25,-3.97,3.17,12.33,941.99,32.79
3063562,-0.03,-0.04,1.24,-3.85,3.85,12.27,942.01,32.81
3063600,-0.03,-0.04,1.25,-3.85,4.27,12.21,941.95,32.8
3063639,-0.04,-0.05,1.25,-3.78,5.13,12.21,941.96,32.81
3063677,-0.03,-0.05,1.27,-3.72,5.0,12.33,941.99,32.8
3063715,-0.02,-0.04,1.27,-3.91,5.43,12.39,941.99,32.81
3063765,-0.02,-0.05,1.27,-3.85,5.68,12.51,941.98,32.8
3063803,-0.02,-0.04,1.28,-4.09,5.43,12.51,941.94,32.8
3063841,-0.02,-0.04,1.26,-4.21,5.07,12.88,941.94,32.8
3063879,-0.03,-0.04,1.25,-4.21,5.19,12.76,941.96,32.8
3063917,-0.03,-0.04,1.28,-4.46,4.33,12.76,942.01,32.81
3063956,-0.02,-0.04,1.3,-4.58,4.15,13.12,941.93,32.83
3063994,-0.01,-0.05,1.28,-4.88,4.03,13.0,941.9,32.8
3064032,-0.03,-0.04,1.28,-5.07,3.42,13.18,941.92,32.81
3064070,-0.01,-0.04,1.28,-5.25,3.91,13.06,942.02,32.83
3064120,-0.02,-0.05,1.26,-5.25,3.6,13.06,941.96,32.81
3064158,-0.02,-0.05,1.24,-5.49,4.39,13.0,941.93,32.82
3064196,-0.01,-0.04,1.26,-5.55,4.58,13.0,941.98,32.81
3064234,-0.0,-0.05,1.27,-5.68,4.58,12.94,941.91,32.8
3064272,-0.02,-0.04,1.24,-6.23,4.64,13.0,941.92,32.82
3064310,-0.04,-0.05,1.27,-5.92,5.13,12.82,941.96,32.82
3064348,-0.01,-0.05,1.31,-6.16,5.49,12.88,941.93,32.81
3064387,-0.0,-0.04,1.32,-6.04,4.88,12.82,941.88,32.81
3064425,-0.02,-0.04,1.33,-6.35,5.62,12.94,941.87,32.82
3064474,-0.02,-0.04,1.37,-6.41,6.1,12.82,941.9,32.8
3064513,-0.02,-0.03,1.38,-6.59,5.68,12.88,941.89,32.81
3064551,-0.02,-0.03,1.42,-6.16,5.92,12.82,941.88,32.82
3064589,-0.01,-0.04,1.38,-6.96,6.77,12.88,941.94,32.82
3064627,-0.02,-0.02,1.45,-5.86,5.86,12.76,941.9,32.83
3064665,-0.02,-0.05,1.37,-6.35,8.24,12.94,941.86,32.81
3064703,-0.01,-0.03,1.41,-5.98,6.71,12.94,941.88,32.83
3064741,-0.01,-0.03,1.43,-5.98,7.57,13.12,941.9,32.82
3064780,-0.01,-0.04,1.33,-6.53,7.57,13.12,941.85,32.83
3064818,0.03,-0.02,1.38,-6.1,6.16,12.94,941.88,32.82
3064867,0.02,-0.04,1.38,-6.47,5.98,13.24,941.83,32.81
3064906,-0.0,-0.03,1.4,-6.35,4.76,13.61,941.82,32.82
3064944,0.01,-0.03,1.44,-6.65,5.19,13.49,941.85,32.83
3064982,0.03,-0.03,1.46,-6.96,4.03,13.31,941.8,32.81
3065020,0.01,-0.02,1.51,-6.29,2.44,13.06,941.83,32.82
3065058,0.03,-0.04,1.44,-6.35,3.42,13.0,941.84,32.83
3065096,0.01,-0.04,1.4,-6.04,2.99,12.51,941.88,32.84
3065134,0.01,-0.04,1.39,-5.43,3.42,12.45,941.86,32.83
3065173,0.0,-0.06,1.25,-5.55,4.27,12.33,941.89,32.84
3065222,0.01,-0.05,1.26,-4.7,4.46,11.78,941.87,32.82
3065261,0.01,-0.07,1.2,-4.64,5.19,11.54,941.82,32.83
3065299,-0.02,-0.05,1.21,-4.52,5.0,11.23,941.81,32.83
3065337,-0.01,-0.05,1.23,-4.64,6.41,11.23,941.79,32.83
3065375,-0.02,-0.05,1.24,-4.52,6.04,11.29,941.81,32.83
3065413,-0.02,-0.05,1.25,-5.0,5.86,11.29,941.83,32.85
3065452,-0.0,-0.06,1.24,-5.0,6.29,11.23,941.8,32.83
3065490,-0.02,-0.05,1.28,-5.19,5.8,11.23,941.74,32.83
3065528,0.01,-0.04,1.28,-5.43,6.04,11.47,941.73,32.83
3065578,-0.01,-0.03,1.34,-5.25,5.25,11.6,941.8,32.84
3065616,-0.0,-0.05,1.34,-5.68,6.1,11.54,941.75,32.82
3065654,-0.02,-0.04,1.36,-5.49,5.25,11.29,941.81,32.83
3065692,-0.02,-0.04,1.4,-5.25,6.16,11.35,941.73,32.83
3065730,0.01,-0.04,1.39,-5.0,6.23,11.47,941.76,32.82
3065768,-0.02,-0.04,1.34,-4.7,5.8,11.23,941.81,32.82
3065806,-0.01,-0.04,1.3,-4.7,5.37,11.47,941.82,32.84
3065845,0.0,-0.05,1.3,-4.76,4.94,11.47,941.78,32.84
3065883,-0.01,-0.04,1.21,-5.07,4.33,11.66,941.73,32.84
3065921,-0.02,-0.04,1.22,-4.88,4.39,11.54,941.7,32.83
3065997,-0.01,-0.05,1.22,-5.19,5.19,11.35,941.68,32.8
3066035,-0.02,-0.04,1.33,-4.7,4.52,11.54,941.74,32.83
3066073,0.01,-0.05,1.31,-5.0,6.47,11.54,941.71,32.82
3066163,-0.02,-0.04,1.3,-5.25,6.1,11.6,941.71,32.79
3066201,-0.01,-0.06,1.27,-5.13,6.65,11.17,941.63,32.81
3066239,-0.01,-0.04,1.22,-4.82,6.04,11.11,941.66,32.8
3066277,0.01,-0.03,1.24,-4.64,5.86,11.41,941.59,32.8
3066315,-0.02,-0.03,1.18,-4.76,4.39,11.47,941.61,32.81
3066353,-0.01,-0.03,1.23,-4.94,3.11,11.47,941.56,32.8
3066403,-0.0,-0.05,1.28,-5.0,3.3,11.54,941.58,32.8
3066441,0.01,-0.04,1.29,-5.19,3.36,11.54,941.59,32.81
3066479,0.01,-0.01,1.37,-5.07,2.93,11.54,941.61,32.81
3066518,-0.02,-0.02,1.34,-4.64,4.64,11.78,941.61,32.81
3066556,0.02,-0.02,1.36,-4.76,3.36,11.54,941.58,32.82
3066594,-0.04,-0.03,1.35,-4.21,4.27,11.35,941.63,32.82
3066632,-0.01,-0.04,1.28,-4.52,5.07,11.47,941.66,32.82
3066670,0.01,-0.01,1.38,-4.03,4.7,11.23,941.57,32.82
3066708,0.02,-0.02,1.28,-3.78,5.8,11.29,941.59,32.82
3066758,-0.01,-0.02,1.36,-3.36,4.21,11.47,941.52,32.81
3066796,-0.0,-0.03,1.3,-3.54,5.98,11.54,941.57,32.82
3066834,-0.01,-0.01,1.35,-3.05,3.85,11.66,941.51,32.82
3066872,-0.0,-0.03,1.32,-3.6,5.19,11.54,941.57,32.83
3066911,0.01,-0.02,1.32,-3.48,4.27,11.47,941.53,32.82
3066949,0.02,-0.02,1.33,-3.48,4.46,11.35,941.49,32.83
3066987,0.0,-0.03,1.25,-3.36,4.15,11.54,941.49,32.84
3067025,0.01,-0.03,1.29,-2.87,3.72,11.47,941.48,32.84
3067063,0.01,-0.04,1.23,-2.93,4.15,11.72,941.47,32.82
3067101,-0.02,-0.02,1.22,-2.99,2.2,11.47,941.45,32.83
3067151,0.01,-0.03,1.19,-3.23,3.97,11.23,941.49,32.83
3067189,0.03,-0.02,1.24,-2.99,2.69,11.17,941.45,32.82
3067227,0.01,-0.04,1.23,-3.11,3.17,11.05,941.37,32.82
3067266,-0.0,-0.03,1.26,-2.99,2.56,11.11,941.38,32.84
3067304,-0.0,-0.03,1.25,-2.69,3.23,11.11,941.44,32.84
3067342,0.02,-0.03,1.19,-3.05,3.85,11.05,941.45,32.82
3067380,0.0,-0.03,1.22,-2.2,2.56,10.93,941.4,32.83
3067418,0.01,-0.05,1.12,-2.69,3.3,10.8,941.4,32.83
3067456,0.01,-0.02,1.16,-2.08,2.5,10.74,941.36,32.83
3067506,-0.01,-0.05,1.1,-2.14,4.88,10.5,941.35,32.83
3067544,-0.0,-0.03,1.16,-1.83,3.17,10.19,941.37,32.83
3067583,-0.01,-0.04,1.18,-1.77,5.19,10.13,941.32,32.83
3067621,-0.0,-0.04,1.21,-1.46,4.58,10.19,941.34,32.82
3067659,-0.01,-0.04,1.24,-0.92,5.49,10.07,941.34,32.83
3067697,-0.01,-0.03,1.2,-0.37,5.74,10.13,941.39,32.83
3067735,-0.01,-0.03,1.23,0.37,5.62,10.25,941.37,32.83
3067773,-0.0,-0.04,1.13,0.55,7.02,10.31,941.3,32.81
3067811,-0.01,-0.04,1.14,1.28,6.23,9.89,941.28,32.83
3067850,-0.0,-0.05,1.07,1.34,8.24,10.07,941.27,32.82
3067899,-0.01,-0.04,1.07,1.83,7.75,9.83,941.26,32.81
3067938,-0.02,-0.06,1.0,1.89,9.03,10.01,941.27,32.83
3067976,-0.0,-0.06,0.98,1.59,8.61,9.89,941.22,32.82
3068014,0.01,-0.06,0.95,1.28,8.36,9.95,941.22,32.83
3068052,-0.0,-0.06,0.94,0.98,7.57,10.19,941.23,32.83
3068090,-0.01,-0.05,0.93,0.49,7.02,10.25,941.14,32.82
3068128,0.01,-0.04,0.99,0.37,7.39,10.01,941.13,32.82
3068166,0.0,-0.06,1.0,-0.67,7.57,10.19,941.17,32.83
3068204,-0.01,-0.05,1.11,-0.37,6.16,10.19,941.1,32.83
3068254,-0.02,-0.06,1.05,-1.22,7.75,10.44,941.17,32.81
3068292,-0.0,-0.05,1.13,-1.1,5.49,10.19,941.2,32.83
3068330,0.01,-0.07,1.06,-1.65,6.53,10.25,941.16,32.83
3068369,-0.01,-0.05,1.05,-1.95,4.76,10.31,941.11,32.81
3068407,-0.01,-0.05,1.07,-1.77,5.49,10.25,941.2,32.82
3068445,0.0,-0.05,1.07,-1.95,4.82,10.13,941.17,32.82
3068483,-0.01,-0.05,1.11,-1.95,4.15,10.19,941.17,32.82
3068521,-0.0,-0.05,1.1,-2.56,5.43,9.95,941.18,32.83
3068559,-0.01,-0.05,1.18,-2.14,4.7,9.89,941.16,32.82
3068597,-0.0,-0.06,1.12,-2.69,5.49,10.01,941.13,32.82
3068647,-0.02,-0.05,1.17,-2.32,4.64,9.95,941.15,32.81
3068685,-0.01,-0.06,1.12,-2.62,5.43,9.83,941.16,32.82
3068723,-0.0,-0.04,1.13,-2.69,3.85,9.89,941.17,32.81
3068762,-0.02,-0.05,1.16,-2.5,4.7,9.83,941.13,32.81
3068800,-0.02,-0.06,1.12,-2.44,5.13,9.95,941.16,32.83
3068838,-0.03,-0.05,1.2,-1.89,5.13,9.83,941.13,32.81
3068876,-0.01,-0.06,1.19,-2.2,6.23,10.01,941.12,32.81
3068914,-0.02,-0.05,1.22,-1.89,5.31,9.95,941.15,32.82
3068952,-0.04,-0.06,1.15,-2.26,6.77,10.19,941.03,32.82
3069028,-0.03,-0.05,1.13,-2.5,6.29,10.25,941.07,32.79
3069066,-0.02,-0.06,1.1,-3.36,6.65,10.31,941.11,32.82
3069104,-0.02,-0.05,1.17,-3.54,5.49,10.44,941.07,32.8
3069194,-0.02,-0.05,1.28,-4.58,4.46,10.44,941.03,32.77
3069232,-0.01,-0.05,1.3,-5.25,5.19,10.31,941.01,32.78
3069270,-0.02,-0.04,1.31,-5.49,4.39,10.8,941.05,32.8
3069308,-0.01,-0.04,1.33,-5.49,4.58,10.8,941.04,32.81
3069346,-0.01,-0.03,1.32,-5.86,4.58,10.62,941.04,32.8
3069384,-0.02,-0.02,1.37,-5.55,4.7,10.93,941.0,32.81
3069434,0.01,-0.04,1.38,-5.8,4.27,10.99,940.96,32.78
3069472,-0.02,-0.03,1.38,-5.43,3.91,10.86,941.06,32.8
3069510,-0.03,-0.03,1.4,-5.37,5.0,11.11,940.97,32.79
3069549,-0.01,-0.04,1.41,-4.88,4.27,10.8,940.96,32.8
3069587,-0.03,-0.04,1.34,-4.58,4.46,10.86,940.94,32.8
3069625,0.01,-0.03,1.38,-4.7,4.21,10.74,940.99,32.81
3069663,0.02,-0.04,1.35,-4.39,6.35,10.74,940.89,32.79
3069701,-0.03,-0.04,1.33,-3.72,4.94,10.56,940.92,32.8
3069739,-0.01,-0.04,1.31,-3.72,6.41,10.62,940.92,32.8
3069777,-0.01,-0.04,1.28,-4.15,6.35,10.44,940.93,32.81
3069827,0.01,-0.05,1.24,-3.97,8.0,10.19,940.87,32.78
3069865,-0.01,-0.05,1.19,-4.33,7.26,10.25,940.8,32.79
3069903,-0.01,-0.04,1.2,-4.21,7.26,10.19,940.84,32.8
3069941,0.02,-0.05,1.22,-4.46,8.12,10.13,940.8,32.79
3069980,-0.01,-0.04,1.23,-4.03,7.57,10.07,940.82,32.8
3070018,-0.03,-0.05,1.24,-4.09,7.87,10.13,940.79,32.8
3070056,0.0,-0.06,1.23,-3.97,9.4,10.01,940.78,32.81
3070094,-0.01,-0.05,1.2,-3.66,9.64,9.89,940.77,32.81
3070132,-0.01,-0.04,1.13,-3.36,11.35,10.07,940.74,32.8
3070182,-0.0,-0.05,1.09,-3.05,11.84,9.83,940.82,32.81
3070220,0.01,-0.06,1.0,-2.87,12.02,9.58,940.79,32.81
3070258,0.01,-0.05,1.07,-2.26,11.29,9.83,940.69,32.79
3070296,-0.01,-0.06,1.01,-2.5,12.51,9.7,940.75,32.8
3070334,-0.01,-0.05,1.08,-1.53,10.86,9.7,940.75,32.81
3070373,0.02,-0.05,1.12,-1.16,11.72,9.64,940.72,32.81
3070411,0.01,-0.05,1.11,-1.04,10.93,9.83,940.74,32.81
3070449,0.01,-0.05,1.17,-0.24,10.56,9.95,940.73,32.8
3070487,0.02,-0.05,1.16,-0.85,10.93,9.77,940.64,32.79
3070525,0.0,-0.04,1.22,-0.61,8.36,10.19,940.66,32.81
3070575,0.01,-0.05,1.18,-1.16,8.24,10.01,940.59,32.79
3070613,0.01,-0.05,1.26,-0.79,5.74,10.01,940.59,32.79
3070651,0.03,-0.05,1.2,-1.4,5.68,10.01,940.62,32.81
3070689,0.0,-0.04,1.21,-1.28,4.09,10.07,940.55,32.8
3070727,0.03,-0.04,1.16,-1.16,4.09,9.77,940.64,32.8
3070765,0.03,-0.05,1.18,-0.79,2.93,9.58,940.58,32.8
3070803,-0.0,-0.06,1.11,-1.04,3.3,9.52,940.59,32.8
3070841,0.02,-0.06,1.12,-0.92,3.48,9.34,940.55,32.81
3070880,0.02,-0.05,1.11,-0.55,3.78,9.09,940.53,32.81
3070929,0.0,-0.05,1.02,-0.43,4.15,8.85,940.55,32.8
3070967,0.01,-0.05,1.06,0.0,5.68,8.42,940.48,32.8
3071005,0.01,-0.06,1.04,-0.18,6.1,8.67,940.51,32.8
3071044,0.0,-0.06,1.02,0.06,5.92,8.48,940.42,32.8
3071082,0.02,-0.05,1.0,0.24,8.12,7.87,940.51,32.82
3071120,0.02,-0.06,1.02,0.85,8.24,7.63,940.45,32.81
3071158,0.01,-0.07,0.97,0.79,7.75,7.75,940.48,32.81
3071196,0.0,-0.05,1.01,1.16,6.96,7.69,940.4,32.81
3071234,0.02,-0.07,1.01,1.4,8.0,7.63,940.47,32.82
3071272,0.01,-0.06,0.98,1.22,7.32,7.51,940.42,32.81
3071322,-0.0,-0.06,0.94,1.34,7.26,7.57,940.35,32.81
3071360,0.03,-0.06,0.92,0.79,6.77,7.45,940.38,32.82
3071398,0.04,-0.05,1.01,0.85,5.74,7.32,940.33,32.82
3071436,0.02,-0.07,0.99,0.73,5.07,7.39,940.28,32.81
3071474,0.01,-0.07,1.02,0.92,4.52,7.08,940.26,32.82
3071512,0.02,-0.07,0.98,0.61,4.64,6.84,940.36,32.81
3071550,0.02,-0.07,1.0,0.43,3.6,6.71,940.28,32.82
3071588,0.02,-0.08,0.95,0.24,3.97,6.65,940.31,32.81
3071626,-0.01,-0.07,0.94,0.43,5.43,5.8,940.32,32.83
3071665,-0.03,-0.05,1.0,0.67,6.59,5.62,940.35,32.82
3071714,0.02,-0.06,0.97,0.98,8.06,5.37,940.26,32.8
3071752,-0.03,-0.07,0.96,0.98,8.85,5.31,940.26,32.82
3071791,0.0,-0.07,0.99,1.04,10.74,4.94,940.28,32.81
3071829,-0.01,-0.07,0.97,1.1,11.35,4.76,940.24,32.82
3071867,0.01,-0.06,0.9,0.79,11.05,4.76,940.27,32.82
3071905,0.0,-0.06,0.91,0.98,11.05,4.76,940.27,32.82
3071943,0.0,-0.07,0.86,0.37,11.84,4.76,940.23,32.83
3071981,-0.0,-0.06,0.94,0.73,10.25,4.88,940.29,32.82
3072019,-0.01,-0.08,0.89,0.0,10.86,4.82,940.25,32.82
3072095,0.0,-0.06,0.96,-0.55,8.79,4.7,940.28,32.79
3072133,0.0,-0.07,0.94,-0.85,7.51,4.76,940.23,32.8
3072171,0.0,-0.05,0.98,-0.85,6.65,4.52,940.28,32.81
3072260,-0.01,-0.05,1.04,-0.92,5.86,5.0,940.25,32.78
3072298,-0.01,-0.05,1.05,-0.79,5.74,5.13,940.25,32.79
3072336,-0.02,-0.06,1.04,-0.61,5.8,5.07,940.21,32.82
3072374,-0.01,-0.06,1.03,-0.43,5.43,5.13,940.27,32.8
3072412,-0.0,-0.06,1.02,-0.31,4.88,5.07,940.19,32.8
3072450,0.01,-0.04,1.07,-0.55,4.03,5.19,940.25,32.8
3072488,-0.03,-0.04,1.1,-0.43,3.48,5.49,940.22,32.82
3072538,-0.02,-0.05,1.15,-0.12,2.69,5.55,940.23,32.81
3072576,-0.01,-0.04,1.17,0.18,2.44,5.43,940.18,32.8
3072614,-0.03,-0.04,1.13,0.31,2.32,5.8,940.21,32.8
3072652,-0.01,-0.04,1.15,0.92,2.93,5.74,940.22,32.81
3072690,-0.02,-0.04,1.11,1.22,2.93,5.49,940.25,32.83
3072728,-0.03,-0.04,1.12,1.83,2.14,5.8,940.13,32.81
3072767,-0.04,-0.04,1.12,2.32,1.59,6.04,940.12,32.81
3072805,-0.03,-0.05,1.1,2.5,1.59,5.86,940.17,32.82
3072843,-0.02,-0.05,1.12,2.93,1.16,5.8,940.19,32.81
3072893,-0.03,-0.05,1.06,4.03,0.0,5.8,940.17,32.81
3072931,-0.03,-0.06,0.94,4.15,0.0,5.92,940.07,32.82
3072969,-0.02,-0.05,0.93,4.7,-1.22,6.04,939.96,32.81
3073007,-0.02,-0.07,0.87,4.82,-1.89,5.92,939.97,32.83
3073045,-0.03,-0.07,0.81,4.33,-4.03,6.1,939.93,32.82
3073083,-0.03,-0.08,0.85,4.76,-6.16,5.92,939.79,32.81
3073121,-0.02,-0.09,0.73,3.3,-6.9,5.92,939.81,32.82
3073159,-0.04,-0.06,0.78,3.3,-9.52,5.92,939.72,32.82
3073197,-0.05,-0.07,0.68,2.5,-8.61,5.8,939.74,32.83
3073236,-0.03,-0.08,0.69,2.44,-9.83,5.92,939.8,32.82
3073285,-0.03,-0.07,0.68,1.95,-10.56,5.8,939.77,32.82
3073323,-0.05,-0.08,0.64,1.95,-10.74,5.74,939.71,32.81
3073362,-0.03,-0.07,0.64,1.34,-11.29,5.86,939.72,32.81
3073400,-0.04,-0.09,0.69,0.85,-11.54,5.98,939.73,32.81
3073438,-0.03,-0.08,0.69,-0.18,-12.88,6.1,939.67,32.81
3073476,-0.05,-0.06,0.83,-0.61,-14.77,6.1,939.66,32.82
3073514,-0.03,-0.07,0.8,-1.95,-13.49,6.29,939.74,32.81
3073552,-0.02,-0.06,0.93,-2.38,-15.56,6.04,939.73,32.82
3073590,-0.03,-0.05,0.99,-3.3,-14.89,6.16,939.78,32.82
3073640,-0.07,-0.05,1.07,-3.6,-15.01,6.1,939.82,32.8
3073678,-0.07,-0.05,1.14,-3.72,-13.06,5.98,939.89,32.81
3073717,-0.09,-0.04,1.17,-3.11,-10.86,5.98,939.88,32.8
3073755,-0.05,-0.03,1.28,-2.5,-11.17,5.92,939.87,32.81
3073793,-0.09,-0.03,1.21,-2.93,-7.2,5.98,939.85,32.81
3073831,-0.08,-0.02,1.29,-1.77,-7.51,5.92,939.83,32.81
3073869,-0.06,-0.05,1.29,-2.44,-1.71,5.8,939.87,32.82
3073907,-0.1,-0.04,1.2,-2.08,-1.71,5.92,939.9,32.81
3073945,-0.12,-0.03,1.24,-0.98,1.22,6.29,939.89,32.81
3073995,-0.08,-0.06,1.09,-1.46,4.7,6.47,939.89,32.8
3074033,-0.09,-0.04,1.11,-1.34,4.39,6.77,939.88,32.82
3074071,-0.1,-0.06,1.01,-1.46,7.14,7.51,939.81,32.81
3074109,-0.1,-0.07,1.01,-1.53,6.96,8.06,939.85,32.82
3074147,-0.08,-0.06,1.03,-1.65,6.84,8.3,939.85,32.81
3074185,-0.1,-0.05,1.01,-2.2,7.75,9.03,939.93,32.82
3074224,-0.08,-0.07,1.03,-2.75,7.39,9.58,939.88,32.83
3074262,-0.02,-0.07,1.07,-3.85,7.69,9.4,939.88,32.82
3074300,-0.04,-0.04,1.09,-4.64,6.84,9.77,939.92,32.82
3074338,-0.04,-0.05,1.12,-4.7,5.62,10.38,939.94,32.81
3074388,-0.03,-0.05,1.15,-5.31,5.74,10.01,939.96,32.8
3074426,-0.04,-0.04,1.22,-5.74,3.91,10.31,939.93,32.81
3074464,-0.02,-0.05,1.23,-6.16,3.6,10.44,939.96,32.81
3074502,-0.02,-0.05,1.26,-6.23,2.81,10.13,939.95,32.82
3074540,-0.01,-0.05,1.27,-6.1,2.81,10.19,939.96,32.82
3074578,-0.01,-0.04,1.31,-6.16,2.69,10.07,939.96,32.81
3074617,-0.03,-0.04,1.3,-6.04,2.38,10.25,939.98,32.83
3074655,-0.02,-0.04,1.35,-5.8,1.89,10.07,939.94,32.82
3074693,-0.01,-0.03,1.4,-5.43,1.22,9.77,939.95,32.81
3074743,-0.03,-0.03,1.44,-4.64,0.98,9.83,939.97,32.79
3074781,-0.04,-0.03,1.44,-3.66,1.34,9.64,940.01,32.82
3074819,-0.02,-0.03,1.45,-2.69,0.98,9.7,940.02,32.81
3074857,-0.03,-0.04,1.39,-1.95,0.49,9.4,940.0,32.82
3074895,-0.02,-0.04,1.29,-1.53,1.1,9.22,940.0,32.81
3074933,-0.03,-0.05,1.24,-1.34,1.28,9.16,939.96,32.82
3074971,-0.04,-0.05,1.2,-1.71,0.67,9.03,939.94,32.81
3075010,-0.04,-0.04,1.18,-2.69,1.4,8.85,939.89,32.82
3075048,-0.05,-0.04,1.23,-3.23,2.5,8.73,939.84,32.83
3075086,-0.06,-0.05,1.21,-3.91,3.42,8.73,939.9,32.81
3075162,-0.06,-0.04,1.21,-4.76,5.37,8.85,939.84,32.78
3075200,-0.04,-0.04,1.21,-5.19,6.1,8.91,939.89,32.81
3075238,-0.05,-0.05,1.22,-5.49,5.98,9.03,939.8,32.8
3075327,-0.05,-0.04,1.24,-5.62,5.98,9.52,939.78,32.76
3075366,-0.04,-0.03,1.3,-5.8,5.37,9.58,939.81,32.79
3075404,-0.04,-0.03,1.32,-5.68,5.13,9.7,939.83,32.78
3075442,-0.04,-0.03,1.35,-5.49,4.82,10.01,939.81,32.79
3075480,-0.02,-0.04,1.37,-4.94,3.97,10.19,939.82,32.81
3075518,-0.03,-0.04,1.33,-4.52,4.09,10.25,939.82,32.81
3075568,-0.04,-0.03,1.31,-4.03,4.94,10.25,939.83,32.79
3075606,-0.04,-0.04,1.25,-4.09,5.74,10.31,939.74,32.8
3075644,-0.03,-0.04,1.24,-3.85,4.88,10.38,939.76,32.81
3075682,-0.03,-0.05,1.17,-4.58,5.31,10.31,939.78,32.81
3075720,-0.03,-0.03,1.18,-4.7,4.39,10.44,939.71,32.81
3075759,-0.03,-0.05,1.21,-4.76,5.74,10.31,939.74,32.81
3075797,-0.02,-0.05,1.17,-5.43,5.68,10.25,939.71,32.81
3075835,-0.04,-0.04,1.21,-5.13,5.19,10.38,939.77,32.83
3075873,-0.03,-0.06,1.15,-5.68,6.41,10.31,939.79,32.83
3075923,-0.03,-0.03,1.22,-5.43,5.0,10.01,939.78,32.82
3075961,-0.03,-0.04,1.18,-5.55,5.31,10.25,939.79,32.82
3075999,-0.03,-0.05,1.21,-5.31,4.7,10.25,939.83,32.83
3076037,-0.01,-0.05,1.21,-4.94,4.82,10.19,939.74,32.82
3076075,-0.03,-0.04,1.22,-3.97,4.33,10.01,939.8,32.81
3076113,-0.04,-0.04,1.17,-3.48,3.72,10.01,939.74,32.82
3076152,-0.03,-0.04,1.18,-3.23,3.42,10.19,939.76,32.81
3076190,-0.03,-0.06,1.14,-3.05,3.72,10.07,939.75,32.82
3076228,-0.03,-0.05,1.12,-2.62,3.78,10.07,939.78,32.82
3076266,-0.04,-0.05,1.1,-2.14,4.33,9.89,939.72,32.81
3076316,-0.05,-0.05,1.08,-1.65,4.39,10.07,939.69,32.82
3076354,-0.03,-0.06,1.06,-1.89,5.07,9.89,939.64,32.82
3076392,-0.05,-0.04,1.15,-1.65,5.49,9.77,939.66,32.81
3076430,-0.03,-0.06,1.12,-2.2,7.57,10.07,939.63,32.82
3076468,-0.04,-0.04,1.17,-1.46,6.23,10.07,939.59,32.81
3076506,-0.07,-0.02,1.21,-1.4,6.9,10.25,939.59,32.83
3076544,-0.06,-0.05,1.18,-1.59,8.54,10.5,939.6,32.83
3076583,-0.05,-0.02,1.28,-1.34,5.62,10.56,939.58,32.83
3076621,-0.07,-0.03,1.28,-1.71,6.96,11.23,939.56,32.83
3076670,-0.01,-0.04,1.21,-1.77,6.77,12.02,939.54,32.81
3076709,-0.01,-0.04,1.17,-1.22,6.59,11.72,939.56,32.83
3076747,-0.03,-0.05,1.08,-1.34,7.26,12.08,939.66,32.83
3076785,-0.01,-0.03,1.07,-1.22,4.82,12.51,939.59,32.82
3076823,-0.05,-0.07,1.03,-0.92,3.97,12.45,939.52,32.81
3076861,0.01,-0.08,0.99,-1.46,4.7,12.27,939.57,32.83
3076899,0.02,-0.07,1.01,-1.59,3.91,11.9,939.55,32.84
3076937,0.01,-0.06,1.04,-1.46,4.58,11.78,939.52,32.82
3076976,-0.02,-0.05,1.03,-2.08,4.64,11.9,939.55,32.82
3077014,-0.02,-0.05,1.08,-2.44,6.53,11.66,939.55,32.83
3077064,-0.04,-0.07,1.02,-3.78,5.68,11.54,939.57,32.82
3077102,-0.03,-0.05,1.0,-4.82,5.74,11.35,939.54,32.82
3077140,-0.02,-0.05,1.01,-5.92,5.25,11.29,939.53,32.81
3077178,0.01,-0.05,1.03,-6.77,5.07,11.54,939.51,32.82
3077216,-0.01,-0.05,1.07,-7.32,4.7,11.84,939.5,32.83
3077254,-0.03,-0.05,1.11,-7.45,4.52,11.96,939.55,32.84
3077293,-0.02,-0.05,1.19,-7.57,3.91,11.9,939.5,32.83
3077331,-0.02,-0.06,1.17,-8.12,4.33,11.66,939.5,32.82
3077369,-0.02,-0.04,1.18,-7.81,3.23,11.6,939.52,32.84
3077419,-0.01,-0.05,1.15,-7.87,3.05,11.84,939.53,32.82
3077457,-0.0,-0.04,1.2,-7.32,2.32,11.66,939.41,32.81
3077495,-0.0,-0.04,1.19,-7.63,3.72,11.72,939.45,32.82
3077533,-0.02,-0.03,1.31,-6.96,2.5,11.6,939.45,32.81
3077571,-0.02,-0.05,1.28,-6.65,4.27,11.41,939.41,32.82
3077609,0.01,-0.02,1.36,-6.35,2.93,10.8,939.42,32.82
3077648,0.01,-0.02,1.41,-6.16,2.87,10.74,939.42,32.82
3077686,-0.01,-0.02,1.36,-5.98,2.69,10.86,939.42,32.81
3077724,-0.01,-0.01,1.41,-5.31,2.14,10.56,939.42,32.82
3077774,-0.0,-0.02,1.39,-5.0,2.62,10.19,939.42,32.82
3077812,-0.02,-0.0,1.44,-4.21,1.28,10.13,939.41,32.81
3077850,-0.03,-0.01,1.42,-3.54,2.62,9.7,939.45,32.82
3077888,-0.03,-0.01,1.41,-2.44,3.05,9.64,939.43,32.81
3077926,-0.02,-0.02,1.38,-1.53,3.11,9.64,939.38,32.83
3077964,-0.02,-0.02,1.33,-1.16,3.6,9.58,939.43,32.82
3078002,-0.04,-0.02,1.24,-0.18,4.27,9.28,939.38,32.81
3078041,-0.03,-0.03,1.17,0.12,5.19,9.28,939.34,32.83
3078079,0.0,-0.04,1.15,0.67,6.04,9.03,939.31,32.81
3078117,-0.02,-0.05,1.09,0.67,6.53,9.09,939.3,32.83
3078266,-0.02,-0.05,0.94,0.24,6.16,8.97,939.27,32.77
3078304,-0.01,-0.05,0.96,0.18,6.35,8.91,939.26,32.77
3078342,-0.0,-0.05,0.98,-0.24,6.47,8.91,939.19,32.78
3078432,-0.01,-0.05,0.99,-0.79,6.59,8.79,939.21,32.76
3078471,-0.0,-0.06,1.02,-0.67,6.53,8.54,939.21,32.78
3078509,-0.01,-0.06,0.93,-1.46,7.87,8.67,939.25,32.78
3078547,-0.02,-0.02,1.03,-0.67,5.86,8.73,939.19,32.79
3078585,-0.01,-0.06,0.94,-1.71,8.06,8.79,939.23,32.78
3078623,-0.0,-0.04,0.98,-1.28,3.72,8.73,939.27,32.8
3078673,-0.01,-0.06,0.99,-1.4,4.7,9.16,939.25,32.78
3078711,0.0,-0.05,1.02,-1.04,3.3,8.97,939.29,32.78
3078749,-0.02,-0.04,1.04,-0.37,3.3,8.91,939.25,32.81
3078787,-0.06,-0.05,0.99,-0.24,2.56,8.97,939.24,32.8
3078825,-0.03,-0.02,1.02,-0.43,1.65,9.09,939.23,32.81
3078863,0.02,-0.02,1.11,-0.61,1.59,9.16,939.26,32.8
3078901,-0.01,-0.03,1.12,-0.85,0.67,9.16,939.17,32.8
3078939,-0.03,-0.04,1.13,-0.67,0.55,9.28,939.21,32.8
3078978,-0.01,-0.03,1.21,-0.79,2.14,8.73,939.15,32.8
3079016,-0.04,-0.01,1.24,-0.55,1.53,8.97,939.22,32.82
3079065,-0.05,0.0,1.23,-0.61,3.48,8.91,939.2,32.8
3079104,-0.04,-0.0,1.25,-0.18,3.85,8.85,939.11,32.8
3079142,-0.05,-0.01,1.21,-0.37,5.55,8.85,939.09,32.8
3079180,-0.02,0.0,1.28,0.18,5.98,9.09,939.14,32.81
3079218,-0.05,0.0,1.25,0.73,8.54,9.03,939.03,32.81
3079256,-0.04,0.01,1.24,1.4,9.89,8.97,939.11,32.81
3079294,-0.05,0.0,1.27,1.83,10.74,9.34,939.08,32.81
3079332,-0.03,-0.02,1.2,1.89,11.84,9.34,939.07,32.83
3079370,-0.04,-0.0,1.23,2.62,11.17,9.22,939.15,32.81
3079420,-0.03,-0.02,1.14,2.56,10.8,9.7,939.12,32.81
3079458,-0.04,-0.03,1.15,2.69,10.56,9.7,939.16,32.81
3079496,-0.07,-0.04,1.05,2.56,11.17,10.01,939.18,32.83
3079535,-0.06,-0.02,1.03,2.69,10.07,10.13,939.14,32.83
3079573,-0.05,-0.04,1.01,2.75,9.89,10.13,939.09,32.81
3079611,-0.05,-0.05,0.94,2.5,10.07,10.5,939.07,32.82
3079649,-0.06,-0.05,0.95,3.23,9.4,10.5,939.08,32.83
3079687,-0.05,-0.06,0.87,2.69,10.68,10.99,939.07,32.82
3079725,-0.05,-0.04,0.84,2.56,9.28,11.23,939.06,32.82
3079763,-0.07,-0.04,0.85,2.62,8.97,11.41,939.08,32.83
3079813,-0.05,-0.07,0.81,2.26,9.46,11.72,939.1,32.8
3079851,-0.04,-0.06,0.83,2.08,8.18,11.78,939.13,32.82
3079890,-0.04,-0.05,0.82,1.77,7.57,12.15,939.08,32.81
3079928,-0.03,-0.06,0.8,1.4,8.12,12.33,939.12,32.82
3079966,-0.03,-0.06,0.81,1.4,7.45,12.45,939.13,32.82
3080004,-0.05,-0.06,0.81,1.1,6.35,12.63,939.09,32.83
3080042,-0.04,-0.06,0.83,1.04,6.04,12.7,939.11,32.81
3080080,-0.02,-0.05,0.86,1.1,5.68,12.88,939.13,32.82
3080118,-0.02,-0.05,0.89,1.4,4.64,13.0,939.19,32.83
3080168,-0.02,-0.06,0.89,1.77,3.72,13.24,939.17,32.81
3080206,-0.03,-0.05,0.89,1.65,4.21,13.06,939.09,32.82
3080245,-0.03,-0.05,0.89,1.34,5.25,13.18,939.09,32.81
3080283,-0.01,-0.06,0.89,0.79,4.94,13.12,939.08,32.81
3080321,-0.02,-0.05,0.93,0.06,4.15,13.12,939.07,32.82
3080359,-0.02,-0.07,0.93,-0.67,5.37,12.82,939.1,32.82
3080397,0.01,-0.06,0.93,-1.16,6.77,12.82,939.03,32.81
3080435,-0.01,-0.05,0.95,-1.4,5.86,12.94,939.06,32.82
3080473,-0.01,-0.06,0.92,-2.32,5.49,13.0,939.1,32.82
3080511,-0.01,-0.05,0.95,-2.56,5.43,12.76,939.1,32.83
3080561,0.01,-0.06,0.95,-2.99,5.55,12.51,939.1,32.81
3080599,0.01,-0.04,0.97,-2.93,3.78,12.82,939.04,32.82
3080637,0.0,-0.05,1.0,-2.5,4.58,12.63,939.05,32.82
3080676,0.0,-0.06,0.96,-2.69,5.8,12.33,939.07,32.81
3080714,0.01,-0.04,1.03,-2.5,3.36,12.15,939.1,32.83
3080752,0.02,-0.07,1.01,-2.81,3.91,12.33,939.04,32.81
3080790,0.03,-0.06,0.97,-3.11,2.14,12.15,939.07,32.81
3080828,0.02,-0.04,1.05,-2.56,2.08,11.84,939.01,32.81
3080866,0.03,-0.06,0.99,-2.75,2.5,11.54,939.07,32.82
3080916,0.03,-0.04,1.1,-2.87,1.89,11.11,938.99,32.81
3080954,0.03,-0.05,1.12,-3.11,2.69,11.17,938.96,32.8
3080992,0.03,-0.04,1.18,-3.23,2.5,10.5,939.05,32.81
3081030,0.02,-0.04,1.18,-2.75,2.81,10.31,939.06,32.82
3081068,0.04,-0.04,1.17,-2.81,3.78,10.07,939.06,32.81
3081106,0.02,-0.05,1.13,-2.44,4.82,9.7,939.04,32.82
3081144,0.01,-0.05,1.07,-2.14,6.1,9.4,939.0,32.82
3081182,0.02,-0.05,1.05,-1.65,7.26,9.16,939.0,32.81
3081221,0.02,-0.05,1.01,-1.59,7.63,8.79,939.03,32.82
3081259,0.02,-0.05,1.04,-1.28,8.42,8.67,938.98,32.82
3081334,0.03,-0.05,1.04,-0.85,9.34,7.87,939.02,32.8
3081372,0.02,-0.04,1.05,-0.79,9.58,7.87,938.99,32.8
3081410,0.01,-0.04,1.07,-0.92,9.77,7.75,939.07,32.82
3081500,0.02,-0.03,1.16,-1.34,8.24,7.26,939.02,32.77
3081538,0.01,-0.03,1.23,-1.28,7.02,7.02,939.05,32.81
3081576,0.02,-0.03,1.27,-1.46,6.71,7.08,939.01,32.79
3081614,0.02,-0.02,1.27,-1.65,5.86,7.02,939.08,32.8
3081653,0.01,-0.02,1.27,-1.53,5.37,7.02,939.03,32.8
3081691,0.01,-0.03,1.25,-1.71,5.43,6.65,939.07,32.81
3081740,0.01,-0.03,1.27,-1.4,4.52,6.65,939.16,32.8
3081779,0.01,-0.04,1.23,-1.22,4.21,6.71,939.1,32.8
3081817,0.01,-0.04,1.21,-0.61,2.56,6.47,939.09,32.8
3081855,-0.01,-0.04,1.18,-0.31,2.38,6.35,939.13,32.8
3081893,0.01,-0.05,1.15,0.31,2.2,6.29,939.13,32.81
3081931,0.02,-0.06,1.09,0.0,3.05,5.8,939.12,32.82
3081969,0.02,-0.05,1.08,0.18,2.75,5.74,939.14,32.83
3082007,0.0,-0.05,1.06,0.37,3.6,5.55,939.1,32.82
3082045,0.02,-0.05,1.04,0.18,3.78,5.43,939.11,32.84
3082083,0.0,-0.05,1.09,0.85,3.48,5.07,939.11,32.81
3082133,0.0,-0.06,1.07,0.61,3.72,4.94,939.09,32.8
3082171,0.0,-0.05,1.09,0.67,2.93,4.88,939.09,32.8
3082209,-0.0,-0.05,1.06,0.67,3.11,4.7,939.14,32.83
3082247,0.0,-0.05,1.06,0.79,2.5,4.7,939.14,32.81
3082286,-0.0,-0.06,1.02,0.37,3.54,4.39,939.11,32.81
3082324,-0.01,-0.05,1.02,0.55,3.3,4.15,939.12,32.82
3082362,0.0,-0.06,1.02,0.73,3.42,4.15,939.11,32.83
3082400,-0.0,-0.06,1.03,0.67,2.56,4.03,939.06,32.81
3082438,-0.01,-0.05,1.04,0.92,1.04,3.97,939.1,32.82
3082476,-0.02,-0.06,1.01,0.55,-0.43,4.03,939.03,32.82
3082526,-0.03,-0.07,1.01,0.49,-2.69,4.09,939.0,32.81
3082564,-0.03,-0.06,1.0,0.0,-4.46,4.03,938.92,32.81
3082602,-0.02,-0.06,0.99,-0.18,-6.29,4.03,938.99,32.82
3082640,-0.03,-0.07,0.99,-0.24,-7.39,4.09,938.98,32.82
3082678,-0.05,-0.07,0.94,-0.49,-7.75,4.09,938.92,32.82
3082716,-0.05,-0.06,0.97,-0.12,-8.18,4.03,939.01,32.82
3082754,-0.06,-0.06,0.95,-0.43,-8.18,4.09,939.08,32.83
3082792,-0.06,-0.06,0.95,-0.37,-8.0,4.09,939.03,32.82
3082830,-0.07,-0.05,0.93,-0.43,-6.53,4.09,939.09,32.83
3082880,-0.06,-0.06,0.96,-0.43,-5.86,4.15,939.06,32.8
3082918,-0.04,-0.06,0.96,-0.85,-5.0,4.09,939.11,32.81
3082956,-0.05,-0.06,0.95,-0.85,-4.03,4.15,939.1,32.82
3082994,-0.06,-0.06,0.94,-0.98,-2.69,4.21,939.12,32.82
3083032,-0.05,-0.06,0.94,-0.85,-3.36,4.27,939.08,32.81
3083071,-0.06,-0.05,0.94,-0.98,-2.93,4.46,939.07,32.81
3083109,-0.05,-0.06,0.92,-1.4,-1.95,4.64,939.15,32.82
3083147,-0.04,-0.05,0.96,-1.53,-2.44,4.64,939.14,32.84
3083185,-0.06,-0.06,0.94,-1.46,-2.5,4.76,939.09,32.83
3083223,-0.05,-0.05,0.95,-2.26,-2.32,5.07,939.04,32.82
3083273,-0.04,-0.05,0.99,-2.99,-2.14,5.19,939.03,32.79
3083311,-0.06,-0.05,1.0,-3.6,-2.56,5.49,939.14,32.82
3083349,-0.07,-0.06,1.0,-3.66,-2.5,5.55,939.23,32.83
3083387,-0.05,-0.06,1.03,-3.6,-2.99,5.8,939.17,32.82
3083425,-0.05,-0.05,1.05,-3.54,-2.93,5.98,939.2,32.82
3083463,-0.06,-0.05,0.99,-3.85,-2.32,6.41,939.26,32.83
3083501,-0.06,-0.04,1.01,-3.17,-2.5,6.53,939.2,32.82
3083540,-0.07,-0.04,1.01,-3.05,-1.89,6.77,939.13,32.83
3083578,-0.08,-0.05,1.03,-2.38,-1.65,6.96,939.23,32.83
3083627,-0.05,-0.05,1.07,-2.01,-1.4,7.14,939.21,32.82
3083665,-0.06,-0.06,1.0,-2.14,0.0,7.45,939.17,32.82
3083703,-0.07,-0.04,1.01,-2.14,-0.18,7.87,939.16,32.81
3083742,-0.06,-0.05,1.02,-3.05,0.37,8.36,939.13,32.81
3083780,-0.08,-0.04,1.01,-4.15,0.92,8.3,939.18,32.83
3083818,-0.08,-0.04,1.05,-4.76,0.85,8.61,939.22,32.84
3083856,-0.06,-0.04,1.09,-5.43,1.65,8.91,939.21,32.83
3083894,-0.06,-0.04,1.11,-5.68,2.14,9.16,939.17,32.83
3083932,-0.05,-0.03,1.14,-5.98,1.59,9.34,939.17,32.83
3083982,-0.07,-0.04,1.16,-6.23,2.62,9.7,939.19,32.82
3084020,-0.07,-0.04,1.17,-6.59,2.32,9.95,939.19,32.83
3084059,-0.06,-0.02,1.26,-6.65,1.28,10.31,939.17,32.81
3084097,-0.07,-0.02,1.24,-6.77,1.77,10.5,939.18,32.83
3084135,-0.06,-0.02,1.31,-6.1,0.18,10.8,939.21,32.82
3084173,-0.04,-0.02,1.32,-5.68,0.67,10.99,939.27,32.82
3084211,-0.06,-0.02,1.27,-5.07,-0.55,11.17,939.16,32.81
3084249,-0.07,-0.02,1.29,-4.15,-1.16,11.35,939.26,32.82
3084287,-0.05,-0.03,1.24,-3.78,-1.77,11.29,939.3,32.82
3084325,-0.06,-0.03,1.23,-3.17,-2.81,11.54,939.22,32.82
3084401,-0.05,-0.04,1.19,-2.99,-2.14,11.23,939.27,32.8
3084439,-0.05,-0.03,1.17,-3.05,-1.4,11.17,939.32,32.82
3084477,-0.05,-0.03,1.17,-3.6,-1.22,11.29,939.24,32.81
3084567,-0.06,-0.03,1.17,-4.58,-2.01,11.17,939.28,32.78
3084605,-0.06,-0.03,1.21,-4.82,-2.56,11.35,939.26,32.8
3084643,-0.04,-0.03,1.21,-5.25,-2.26,11.41,939.24,32.8
3084681,-0.05,-0.02,1.26,-5.37,-2.81,11.23,939.28,32.81
3084719,-0.05,-0.03,1.25,-5.31,-2.01,11.41,939.26,32.81
3084757,-0.04,-0.03,1.27,-5.55,-2.44,11.41,939.23,32.81
3084807,-0.06,-0.03,1.27,-5.43,-3.17,11.6,939.24,32.8
3084845,-0.05,-0.02,1.27,-5.49,-3.72,11.41,939.3,32.8
3084884,-0.04,-0.02,1.27,-5.31,-2.99,11.47,939.33,32.81
3084922,-0.04,-0.02,1.27,-5.07,-3.36,11.29,939.25,32.79
3084960,-0.05,-0.02,1.29,-4.88,-4.03,11.23,939.28,32.8
3084998,-0.05,-0.03,1.27,-5.07,-2.93,11.11,939.32,32.81
3085036,-0.05,-0.03,1.28,-5.0,-2.87,11.05,939.3,32.81
3085074,-0.06,-0.04,1.26,-5.07,-2.38,11.11,939.3,32.81
3085112,-0.06,-0.04,1.22,-5.13,-2.32,10.99,939.36,32.82
3085162,-0.05,-0.04,1.21,-4.94,-1.59,10.93,939.4,32.8
3085200,-0.03,-0.04,1.17,-5.07,-0.98,10.8,939.36,32.8
3085238,-0.05,-0.04,1.18,-5.0,-1.34,10.93,939.36,32.81
3085276,-0.05,-0.04,1.18,-5.31,-0.79,10.74,939.34,32.81
3085314,-0.05,-0.04,1.19,-5.31,-0.18,10.68,939.32,32.8
3085353,-0.04,-0.05,1.17,-5.8,-0.12,10.8,939.3,32.81
3085391,-0.04,-0.05,1.17,-5.8,-0.12,10.62,939.37,32.81
3085429,-0.04,-0.06,1.14,-6.04,0.49,10.68,939.4,32.81
3085467,-0.04,-0.04,1.14,-6.29,0.24,10.86,939.43,32.83
3085517,-0.04,-0.06,1.14,-6.35,1.28,10.68,939.42,32.8
3085555,-0.06,-0.04,1.19,-6.35,0.98,10.93,939.41,32.82
3085593,-0.07,-0.04,1.24,-6.29,2.62,11.11,939.36,32.81
3085631,-0.07,-0.03,1.24,-6.77,4.09,11.05,939.41,32.8
3085669,-0.05,-0.02,1.32,-6.59,4.64,10.86,939.39,32.81
3085707,-0.05,-0.03,1.35,-6.96,6.1,10.93,939.38,32.81
3085745,-0.04,-0.02,1.42,-6.84,5.92,11.29,939.44,32.81
3085784,-0.05,-0.0,1.46,-6.65,6.41,11.11,939.37,32.83
3085822,-0.04,-0.02,1.47,-6.84,6.16,11.54,939.4,32.82
3085871,-0.02,-0.03,1.45,-7.08,5.0,11.72,939.45,32.81
3085910,-0.06,-0.03,1.44,-6.65,5.13,11.84,939.54,32.81
3085948,-0.03,-0.05,1.3,-6.53,6.1,11.9,939.58,32.83
3085986,-0.02,-0.05,1.31,-5.86,4.94,11.6,939.48,32.81
3086024,-0.02,-0.06,1.17,-6.04,6.96,11.78,939.51,32.82
3086062,-0.02,-0.03,1.22,-5.68,4.88,11.72,939.49,32.83
3086100,-0.03,-0.04,1.24,-5.86,5.8,11.66,939.49,32.81
3086138,-0.01,-0.05,1.24,-6.41,4.03,11.66,939.47,32.82
3086176,-0.01,-0.02,1.38,-6.84,2.08,11.9,939.48,32.82
3086214,-0.05,-0.05,1.33,-7.39,3.91,11.78,939.49,32.82
3086264,0.0,-0.02,1.39,-7.75,2.44,11.66,939.52,32.8
3086302,-0.05,-0.04,1.3,-8.42,2.99,11.84,939.47,32.81
3086340,-0.03,-0.03,1.33,-8.36,1.77,11.84,939.47,32.81
3086378,-0.02,-0.03,1.35,-8.61,1.77,11.54,939.53,32.83
3086417,-0.01,-0.01,1.39,-8.67,-0.06,11.72,939.5,32.82
3086455,-0.03,-0.0,1.45,-8.54,-0.61,11.66,939.53,32.82
3086493,-0.02,-0.02,1.48,-8.48,0.37,11.17,939.53,32.81
3086531,-0.03,-0.01,1.57,-8.3,-0.37,11.17,939.54,32.82
3086569,-0.02,-0.01,1.58,-8.12,0.55,11.17,939.55,32.83
3086619,-0.03,0.01,1.57,-7.45,0.18,10.93,939.43,32.8
3086657,-0.03,0.01,1.55,-7.45,0.98,10.74,939.54,32.82
3086695,-0.0,0.01,1.55,-7.57,0.37,10.74,939.51,32.81
3086733,-0.02,0.01,1.55,-6.96,0.18,10.5,939.52,32.81
3086771,-0.02,-0.0,1.51,-6.9,0.06,10.8,939.49,32.81
3086809,-0.03,-0.01,1.54,-6.23,-0.31,10.56,939.56,32.83
3086847,-0.04,-0.02,1.49,-5.98,0.37,10.38,939.59,32.82
3086886,-0.03,-0.02,1.44,-5.74,0.0,10.38,939.55,32.83
3086924,-0.03,-0.02,1.37,-5.49,1.28,10.31,939.63,32.82
3086973,-0.03,-0.03,1.29,-4.76,2.26,10.13,939.65,32.82
3087011,-0.04,-0.03,1.26,-4.21,3.17,10.07,939.63,32.82
3087050,-0.04,-0.04,1.24,-4.21,4.39,10.19,939.53,32.8
3087088,-0.05,-0.04,1.23,-3.91,5.43,10.07,939.54,32.82
3087126,-0.06,-0.06,1.21,-4.21,7.08,10.25,939.54,32.82
3087164,-0.06,-0.05,1.21,-4.82,7.87,10.38,939.57,32.83
3087202,-0.05,-0.05,1.26,-4.82,8.36,10.38,939.58,32.82
3087240,-0.04,-0.05,1.22,-5.55,10.25,10.68,939.56,32.83
3087278,-0.04,-0.03,1.23,-5.49,10.68,10.8,939.6,32.83
3087317,-0.05,-0.05,1.24,-5.55,11.23,11.05,939.59,32.82
3087392,-0.04,-0.04,1.27,-5.55,10.86,11.35,939.62,32.79
3087430,-0.07,-0.05,1.25,-5.98,9.52,12.02,939.65,32.82
3087469,-0.02,-0.03,1.29,-6.23,8.36,11.9,939.59,32.82
3087558,-0.06,-0.03,1.38,-6.53,6.41,13.0,939.63,32.78
3087596,-0.04,-0.03,1.4,-6.96,7.14,12.88,939.65,32.8
3087634,-0.04,-0.02,1.4,-7.08,7.81,13.06,939.66,32.8
3087672,-0.04,0.0,1.45,-7.08,6.1,13.43,939.62,32.8
3087710,-0.02,-0.01,1.51,-6.96,5.98,13.61,939.59,32.81
3087749,-0.03,-0.01,1.45,-7.26,6.71,13.67,939.62,32.81
3087798,-0.03,0.0,1.57,-6.9,4.88,14.22,939.66,32.81
3087836,-0.03,-0.01,1.53,-7.32,4.33,14.28,939.58,32.81
3087875,-0.06,0.01,1.54,-6.84,3.54,14.28,939.63,32.81
3087913,-0.03,0.0,1.5,-6.65,2.87,14.53,939.61,32.81
3087951,-0.03,-0.03,1.46,-6.47,1.71,15.01,939.66,32.82
3087989,-0.03,-0.04,1.23,-7.14,2.08,14.95,939.74,32.81
3088027,-0.03,-0.04,1.18,-5.92,1.71,14.83,939.77,32.81
3088065,-0.0,-0.07,1.05,-5.62,2.26,14.83,939.66,32.83
3088103,-0.03,-0.05,0.9,-5.98,0.18,14.95,939.77,32.82
3088153,-0.03,-0.08,0.9,-4.88,-0.37,14.89,939.72,32.81
3088191,-0.02,-0.07,0.85,-5.8,-1.59,15.01,939.72,32.82
3088229,-0.02,-0.06,0.94,-5.62,-2.2,15.44,939.62,32.81
3088267,-0.04,-0.07,0.82,-7.14,-0.18,15.44,939.72,32.82
3088306,-0.03,-0.06,0.9,-6.59,-0.37,15.08,939.71,32.81
3088344,-0.02,-0.07,0.86,-7.39,2.26,15.14,939.72,32.81
3088382,-0.01,-0.05,0.91,-7.14,2.14,15.08,939.71,32.81
3088420,-0.01,-0.05,1.01,-6.77,3.85,14.95,939.71,32.81
3088458,-0.01,-0.05,1.06,-6.35,3.91,14.77,939.8,32.83
3088508,-0.02,-0.04,1.19,-4.94,4.27,14.77,939.84,32.81
3088546,-0.01,-0.04,1.22,-3.85,5.43,14.34,939.84,32.82
3088584,-0.01,-0.03,1.22,-2.44,6.16,14.16,939.78,32.82
3088622,-0.0,-0.02,1.24,-1.4,5.68,14.28,939.78,32.82
3088660,-0.0,-0.04,1.13,-0.92,7.51,14.16,939.78,32.81
3088699,0.0,-0.05,1.11,-0.37,8.42,13.98,939.8,32.82
3088737,-0.01,-0.06,1.03,0.18,9.64,13.92,939.82,32.82
3088775,0.0,-0.05,1.01,0.67,8.0,13.85,939.79,32.82
3088813,0.02,-0.05,0.99,0.24,7.69,13.49,939.84,32.83
3088851,0.01,-0.05,0.96,0.12,7.87,13.73,939.77,32.81
3088901,0.0,-0.06,0.98,-0.43,6.53,13.79,939.83,32.8
3088939,0.0,-0.06,0.97,-1.65,6.16,13.37,939.83,32.81
3088977,-0.02,-0.05,1.04,-2.01,4.7,13.49,939.85,32.83
3089015,0.01,-0.06,1.04,-3.36,5.43,13.12,939.8,32.82
3089053,0.02,-0.05,1.12,-3.66,4.09,12.94,939.88,32.83
3089092,-0.01,-0.04,1.12,-4.52,5.37,12.88,939.81,32.82
3089130,-0.0,-0.03,1.23,-5.31,4.46,12.63,939.8,32.83
3089168,0.01,-0.01,1.38,-5.86,5.37,12.45,939.86,32.83
3089206,-0.03,0.02,1.45,-7.08,5.31,12.27,939.84,32.82
3089256,0.02,0.03,1.64,-7.26,4.88,12.57,939.86,32.81
3089294,-0.02,0.01,1.65,-7.75,5.13,12.33,939.91,32.81
3089332,-0.02,0.01,1.65,-7.32,6.84,11.96,939.87,32.81
3089370,-0.01,0.01,1.61,-6.96,8.91,11.9,939.91,32.82
3089408,0.0,0.02,1.57,-6.16,8.24,11.72,939.95,32.82
3089446,0.01,0.0,1.52,-5.86,8.36,11.23,939.93,32.83
3089484,-0.01,-0.01,1.46,-5.62,8.48,11.35,939.96,32.83
3089523,0.02,-0.02,1.51,-5.13,9.4,11.23,939.96,32.83
3089561,0.02,-0.03,1.45,-5.19,9.22,10.62,940.02,32.82
3089599,-0.02,-0.0,1.51,-4.39,6.96,10.74,940.04,32.84
3089649,0.02,-0.03,1.5,-4.82,8.06,10.8,940.05,32.83
3089687,0.02,-0.03,1.48,-4.94,7.32,10.31,940.05,32.83
3089725,-0.01,-0.03,1.46,-5.13,7.51,10.25,940.08,32.83
3089763,0.02,-0.05,1.4,-5.25,7.93,9.89,940.14,32.82
3089801,0.01,-0.04,1.33,-5.49,7.02,9.64,940.15,32.83
3089839,-0.02,-0.04,1.34,-5.13,6.1,9.64,940.18,32.83
3089877,-0.01,-0.06,1.26,-5.62,7.2,9.52,940.21,32.83
3089915,0.03,-0.05,1.3,-5.55,4.76,9.09,940.18,32.83
3089954,-0.01,-0.05,1.32,-5.62,3.72,9.22,940.2,32.82
3090003,-0.03,-0.06,1.33,-5.55,2.44,9.28,940.13,32.8
3090041,-0.01,-0.06,1.26,-6.1,2.69,8.85,940.12,32.83
3090080,-0.02,-0.03,1.38,-6.04,1.04,8.91,940.1,32.81
3090118,-0.01,-0.05,1.33,-6.9,1.95,9.28,940.1,32.83
3090156,-0.03,-0.03,1.4,-6.41,-0.24,8.67,940.11,32.83
3090194,-0.0,-0.05,1.45,-5.74,1.16,8.48,940.12,32.83
3090232,0.04,-0.05,1.37,-6.04,2.2,8.24,940.23,32.84
3090270,-0.02,-0.02,1.48,-4.7,-0.24,8.18,940.26,32.83
3090308,-0.02,-0.06,1.37,-4.88,2.5,8.0,940.22,32.83
3090346,-0.01,-0.04,1.42,-3.97,1.95,7.57,940.29,32.84
3090422,0.01,-0.05,1.35,-3.6,0.61,7.2,940.22,32.8
3090460,-0.02,-0.04,1.37,-3.05,-0.06,6.9,940.25,32.82
3090498,0.0,-0.06,1.26,-3.97,1.22,7.14,940.22,32.82
3090588,-0.03,-0.06,1.21,-3.66,1.1,6.47,940.28,32.77
3090626,-0.01,-0.05,1.28,-3.3,-0.85,6.16,940.34,32.8
3090664,-0.02,-0.05,1.21,-3.85,0.31,6.04,940.38,32.81
3090702,-0.02,-0.06,1.24,-3.72,-0.49,5.62,940.3,32.81
3090740,-0.03,-0.06,1.23,-3.91,1.34,5.49,940.31,32.81
3090779,-0.02,-0.05,1.23,-3.66,1.53,5.55,940.3,32.8
3090828,-0.05,-0.05,1.2,-3.85,2.99,5.37,940.34,32.8
3090866,-0.04,-0.06,1.18,-4.03,4.39,5.25,940.31,32.81
3090905,-0.04,-0.06,1.2,-3.91,5.07,5.19,940.34,32.81
3090943,-0.05,-0.06,1.17,-4.33,5.92,5.19,940.38,32.81
3090981,-0.04,-0.05,1.17,-4.46,5.98,5.62,940.42,32.83
3091019,-0.04,-0.05,1.18,-5.0,7.08,5.68,940.41,32.81
3091057,-0.06,-0.05,1.19,-5.07,6.1,5.86,940.38,32.82
3091095,-0.06,-0.05,1.24,-5.07,6.35,6.1,940.39,32.81
3091133,-0.05,-0.05,1.26,-5.31,6.41,6.23,940.41,32.81
3091171,-0.06,-0.04,1.29,-5.13,5.62,6.59,940.34,32.8
3091221,-0.06,-0.04,1.32,-4.46,4.76,6.9,940.43,32.82
3091259,-0.07,-0.04,1.29,-3.85,4.7,7.14,940.42,32.81
3091297,-0.04,-0.04,1.32,-3.17,4.09,7.57,940.45,32.81
3091335,-0.05,-0.06,1.27,-2.5,4.88,7.69,940.52,32.82
3091374,-0.05,-0.06,1.15,-1.46,5.43,7.87,940.54,32.82
3091412,-0.07,-0.05,1.16,-0.31,4.76,8.12,940.55,32.81
3091450,-0.06,-0.07,1.05,-0.18,5.68,8.24,940.52,32.81
3091488,-0.04,-0.06,1.03,-0.49,4.09,8.54,940.5,32.83
3091526,-0.06,-0.06,0.97,0.0,4.88,8.67,940.58,32.83
3091576,-0.04,-0.07,0.96,-0.55,5.13,8.79,940.5,32.8
3091614,-0.07,-0.07,0.97,-0.61,5.92,9.22,940.5,32.81
3091652,-0.06,-0.08,0.95,-1.22,6.29,9.46,940.51,32.83
3091690,-0.04,-0.07,0.97,-1.59,6.41,9.64,940.51,32.82
3091728,-0.04,-0.07,0.94,-2.26,6.77,9.7,940.5,32.81
3091766,-0.06,-0.07,0.97,-2.32,6.1,9.95,940.56,32.82
3091804,-0.04,-0.07,0.96,-2.93,5.74,10.31,940.58,32.82
3091842,-0.05,-0.07,0.96,-3.42,5.43,10.38,940.56,32.83
3091881,-0.06,-0.07,1.0,-3.78,5.62,10.62,940.61,32.83
3091919,-0.03,-0.07,1.04,-4.21,5.37,10.86,940.64,32.83
3091969,-0.05,-0.06,1.08,-4.64,5.19,10.8,940.58,32.81
3092007,-0.05,-0.06,1.12,-4.7,5.37,11.11,940.65,32.82
3092045,-0.04,-0.06,1.15,-4.64,5.62,10.99,940.58,32.8
3092083,-0.04,-0.06,1.14,-5.0,5.98,11.23,940.63,32.81
3092121,-0.02,-0.05,1.22,-4.76,4.52,11.29,940.62,32.82
3092159,-0.03,-0.07,1.12,-5.49,6.9,11.41,940.69,32.82
3092197,-0.05,-0.05,1.21,-4.7,4.94,11.41,940.66,32.82
3092235,-0.03,-0.06,1.2,-5.37,6.41,11.6,940.68,32.82
3092274,-0.05,-0.06,1.2,-5.31,5.25,11.66,940.66,32.83
3092323,-0.03,-0.06,1.2,-5.13,6.77,11.6,940.67,32.81
3092361,-0.04,-0.05,1.26,-5.0,6.35,11.66,940.73,32.82
3092400,-0.04,-0.07,1.19,-5.25,6.96,12.08,940.71,32.82
3092438,-0.04,-0.05,1.23,-5.13,5.13,12.02,940.71,32.81
3092476,-0.04,-0.05,1.22,-5.43,6.41,12.21,940.7,32.83
3092514,-0.03,-0.06,1.17,-5.74,6.35,12.08,940.69,32.82
3092552,-0.02,-0.05,1.2,-5.8,5.49,12.21,940.69,32.81
3092590,-0.04,-0.07,1.15,-5.86,5.74,12.33,940.73,32.82
3092628,-0.04,-0.07,1.2,-5.62,5.07,12.27,940.74,32.82
3092678,0.0,-0.06,1.2,-5.98,6.29,12.08,940.75,32.81
3092716,-0.03,-0.05,1.23,-5.55,4.76,12.08,940.81,32.82
3092754,-0.04,-0.07,1.16,-6.04,6.77,12.51,940.77,32.81
3092792,-0.01,-0.06,1.23,-5.68,6.53,11.9,940.8,32.82
3092831,-0.0,-0.06,1.24,-5.55,6.65,12.02,940.78,32.82
3092869,-0.04,-0.07,1.17,-5.49,5.8,12.08,940.79,32.81
3092907,-0.04,-0.08,1.14,-5.25,7.81,12.21,940.85,32.83
3092945,0.0,-0.06,1.13,-5.62,8.48,12.21,940.77,32.83
3092983,0.0,-0.06,1.22,-5.37,5.74,12.08,940.83,32.83
3093021,-0.01,-0.05,1.22,-6.23,6.23,12.33,940.76,32.82
3093071,0.01,-0.05,1.38,-5.98,3.6,12.7,940.79,32.82
3093109,0.0,-0.06,1.39,-6.29,2.32,12.82,940.86,32.81
3093147,-0.03,-0.05,1.45,-6.04,0.67,12.82,940.85,32.81
3093185,-0.03,-0.04,1.41,-6.65,1.77,12.7,940.8,32.81
3093223,-0.0,-0.05,1.38,-7.02,2.5,12.63,940.88,32.81
3093262,0.02,-0.05,1.32,-6.84,3.05,12.45,940.85,32.82
3093300,-0.0,-0.06,1.23,-6.53,4.03,12.15,940.89,32.83
3093338,-0.02,-0.07,1.13,-6.04,6.16,11.72,940.89,32.83
3093376,0.01,-0.06,1.19,-5.37,5.74,11.6,940.81,32.81
3093452,0.02,-0.07,1.22,-5.37,4.94,11.41,940.84,32.8
3093490,-0.01,-0.09,1.22,-5.25,6.47,11.11,940.83,32.8
3093528,0.01,-0.06,1.27,-5.55,5.37,11.05,940.91,32.8
3093617,-0.0,-0.06,1.36,-5.37,5.0,10.56,940.93,32.77
3093656,-0.04,-0.05,1.39,-5.0,4.39,10.56,940.95,32.79
3093694,-0.02,-0.06,1.38,-5.07,5.49,10.62,940.98,32.81
3093732,-0.01,-0.04,1.38,-4.64,5.0,10.5,940.95,32.8
3093770,-0.03,-0.05,1.33,-4.88,6.77,10.5,940.95,32.81
3093808,-0.04,-0.06,1.33,-4.39,6.47,10.44,941.03,32.8
3093858,-0.01,-0.04,1.37,-4.21,5.55,10.44,940.96,32.8
3093896,-0.03,-0.05,1.36,-4.15,5.37,10.44,941.02,32.81
3093934,-0.03,-0.04,1.41,-3.66,4.52,10.68,941.06,32.82
3093972,-0.02,-0.05,1.44,-3.91,3.3,10.62,940.97,32.81
3094010,-0.03,-0.04,1.43,-4.52,2.01,11.17,941.0,32.81
3094048,-0.04,-0.05,1.46,-4.09,1.28,11.23,940.93,32.81
3094086,-0.03,-0.04,1.47,-4.21,1.04,11.23,941.01,32.81
3094125,-0.03,-0.03,1.45,-4.33,1.46,11.35,941.01,32.83
3094163,-0.02,-0.03,1.54,-4.09,1.16,11.35,940.99,32.82
3094201,-0.02,-0.07,1.48,-3.72,3.72,11.29,940.96,32.82
3094251,-0.03,-0.05,1.48,-2.99,4.39,10.86,941.02,32.81
3094289,-0.01,-0.05,1.41,-3.05,6.53,11.11,941.0,32.81
3094327,-0.0,-0.05,1.38,-2.81,6.65,10.74,941.02,32.82
3094365,-0.03,-0.06,1.35,-2.38,7.02,10.74,940.98,32.83
3094403,-0.0,-0.06,1.31,-2.5,6.35,10.86,941.01,32.83
3094441,-0.02,-0.06,1.33,-1.71,5.92,10.86,940.94,32.81
3094480,0.0,-0.06,1.31,-2.38,5.74,10.93,941.01,32.83
3094518,-0.0,-0.05,1.37,-2.14,3.42,11.23,940.99,32.83
3094556,-0.01,-0.06,1.42,-2.44,2.38,11.54,941.0,32.83
3094606,0.0,-0.05,1.48,-2.38,1.04,11.47,940.99,32.82
3094644,0.01,-0.05,1.49,-3.23,1.28,11.72,940.91,32.82
3094682,0.01,-0.04,1.5,-3.48,0.79,11.66,940.92,32.83
3094720,-0.0,-0.05,1.46,-3.05,2.01,11.47,940.94,32.82
3094758,-0.01,-0.05,1.43,-3.23,2.69,11.54,940.92,32.81
3094796,0.01,-0.05,1.44,-2.5,2.26,11.29,940.95,32.82
3094834,-0.0,-0.07,1.36,-2.81,2.26,11.23,940.97,32.83
3094873,0.01,-0.06,1.38,-2.99,1.28,11.17,940.98,32.82
3094911,0.0,-0.06,1.31,-2.99,2.99,11.11,940.9,32.83
3094960,0.01,-0.06,1.31,-2.69,2.56,10.99,940.94,32.82
3094999,-0.0,-0.06,1.28,-2.87,3.36,10.74,940.97,32.81
3095037,-0.0,-0.07,1.26,-2.75,3.6,10.5,940.92,32.82
3095075,0.01,-0.07,1.25,-2.56,5.13,10.31,940.95,32.82
3095113,0.01,-0.07,1.25,-2.69,4.7,10.25,940.94,32.83
3095151,0.0,-0.07,1.26,-2.5,5.74,10.19,940.93,32.83
3095189,-0.01,-0.08,1.2,-2.81,6.16,10.01,940.91,32.83
3095227,-0.01,-0.06,1.24,-2.81,5.86,9.95,940.97,32.83
3095266,0.01,-0.09,1.17,-3.3,7.02,10.13,941.01,32.83
3095304,0.02,-0.05,1.2,-3.23,5.43,9.7,940.87,32.83
3095353,0.0,-0.06,1.15,-3.85,6.53,10.13,940.92,32.81
3095392,0.01,-0.07,1.18,-3.54,5.62,9.83,940.96,32.82
3095430,-0.01,-0.07,1.21,-3.6,4.7,9.83,940.89,32.83
3095468,-0.02,-0.07,1.2,-4.27,5.13,10.25,940.89,32.83
3095506,-0.0,-0.06,1.23,-4.15,5.31,9.64,940.88,32.82
3095544,0.02,-0.06,1.28,-3.78,5.55,9.77,940.92,32.82
3095582,-0.01,-0.07,1.27,-3.78,5.92,9.7,940.89,32.81
3095620,-0.01,-0.07,1.28,-3.78,5.92,9.7,940.85,32.82
3095658,-0.01,-0.06,1.28,-3.66,6.65,9.52,940.96,32.83
3095708,-0.01,-0.04,1.27,-3.54,6.53,9.58,940.86,32.8
3095746,-0.01,-0.05,1.29,-3.42,5.8,9.58,940.84,32.81
3095784,-0.0,-0.05,1.28,-3.48,6.29,9.52,940.95,32.82
3095822,0.0,-0.05,1.27,-3.42,6.35,9.58,940.92,32.81
3095861,-0.0,-0.06,1.27,-3.3,5.92,9.64,940.94,32.82
3095899,0.0,-0.06,1.26,-3.11,5.55,9.58,940.91,32.83
3095937,0.0,-0.06,1.25,-2.93,5.49,9.64,940.88,32.83
3095975,-0.01,-0.05,1.26,-2.87,5.07,9.52,940.9,32.84
3096013,-0.01,-0.06,1.26,-2.93,4.33,9.52,940.92,32.82
3096051,-0.0,-0.05,1.27,-2.69,4.27,9.52,940.92,32.81
3096101,-0.0,-0.05,1.29,-2.38,4.21,9.46,940.91,32.82
3096139,-0.0,-0.06,1.3,-2.44,3.97,9.58,940.94,32.82
3096177,-0.02,-0.05,1.25,-2.26,4.09,9.7,940.92,32.82
3096215,-0.01,-0.06,1.26,-2.14,4.03,9.52,940.92,32.83
3096253,-0.0,-0.05,1.23,-2.32,3.91,9.46,940.87,32.83
3096292,-0.01,-0.05,1.22,-2.08,3.97,9.64,940.97,32.84
3096330,-0.02,-0.06,1.19,-2.26,4.64,9.46,940.88,32.83
3096368,-0.01,-0.06,1.19,-2.08,3.66,9.46,940.87,32.83
3096406,-0.01,-0.05,1.22,-1.95,3.48,9.64,940.94,32.83
3096482,-0.02,-0.05,1.2,-2.2,3.85,9.77,940.84,32.8
3096520,-0.01,-0.06,1.19,-2.38,4.33,9.77,940.82,32.81
3096558,-0.01,-0.05,1.2,-2.2,3.72,9.77,940.78,32.82
3096647,-0.02,-0.05,1.19,-2.38,3.97,9.7,940.85,32.78
3096686,-0.02,-0.06,1.19,-2.56,4.09,9.83,940.83,32.8
3096724,-0.0,-0.04,1.21,-2.38,3.6,9.77,940.85,32.81
3096762,-0.01,-0.06,1.18,-2.44,5.0,9.83,940.8,32.8
3096800,-0.01,-0.05,1.19,-2.14,5.19,9.83,940.74,32.79
3096838,-0.01,-0.05,1.19,-1.89,5.49,10.01,940.73,32.81
3096876,-0.02,-0.06,1.15,-2.08,5.49,10.01,940.78,32.8
3096926,-0.02,-0.06,1.2,-1.83,5.98,10.07,940.77,32.79
3096964,-0.01,-0.05,1.17,-2.14,6.1,9.95,940.74,32.82
3097002,-0.02,-0.04,1.22,-2.01,5.31,10.31,940.79,32.81
3097040,-0.01,-0.05,1.19,-2.44,6.16,10.31,940.75,32.81
3097078,-0.02,-0.05,1.22,-2.01,5.68,10.25,940.71,32.81
3097117,-0.01,-0.05,1.21,-2.44,5.86,10.62,940.75,32.82
3097155,-0.01,-0.05,1.24,-2.2,5.19,10.68,940.81,32.81
3097193,-0.02,-0.05,1.2,-2.56,5.07,10.8,940.73,32.82
3097231,-0.01,-0.05,1.21,-2.5,4.7,10.8,940.76,32.83
3097281,-0.01,-0.05,1.2,-2.56,4.64,10.86,940.68,32.8
3097319,0.0,-0.05,1.2,-2.44,4.21,10.8,940.73,32.82
3097357,-0.01,-0.05,1.21,-2.26,3.85,11.05,940.69,32.81
3097395,-0.01,-0.04,1.2,-2.32,4.03,10.93,940.69,32.82
3097433,-0.01,-0.05,1.19,-2.26,4.03,11.05,940.67,32.82
3097471,0.0,-0.04,1.24,-2.14,3.36,10.74,940.7,32.82
3097510,-0.01,-0.05,1.24,-2.01,3.36,10.86,940.73,32.82
3097548,-0.0,-0.05,1.25,-2.08,2.75,10.99,940.67,32.82
3097586,-0.01,-0.05,1.26,-1.95,2.87,10.93,940.66,32.82
3097636,0.02,-0.05,1.23,-1.89,2.99,10.62,940.71,32.82
3097674,-0.01,-0.04,1.19,-2.01,3.36,10.56,940.62,32.81
3097712,-0.01,-0.04,1.19,-1.89,3.36,10.56,940.63,32.81
3097750,0.0,-0.06,1.16,-2.14,3.85,10.31,940.68,32.83
3097788,-0.0,-0.05,1.17,-2.01,3.66,10.07,940.62,32.83
3097826,-0.01,-0.06,1.15,-2.26,4.64,10.07,940.58,32.82
3097865,-0.01,-0.06,1.11,-2.14,5.68,10.19,940.61,32.83
3097903,-0.0,-0.05,1.09,-2.08,5.8,9.89,940.56,32.81
3097941,0.01,-0.05,1.07,-1.95,6.71,9.7,940.55,32.82
3097979,0.01,-0.05,1.08,-1.95,6.59,9.7,940.57,32.83
3098029,-0.01,-0.06,1.08,-1.65,6.71,9.58,940.52,32.82
3098067,-0.01,-0.06,1.09,-1.89,6.47,9.46,940.52,32.82
3098105,-0.0,-0.05,1.09,-1.59,6.41,9.52,940.49,32.83
3098143,0.01,-0.06,1.08,-1.71,6.77,9.52,940.48,32.84
3098181,-0.0,-0.06,1.07,-1.4,6.71,9.4,940.5,32.82
3098219,0.01,-0.07,1.05,-1.65,6.84,9.28,940.45,32.83
3098257,0.0,-0.06,1.07,-1.34,6.53,9.34,940.51,32.83
3098295,0.01,-0.06,1.06,-1.46,6.41,9.16,940.48,32.81
3098333,0.01,-0.06,1.07,-1.46,6.47,9.16,940.4,32.83
3098383,0.02,-0.06,1.06,-1.65,5.98,9.09,940.45,32.83
3098421,0.01,-0.06,1.1,-1.46,6.04,8.79,940.42,32.83
3098460,0.0,-0.07,1.05,-2.08,6.59,8.91,940.42,32.82
3098498,0.0,-0.04,1.14,-2.01,4.76,8.79,940.44,32.83
3098536,-0.0,-0.06,1.13,-2.5,5.62,8.61,940.37,32.82
3098574,0.01,-0.05,1.12,-2.75,4.94,8.54,940.37,32.83
3098612,0.0,-0.04,1.19,-2.62,4.27,8.67,940.46,32.83
3098650,0.01,-0.05,1.19,-2.75,4.64,8.48,940.44,32.84
3098688,0.0,-0.05,1.23,-2.14,3.48,8.3,940.42,32.83
3098726,0.0,-0.04,1.23,-1.95,4.76,8.48,940.4,32.82
3098776,-0.0,-0.04,1.21,-1.77,3.6,8.48,940.43,32.81
3098814,-0.01,-0.05,1.19,-1.53,4.21,8.3,940.42,32.82
3098852,-0.01,-0.06,1.16,-1.34,4.52,8.18,940.43,32.82
3098890,0.01,-0.05,1.18,-1.16,3.85,8.18,940.46,32.83
3098928,0.0,-0.05,1.15,-1.28,4.21,8.06,940.35,32.83
3098967,-0.01,-0.05,1.12,-1.22,4.27,7.87,940.39,32.82
3099005,-0.02,-0.04,1.12,-1.34,4.7,8.0,940.42,32.84
3099043,-0.01,-0.04,1.14,-1.28,4.27,7.81,940.41,32.83
3099081,-0.02,-0.05,1.13,-1.34,4.39,7.87,940.4,32.83
3099119,-0.0,-0.04,1.18,-0.92,4.27,7.81,940.31,32.83
3099169,-0.0,-0.04,1.12,-0.79,3.78,7.81,940.37,32.81
3099207,-0.01,-0.04,1.15,-0.06,2.87,7.93,940.34,32.81
3099245,-0.0,-0.05,1.08,-0.49,3.42,8.0,940.35,32.81
3099283,-0.01,-0.04,1.11,0.12,1.4,7.63,940.32,32.81
3099321,-0.02,-0.07,1.06,-0.24,1.71,7.93,940.36,32.81
3099359,0.0,-0.05,1.11,-0.18,-0.61,7.63,940.34,32.82
3099397,0.01,-0.06,1.11,-0.31,-0.73,7.45,940.36,32.83
3099435,0.0,-0.06,1.06,-0.37,-1.77,7.39,940.37,32.83
3099474,0.01,-0.06,1.11,-0.12,-2.14,7.02,940.28,32.83
3099551,-0.01,-0.05,1.07,-0.37,-2.87,6.84,940.31,32.8
3099589,-0.01,-0.06,1.03,-0.49,-2.08,6.47,940.31,32.81
3099627,-0.02,-0.06,1.04,-0.61,-2.62,6.35,940.28,32.81
3099716,-0.03,-0.07,1.04,-0.67,-0.79,6.04,940.3,32.79
3099755,-0.03,-0.03,1.0,-1.04,0.73,5.8,940.24,32.8
3099793,-0.03,-0.05,1.0,-1.28,1.46,5.8,940.23,32.81
3099831,-0.02,-0.05,1.0,-1.77,1.95,5.68,940.25,32.8
3099869,-0.03,-0.05,1.02,-2.32,0.98,5.86,940.21,32.8
3099907,-0.05,-0.05,1.09,-2.56,0.98,5.86,940.2,32.8
3099945,-0.03,-0.06,1.12,-3.11,1.89,6.04,940.27,32.83
3099995,-0.03,-0.05,1.2,-3.23,1.22,6.1,940.2,32.8
3100033,-0.04,-0.04,1.17,-3.54,2.2,6.29,940.21,32.8
3100071,-0.04,-0.03,1.18,-3.54,1.83,6.35,940.28,32.82
3100109,-0.02,-0.02,1.22,-3.42,1.34,6.23,940.23,32.82
3100147,-0.03,-0.04,1.21,-3.54,0.92,6.65,940.26,32.83
3100186,-0.04,-0.03,1.27,-3.3,-0.37,6.65,940.23,32.82
3100224,-0.03,-0.03,1.3,-3.42,-0.12,6.59,940.19,32.82
3100262,-0.03,-0.02,1.29,-3.48,-1.22,6.71,940.15,32.8
3100300,-0.04,-0.02,1.3,-3.36,-1.71,6.84,940.22,32.81
3100350,-0.06,-0.03,1.24,-3.17,-2.44,6.96,940.22,32.82
3100388,-0.04,-0.02,1.23,-2.99,-2.44,6.96,940.24,32.81
3100426,-0.05,-0.03,1.2,-3.11,-2.62,7.08,940.14,32.81
3100464,-0.04,-0.03,1.25,-2.5,-3.91,7.02,940.19,32.81
3100502,-0.06,-0.03,1.2,-3.05,-3.11,7.2,940.18,32.82
3100540,-0.08,-0.02,1.22,-2.62,-3.05,7.39,940.09,32.81
3100579,-0.06,-0.04,1.16,-2.62,-1.65,7.51,940.05,32.82
3100617,-0.05,-0.03,1.14,-2.81,-1.28,7.45,940.07,32.81
3100655,-0.08,-0.04,1.12,-2.62,-0.43,7.69,940.07,32.82
3100705,-0.07,-0.05,1.11,-2.93,-0.43,7.87,940.05,32.81
3100743,-0.07,-0.04,1.06,-3.23,1.71,8.0,940.05,32.82
3100781,-0.07,-0.03,1.12,-2.93,1.4,8.36,940.02,32.83
3100819,-0.09,-0.04,1.07,-3.3,1.95,8.67,940.03,32.81
3100857,-0.1,-0.05,1.05,-3.42,2.62,8.97,939.98,32.83
3100895,-0.06,-0.04,1.11,-3.23,3.97,9.28,939.99,32.83
3100933,-0.08,-0.04,1.08,-3.42,4.27,9.46,939.99,32.83
3100972,-0.1,-0.04,1.04,-3.23,5.13,9.7,939.96,32.83
3101010,-0.06,-0.05,1.06,-3.05,5.62,9.7,939.98,32.83
3101048,-0.06,-0.05,1.04,-3.17,6.04,10.38,939.96,32.83
3101098,-0.08,-0.05,1.08,-3.11,5.98,10.86,939.87,32.81
3101136,-0.08,-0.05,1.08,-3.42,6.35,11.11,939.93,32.81
3101174,-0.06,-0.04,1.15,-3.66,6.29,11.66,939.96,32.82
3101212,-0.06,-0.04,1.2,-3.72,5.68,11.72,939.95,32.84
3101250,-0.07,-0.04,1.2,-3.97,5.8,12.15,939.99,32.84
3101289,-0.06,-0.04,1.21,-4.21,5.98,12.39,939.99,32.82
3101327,-0.04,-0.03,1.24,-4.21,6.1,12.57,939.93,32.83
3101365,-0.04,-0.04,1.22,-4.03,5.68,12.82,939.97,32.83
3101403,-0.06,-0.05,1.17,-3.97,6.1,13.06,939.94,32.83
3101453,-0.03,-0.05,1.23,-3.48,6.84,13.12,939.99,32.81
3101491,-0.04,-0.04,1.17,-3.54,6.04,13.43,939.94,32.82
3101529,-0.06,-0.05,1.17,-2.56,5.37,13.73,939.94,32.82
3101567,-0.06,-0.06,1.14,-3.23,6.47,13.73,939.95,32.81
3101605,-0.02,-0.06,1.22,-2.93,4.82,14.04,939.97,32.82
3101644,-0.04,-0.07,1.16,-3.17,5.07,14.34,939.95,32.83
3101682,-0.05,-0.05,1.16,-2.87,5.86,14.04,939.94,32.83
3101720,-0.05,-0.08,1.2,-2.75,6.84,14.04,939.91,32.83
3101758,-0.03,-0.07,1.16,-3.42,5.74,14.1,939.87,32.82
3101808,-0.03,-0.07,1.2,-3.48,5.13,14.34,939.86,32.81
3101846,-0.02,-0.07,1.1,-4.09,5.49,14.53,939.92,32.81
3101884,-0.03,-0.06,1.15,-4.27,5.13,14.53,939.93,32.81
3101922,-0.03,-0.09,1.01,-4.58,6.65,14.47,939.95,32.81
3101961,-0.02,-0.09,0.98,-4.58,7.69,14.16,939.91,32.81
3101999,0.02,-0.09,0.92,-4.46,9.7,14.04,939.83,32.8
3102037,0.03,-0.09,0.82,-5.31,11.17,13.92,939.77,32.82
3102075,0.01,-0.07,0.83,-5.68,8.97,13.92,939.85,32.81
3102113,-0.02,-0.07,0.86,-5.55,7.81,13.98,939.78,32.81
3102151,-0.01,-0.1,0.9,-6.16,8.54,13.85,939.76,32.81
3102201,0.01,-0.08,1.03,-6.59,5.31,13.98,939.71,32.8
3102239,0.02,-0.08,1.07,-6.84,6.04,13.55,939.76,32.81
3102277,0.03,-0.07,1.11,-7.63,5.37,13.55,939.71,32.81
3102315,0.03,-0.06,1.21,-7.45,4.27,13.92,939.66,32.8
3102354,0.03,-0.08,1.13,-8.3,4.64,13.55,939.71,32.81
3102392,0.01,-0.06,1.2,-8.0,2.99,13.18,939.72,32.81
3102430,0.0,-0.05,1.28,-7.57,3.66,13.0,939.71,32.82
3102468,0.04,-0.05,1.36,-7.93,3.78,12.63,939.7,32.81
3102506,0.04,-0.01,1.55,-7.39,1.83,12.21,939.7,32.81
3102582,0.04,-0.03,1.61,-7.32,5.07,11.96,939.68,32.78
3102620,0.01,-0.02,1.66,-6.96,5.19,11.6,939.64,32.8
3102658,-0.03,-0.03,1.55,-6.71,4.58,11.78,939.61,32.8
3102748,0.03,-0.02,1.57,-5.55,4.46,11.35,939.7,32.77
3102786,0.0,-0.03,1.54,-4.64,5.0,11.47,939.67,32.78
3102824,0.0,-0.04,1.46,-4.27,6.59,11.29,939.67,32.79
3102862,-0.01,-0.03,1.48,-3.17,6.23,11.11,939.76,32.79
3102900,0.01,-0.04,1.4,-3.3,7.45,10.86,939.63,32.8
3102938,-0.02,-0.04,1.35,-2.99,6.77,10.8,939.59,32.8
3102977,0.01,-0.05,1.32,-3.05,7.39,10.68,939.67,32.8
3103026,0.02,-0.04,1.28,-2.93,7.32,10.44,939.61,32.79
3103064,-0.01,-0.05,1.2,-3.11,7.87,10.56,939.59,32.78
3103103,0.0,-0.05,1.22,-3.36,7.02,10.38,939.62,32.8
3103141,0.0,-0.06,1.23,-3.11,8.06,10.07,939.63,32.8
3103179,0.04,-0.07,1.17,-3.42,8.42,10.01,939.6,32.8
3103217,-0.0,-0.05,1.17,-3.17,7.08,9.83,939.61,32.8
3103255,0.01,-0.06,1.1,-3.3,7.93,9.83,939.6,32.8
3103293,-0.0,-0.06,1.08,-3.23,6.71,9.77,939.64,32.81
3103331,0.01,-0.07,1.06,-2.87,6.23,9.83,939.55,32.81
3103381,0.01,-0.07,1.05,-2.99,6.29,9.64,939.56,32.79
3103419,0.0,-0.05,1.07,-3.11,7.2,9.46,939.52,32.81
3103457,-0.0,-0.05,1.13,-2.81,7.39,9.4,939.56,32.8
3103495,0.01,-0.06,1.13,-2.69,9.34,9.46,939.55,32.81
3103533,0.0,-0.06,1.18,-2.14,9.46,9.22,939.49,32.81
3103572,0.01,-0.05,1.18,-2.14,10.5,9.34,939.48,32.81
3103610,0.01,-0.06,1.13,-2.26,10.93,9.28,939.47,32.81
3103648,0.03,-0.04,1.15,-1.89,11.66,8.97,939.53,32.81
3103686,0.02,-0.05,1.13,-1.77,12.39,9.09,939.46,32.81
3103724,0.02,-0.05,1.14,-1.65,12.15,9.22,939.47,32.83
3103774,0.02,-0.04,1.16,-1.59,13.12,8.67,939.41,32.8
3103812,0.0,-0.04,1.18,-1.16,12.88,8.85,939.43,32.82
3103850,0.03,-0.05,1.25,-1.04,12.94,8.73,939.39,32.83
3103888,0.02,-0.05,1.23,-0.98,12.94,8.73,939.4,32.82
3103926,0.0,-0.03,1.26,-0.24,12.63,8.73,939.38,32.82
3103965,0.01,-0.03,1.21,-0.31,13.67,8.54,939.39,32.81
3104003,0.02,-0.04,1.21,0.18,13.24,8.54,939.43,32.81
3104041,0.01,-0.06,1.15,0.61,13.98,8.54,939.39,32.81
3104079,0.02,-0.05,1.13,1.1,13.79,8.36,939.42,32.82
3104129,0.02,-0.04,1.16,1.71,12.63,8.18,939.43,32.8
3104167,0.0,-0.04,1.14,2.01,12.15,8.54,939.4,32.82
3104205,0.02,-0.06,1.16,2.5,11.84,8.61,939.35,32.81
3104243,0.02,-0.07,1.1,2.44,12.63,8.3,939.38,32.83
3104281,0.02,-0.05,1.07,2.81,11.17,8.18,939.35,32.81
3104319,0.03,-0.05,1.09,2.87,10.93,8.24,939.31,32.82
3104358,0.03,-0.05,1.12,2.99,9.83,7.93,939.35,32.81
3104396,0.01,-0.05,1.16,2.81,8.97,8.12,939.38,32.81
3104434,0.01,-0.05,1.16,2.69,7.51,7.93,939.4,32.81
3104472,0.01,-0.04,1.2,2.62,5.68,7.93,939.45,32.82
3104522,-0.01,-0.04,1.18,2.32,5.19,7.69,939.44,32.82
3104560,0.0,-0.05,1.19,2.69,4.82,7.57,939.4,32.82
3104598,-0.02,-0.06,1.09,2.87,5.74,7.39,939.32,32.81
3104636,-0.02,-0.04,1.09,3.42,5.74,7.51,939.33,32.81
3104674,-0.02,-0.05,1.01,3.6,8.97,7.45,939.28,32.82
3104712,-0.0,-0.05,0.96,3.91,9.77,7.08,939.28,32.82
3104750,-0.01,-0.06,0.95,4.15,10.56,7.26,939.24,32.83
3104789,0.02,-0.08,0.93,3.97,10.68,7.2,939.26,32.84
3104827,0.01,-0.06,0.96,4.09,9.64,7.02,939.27,32.83
3104865,0.02,-0.05,0.93,3.6,8.97,7.2,939.24,32.82
3104915,0.01,-0.07,0.89,2.99,7.39,6.9,939.31,32.81
3104953,-0.01,-0.07,0.87,2.5,5.37,6.77,939.28,32.81
3104991,0.0,-0.07,0.86,1.89,4.76,6.71,939.28,32.83
3105029,0.02,-0.06,0.86,0.85,2.69,6.59,939.33,32.83
3105067,-0.01,-0.06,0.87,0.61,2.01,6.53,939.28,32.81
3105105,-0.02,-0.07,0.87,0.06,1.89,6.41,939.34,32.82
3105144,-0.0,-0.07,0.9,0.0,1.77,6.35,939.38,32.83
3105182,-0.03,-0.07,0.87,0.0,3.05,6.1,939.31,32.83
3105220,-0.04,-0.05,0.92,0.12,3.17,6.29,939.25,32.83
3105269,-0.0,-0.07,0.94,0.12,3.85,6.1,939.26,32.81
3105308,-0.02,-0.05,0.97,0.61,2.26,6.16,939.29,32.82
3105346,-0.01,-0.06,1.02,0.92,2.44,6.29,939.29,32.82
3105384,-0.0,-0.07,0.98,0.43,2.87,6.23,939.22,32.8
3105422,-0.02,-0.05,1.01,1.16,1.22,6.16,939.26,32.81
3105460,-0.01,-0.07,0.93,0.61,3.3,6.16,939.26,32.83
3105498,-0.01,-0.06,0.93,1.28,1.83,6.1,939.26,32.82
3105536,-0.01,-0.06,0.9,1.28,2.69,5.98,939.27,32.83
3105575,0.01,-0.07,0.9,1.71,2.75,5.62,939.26,32.83
3105613,-0.01,-0.06,0.95,1.77,2.93,5.8,939.2,32.82
3105688,-0.04,-0.06,0.96,2.26,3.17,5.55,939.2,32.8
3105727,-0.02,-0.06,0.9,2.38,3.72,5.19,939.29,32.81
3105765,-0.03,-0.06,0.92,2.62,2.44,5.37,939.21,32.8
3105854,-0.03,-0.05,0.88,2.87,0.55,5.43,939.16,32.78
3105892,-0.04,-0.06,0.85,2.38,0.67,5.49,939.12,32.8
3105931,-0.04,-0.06,0.85,2.26,-1.34,5.62,939.09,32.8
3105969,-0.06,-0.07,0.84,1.83,-1.22,5.49,939.1,32.79
3106007,-0.06,-0.06,0.8,1.95,-2.08,5.55,939.07,32.8
3106045,-0.06,-0.06,0.8,1.77,-3.36,5.55,939.07,32.81
3106083,-0.04,-0.07,0.8,1.53,-4.7,5.8,938.98,32.81
3106133,-0.07,-0.07,0.76,0.67,-5.62,6.04,938.95,32.79
3106171,-0.06,-0.06,0.82,0.67,-7.63,6.53,938.98,32.8
3106209,-0.06,-0.07,0.81,0.0,-7.69,6.16,938.96,32.82
3106247,-0.05,-0.06,0.84,-0.24,-9.46,6.41,938.96,32.81
3106285,-0.05,-0.06,0.89,-0.12,-9.64,6.59,938.95,32.81
3106323,-0.05,-0.07,0.91,-0.55,-9.4,6.47,938.9,32.81
3106362,-0.07,-0.06,0.93,-0.67,-10.07,6.59,938.87,32.81
3106400,-0.05,-0.06,0.98,-1.04,-10.44,6.71,938.92,32.82
3106438,-0.04,-0.06,0.97,-1.53,-10.31,6.84,938.89,32.82
3106488,-0.06,-0.04,1.02,-1.83,-11.47,6.71,938.92,32.8
3106526,-0.05,-0.06,1.03,-2.5,-10.44,6.65,938.94,32.82
3106564,-0.06,-0.05,1.06,-2.32,-11.05,6.65,938.99,32.81
3106602,-0.05,-0.06,1.08,-2.75,-9.28,6.47,939.04,32.82
3106640,-0.05,-0.04,1.07,-2.69,-9.28,6.47,939.06,32.83
3106678,-0.05,-0.04,1.08,-2.32,-8.06,6.53,938.98,32.8
3106716,-0.06,-0.04,1.07,-2.01,-6.65,6.41,938.97,32.82
3106755,-0.06,-0.04,1.06,-1.46,-6.41,6.53,939.07,32.83
3106793,-0.04,-0.05,1.04,-1.16,-5.55,6.35,939.11,32.81
3106842,-0.06,-0.03,1.06,-0.24,-5.31,6.29,939.09,32.81
3106881,-0.06,-0.05,1.04,-0.06,-4.82,6.59,939.11,32.82
3106919,-0.06,-0.06,1.0,-0.06,-4.46,6.59,939.04,32.83
3106957,-0.09,-0.06,0.98,0.18,-4.82,6.59,939.02,32.81
3106995,-0.07,-0.06,0.91,-0.55,-3.85,6.77,939.06,32.81
3107033,-0.04,-0.05,0.91,-1.1,-4.03,6.84,939.0,32.8
3107071,-0.06,-0.05,0.87,-1.77,-3.36,6.77,939.02,32.81
3107109,-0.08,-0.06,0.9,-2.26,-3.36,7.39,939.06,32.81
3107148,-0.07,-0.06,0.91,-3.17,-1.71,7.57,939.06,32.83
3107186,-0.08,-0.05,0.97,-3.6,-2.14,7.69,939.07,32.82
3107235,-0.08,-0.06,0.95,-4.76,-0.31,8.24,939.05,32.8
3107274,-0.08,-0.04,1.0,-4.64,-0.55,8.42,939.02,32.8
3107312,-0.06,-0.05,0.99,-5.13,1.1,8.73,939.04,32.81
3107350,-0.06,-0.03,1.05,-5.19,0.12,9.46,939.07,32.82
3107388,-0.07,-0.03,1.08,-5.74,1.83,9.83,938.97,32.8
3107426,-0.06,-0.04,1.11,-5.74,1.46,10.01,939.07,32.81
3107464,-0.07,-0.05,1.15,-5.92,2.32,10.25,939.07,32.81
3107503,-0.05,-0.03,1.14,-6.29,1.77,10.62,939.12,32.82
3107541,-0.05,-0.03,1.18,-5.74,1.71,10.86,939.14,32.82
3107590,-0.04,-0.03,1.12,-5.86,0.31,11.17,939.12,32.81
3107629,-0.05,-0.03,1.18,-5.62,0.79,11.17,939.12,32.8
3107667,-0.06,-0.04,1.13,-5.86,0.49,11.54,939.1,32.81
3107705,-0.06,-0.03,1.19,-5.92,-0.49,11.66,939.08,32.8
3107743,-0.06,-0.03,1.18,-5.98,-0.61,11.72,939.11,32.81
3107781,-0.06,-0.03,1.2,-5.86,-0.61,11.96,939.09,32.81
3107819,-0.05,-0.04,1.18,-5.86,-1.04,12.21,939.14,32.82
3107857,-0.06,-0.03,1.21,-5.43,-1.71,12.39,939.08,32.8
3107895,-0.08,-0.03,1.17,-5.55,-1.4,12.82,939.11,32.81
3107945,-0.05,-0.03,1.19,-5.37,-2.5,12.94,939.16,32.8
3107983,-0.06,-0.04,1.15,-5.31,-2.38,13.06,939.15,32.8
3108021,-0.05,-0.04,1.13,-5.49,-2.44,12.94,939.14,32.81
3108060,-0.04,-0.04,1.14,-5.37,-2.26,13.12,939.1,32.81
3108098,-0.05,-0.03,1.12,-5.74,-2.69,13.49,939.12,32.81
3108136,-0.07,-0.02,1.14,-5.68,-3.3,13.61,939.14,32.81
3108174,-0.09,-0.04,1.1,-6.59,-2.62,13.92,939.16,32.81
3108212,-0.06,-0.03,1.17,-6.96,-3.3,13.98,939.19,32.81
3108250,-0.06,-0.03,1.16,-7.39,-1.59,14.04,939.15,32.81
3108300,-0.04,-0.02,1.19,-7.57,-1.95,14.1,939.17,32.79
3108338,-0.06,-0.02,1.19,-7.93,-0.49,14.4,939.17,32.8
3108376,-0.05,-0.01,1.23,-7.81,-0.37,14.47,939.17,32.8
3108414,-0.06,-0.01,1.27,-8.0,0.12,14.65,939.17,32.8
3108453,-0.04,-0.01,1.23,-8.06,1.28,14.71,939.19,32.8
3108491,-0.01,-0.01,1.32,-7.45,0.92,14.53,939.27,32.82
3108529,-0.01,-0.02,1.27,-7.69,2.44,14.28,939.25,32.8
3108567,-0.01,-0.01,1.31,-6.71,1.22,14.22,939.24,32.8
3108605,-0.03,-0.01,1.29,-6.71,2.32,14.34,939.22,32.81
3108681,-0.01,0.0,1.3,-6.04,2.5,14.22,939.28,32.79
3108719,-0.02,-0.01,1.29,-5.92,2.62,14.1,939.29,32.8
3108757,-0.03,-0.01,1.3,-5.86,2.5,14.1,939.29,32.81
3108846,-0.02,-0.0,1.29,-6.04,2.81,14.28,939.21,32.78
3108885,-0.02,-0.0,1.28,-6.53,2.5,14.28,939.24,32.78
3108923,-0.01,-0.01,1.3,-6.9,2.38,14.34,939.21,32.8
3108961,0.0,-0.01,1.3,-7.2,2.62,14.16,939.23,32.79
3108999,0.01,-0.0,1.34,-7.02,1.65,13.92,939.28,32.8
3109037,-0.0,0.0,1.34,-7.32,2.32,13.92,939.28,32.8
3109075,0.01,0.0,1.35,-7.26,2.14,13.61,939.28,32.8
3109125,-0.01,0.01,1.37,-7.08,1.59,13.73,939.33,32.8
3109163,-0.0,-0.01,1.37,-7.02,0.85,13.61,939.27,32.8
3109201,-0.01,-0.0,1.38,-7.08,0.73,13.37,939.3,32.81
3109239,-0.01,-0.01,1.36,-6.65,0.43,13.12,939.3,32.8
3109277,0.0,-0.01,1.33,-6.77,0.43,13.06,939.29,32.79
3109316,-0.02,-0.01,1.33,-6.35,-0.18,12.94,939.39,32.81
3109354,-0.03,-0.01,1.29,-6.29,0.98,12.94,939.44,32.82
3109392,-0.01,-0.01,1.31,-5.92,1.4,12.76,939.39,32.82
3109430,-0.04,-0.01,1.29,-5.92,1.89,12.57,939.43,32.82
3109480,-0.02,-0.02,1.27,-5.49,1.1,12.63,939.43,32.8
3109518,-0.02,-0.02,1.28,-5.55,0.98,12.45,939.42,32.81
3109556,-0.02,-0.02,1.29,-5.55,1.28,12.33,939.49,32.82
3109594,-0.02,-0.01,1.28,-5.62,0.98,12.51,939.41,32.81
3109632,-0.03,-0.02,1.3,-5.68,1.65,12.45,939.41,32.81
3109670,-0.02,-0.03,1.28,-6.16,2.26,12.27,939.46,32.82
3109709,-0.02,-0.01,1.3,-6.16,2.32,12.45,939.46,32.81
3109747,-0.03,-0.02,1.27,-6.23,2.69,12.51,939.5,32.82
3109785,-0.03,-0.01,1.29,-6.41,2.62,12.76,939.51,32.81
3109823,-0.02,-0.02,1.27,-6.65,2.81,12.63,939.49,32.82
3109873,-0.02,-0.02,1.26,-6.71,2.75,12.45,939.5,32.8
3109911,-0.02,-0.03,1.24,-7.26,3.66,12.82,939.51,32.82
3109949,-0.01,-0.02,1.25,-7.39,3.23,12.76,939.59,32.83
3109987,-0.02,-0.03,1.22,-7.45,4.03,12.76,939.52,32.83
3110025,-0.01,-0.03,1.22,-7.63,5.13,12.57,939.53,32.82
3110064,-0.02,-0.03,1.22,-7.75,5.74,12.57,939.5,32.82
3110102,-0.01,-0.02,1.25,-8.18,6.16,12.63,939.47,32.83
3110140,-0.03,-0.02,1.27,-8.3,5.31,12.51,939.49,32.81
3110178,-0.02,-0.02,1.25,-9.16,6.35,12.88,939.58,32.83
3110228,-0.01,-0.01,1.32,-8.85,6.41,12.82,939.58,32.81
3110266,-0.02,-0.02,1.29,-9.46,6.35,13.12,939.57,32.81
3110304,0.0,-0.01,1.31,-9.22,5.0,12.94,939.62,32.82
3110342,-0.01,-0.02,1.26,-9.34,5.74,12.82,939.61,32.82
3110380,0.01,0.0,1.33,-9.46,3.54,12.94,939.57,32.82
3110418,0.01,-0.02,1.35,-9.46,3.91,12.88,939.66,32.82
3110457,-0.03,-0.0,1.35,-9.58,2.44,12.88,939.68,32.82
3110495,-0.02,-0.0,1.39,-9.34,2.87,13.06,939.69,32.83
3110533,0.0,-0.01,1.37,-9.64,2.93,12.51,939.66,32.82
3110583,-0.01,0.0,1.36,-9.58,2.81,12.57,939.67,32.81
3110621,-0.01,-0.0,1.34,-9.28,2.62,12.45,939.69,32.81
3110659,-0.01,-0.01,1.31,-9.4,2.93,12.39,939.71,32.81
3110697,-0.0,-0.01,1.3,-9.52,3.11,12.15,939.71,32.82
3110735,-0.03,0.01,1.34,-9.34,2.56,12.08,939.67,32.8
3110773,-0.03,-0.01,1.35,-10.07,3.91,11.66,939.64,32.8
3110811,-0.0,0.0,1.43,-10.38,2.5,11.41,939.69,32.83
3110850,-0.02,0.01,1.49,-10.62,4.09,11.23,939.75,32.82
3110888,0.0,0.01,1.46,-10.93,4.94,11.35,939.73,32.82
3110926,-0.02,0.03,1.54,-10.38,3.78,10.74,939.75,32.82
3110976,-0.02,0.02,1.48,-10.62,5.8,10.62,939.79,32.82
3111014,-0.03,0.04,1.54,-10.13,5.62,10.19,939.77,32.81
3111052,-0.03,0.03,1.58,-9.64,6.1,10.19,939.78,32.8
3111090,-0.02,0.03,1.57,-9.64,5.98,10.25,939.8,32.82
3111128,-0.04,0.04,1.64,-8.73,5.8,9.83,939.82,32.81
3111166,-0.04,0.03,1.59,-8.42,7.87,9.77,939.78,32.83
3111204,-0.02,0.05,1.65,-7.57,6.84,9.64,939.84,32.82
3111243,-0.03,0.04,1.6,-7.02,7.26,9.58,939.82,32.82
3111281,-0.04,0.03,1.52,-6.65,7.08,9.58,939.78,32.81
3111330,-0.02,0.03,1.51,-6.47,7.87,9.58,939.85,32.8
3111369,-0.01,0.02,1.5,-6.16,7.08,9.4,939.82,32.8
3111407,-0.06,0.03,1.48,-5.86,6.04,9.46,939.85,32.81
3111445,-0.05,0.02,1.49,-5.74,7.02,9.64,939.91,32.83
3111483,-0.03,0.0,1.49,-5.68,6.65,9.46,939.91,32.82
3111521,-0.03,0.01,1.48,-5.55,6.16,9.52,939.94,32.81
3111559,-0.04,0.02,1.46,-5.37,6.04,9.64,939.94,32.83
3111597,-0.03,0.01,1.44,-5.43,6.59,9.64,939.9,32.81
3111635,-0.04,-0.0,1.43,-4.82,6.1,9.52,939.96,32.81
3111674,-0.06,-0.01,1.37,-4.82,6.04,9.7,939.99,32.83
3111749,-0.04,-0.01,1.34,-4.33,6.41,9.58,939.98,32.8
3111787,-0.04,-0.01,1.37,-3.91,5.31,9.58,939.96,32.8
3111826,-0.04,-0.02,1.33,-4.03,6.1,9.64,940.06,32.81
3111915,-0.06,-0.02,1.29,-3.78,6.35,9.64,939.99,32.78
3111953,-0.06,-0.02,1.32,-3.17,5.92,9.52,940.05,32.79
3111991,-0.05,-0.03,1.26,-3.05,7.14,9.7,940.04,32.8
3112029,-0.05,-0.04,1.19,-2.75,7.81,9.7,940.06,32.8
3112068,-0.03,-0.04,1.14,-1.89,8.48,9.58,940.13,32.8
3112106,-0.03,-0.03,1.09,-1.83,8.48,9.83,940.14,32.8
3112155,-0.06,-0.05,1.01,-1.22,9.22,10.01,940.11,32.8
3112194,-0.02,-0.05,1.08,-0.98,7.45,9.95,940.17,32.81
3112232,-0.04,-0.07,1.05,-1.22,8.06,10.07,940.18,32.8
3112270,-0.05,-0.05,0.99,-1.59,6.23,10.44,940.12,32.81
3112308,-0.03,-0.05,1.02,-1.46,6.35,10.5,940.19,32.82
3112346,-0.02,-0.06,0.94,-2.5,5.74,10.56,940.12,32.81
3112384,-0.02,-0.05,1.03,-2.38,3.11,10.56,940.2,32.83
3112422,-0.02,-0.06,0.97,-3.17,4.15,10.74,940.13,32.81
3112460,-0.03,-0.04,1.09,-2.56,2.14,10.68,940.16,32.81
3112499,-0.02,-0.06,1.09,-3.17,3.48,10.68,940.23,32.82
3112548,-0.03,-0.04,1.17,-2.69,1.22,10.56,940.22,32.8
3112586,-0.04,-0.05,1.14,-2.93,2.62,10.44,940.21,32.82
3112625,-0.02,-0.05,1.17,-3.23,2.01,10.62,940.29,32.81
3112663,-0.02,-0.04,1.18,-3.3,2.44,10.62,940.23,32.81
3112701,-0.02,-0.05,1.12,-3.78,2.56,10.62,940.28,32.83
3112739,-0.03,-0.04,1.16,-3.48,1.89,10.62,940.27,32.82
3112777,-0.03,-0.03,1.18,-3.85,2.32,10.31,940.2,32.82
3112815,-0.02,-0.04,1.25,-3.6,1.28,10.38,940.24,32.82
3112853,-0.03,-0.05,1.24,-3.78,1.53,10.44,940.32,32.81
3112903,-0.04,-0.03,1.31,-3.3,0.55,10.38,940.33,32.82
3112941,-0.02,-0.05,1.29,-3.11,1.04,10.31,940.35,32.82
3112979,-0.02,-0.04,1.28,-3.3,-0.18,10.25,940.35,32.81
3113017,-0.04,-0.03,1.3,-2.75,-0.18,10.38,940.31,32.82
3113056,-0.03,-0.05,1.2,-2.87,0.73,10.25,940.25,32.81
3113094,-0.04,-0.03,1.26,-2.69,-0.98,10.25,940.29,32.81
3113132,-0.03,-0.04,1.24,-2.81,0.18,10.13,940.41,32.83
3113170,-0.04,-0.04,1.2,-3.3,-0.06,10.19,940.33,32.82
3113208,-0.04,-0.03,1.24,-2.81,0.73,10.13,940.3,32.82
3113258,-0.04,-0.03,1.2,-3.54,1.16,10.19,940.34,32.81
3113296,-0.04,-0.03,1.25,-3.05,1.89,10.07,940.36,32.82
3113334,-0.06,-0.04,1.23,-3.6,2.69,10.07,940.36,32.81
3113372,-0.05,-0.03,1.33,-3.3,2.44,10.13,940.3,32.82
3113410,-0.03,-0.04,1.3,-4.15,2.87,10.25,940.34,32.82
3113449,-0.05,-0.03,1.33,-4.33,1.89,10.44,940.36,32.81
3113487,-0.06,-0.04,1.27,-4.82,2.75,10.62,940.42,32.83
3113525,-0.04,-0.04,1.25,-4.64,2.62,10.62,940.4,32.83
3113563,-0.06,-0.04,1.18,-5.0,2.62,10.68,940.4,32.82
3113613,-0.05,-0.04,1.15,-5.13,2.01,11.05,940.45,32.82
3113651,-0.06,-0.06,1.11,-5.37,2.26,11.11,940.39,32.82
3113689,-0.05,-0.05,1.16,-5.55,1.34,11.05,940.45,32.81
3113727,-0.07,-0.06,1.16,-5.92,2.5,11.35,940.48,32.83
3113765,-0.07,-0.05,1.18,-6.35,2.38,11.72,940.47,32.82
3113803,-0.06,-0.04,1.22,-6.41,2.69,11.84,940.45,32.83
3113842,-0.06,-0.04,1.22,-6.59,3.05,12.02,940.5,32.84
3113880,-0.06,-0.04,1.21,-6.71,2.5,12.21,940.54,32.83
3113918,-0.05,-0.04,1.25,-7.08,2.87,12.39,940.48,32.81
3113956,-0.05,-0.04,1.27,-7.08,2.93,12.76,940.55,32.83
3114006,-0.06,-0.04,1.28,-7.08,2.62,13.06,940.49,32.81
3114044,-0.05,-0.04,1.31,-7.14,3.05,12.94,940.54,32.83
3114082,-0.05,-0.03,1.38,-6.65,3.66,13.0,940.56,32.82
3114120,-0.04,-0.03,1.32,-7.32,3.6,13.24,940.6,32.82
3114158,-0.06,-0.02,1.42,-6.29,3.11,13.24,940.58,32.82
3114197,-0.04,-0.05,1.31,-7.45,5.07,13.43,940.56,32.81
3114235,-0.04,-0.02,1.42,-6.41,2.87,13.37,940.6,32.83
3114273,-0.03,-0.04,1.35,-7.14,4.88,13.61,940.55,32.83
3114311,-0.04,-0.02,1.4,-6.59,3.91,13.31,940.59,32.82
3114361,-0.02,-0.04,1.36,-7.14,5.31,13.67,940.62,32.81
3114399,-0.02,-0.03,1.42,-6.77,4.39,13.43,940.64,32.82
3114437,-0.03,-0.04,1.37,-7.26,5.62,13.49,940.63,32.82
3114475,-0.03,-0.03,1.38,-7.14,5.07,13.55,940.65,32.82
3114513,-0.03,-0.03,1.42,-7.14,5.25,13.37,940.66,32.82
3114552,-0.02,-0.04,1.38,-7.57,5.07,13.43,940.68,32.83
3114590,-0.04,-0.03,1.42,-7.32,4.39,13.49,940.64,32.82
3114628,-0.02,-0.04,1.4,-7.63,4.94,13.49,940.72,32.83
3114666,-0.02,-0.03,1.41,-7.57,4.15,13.49,940.73,32.81
3114742,-0.01,-0.04,1.41,-7.63,4.03,13.61,940.71,32.82
3114780,-0.02,-0.04,1.42,-7.51,4.39,13.49,940.66,32.8
3114818,-0.01,-0.03,1.43,-7.69,4.21,13.55,940.76,32.82
3114907,-0.01,-0.03,1.41,-7.69,4.21,13.49,940.72,32.79
3114946,-0.02,-0.03,1.43,-7.81,4.03,13.18,940.68,32.79
3114984,-0.0,-0.04,1.43,-7.93,4.33,13.18,940.76,32.8
3115022,-0.02,-0.04,1.41,-7.75,4.64,13.06,940.73,32.79
3115060,-0.01,-0.03,1.44,-7.69,4.7,13.06,940.74,32.81
3115098,-0.01,-0.04,1.43,-7.63,4.64,13.06,940.74,32.8
3115136,-0.02,-0.03,1.45,-7.45,4.33,12.82,940.76,32.8
3115186,-0.01,-0.04,1.44,-7.81,4.76,12.88,940.78,32.8
3115224,-0.01,-0.04,1.45,-7.69,4.39,12.63,940.82,32.8
3115262,-0.01,-0.03,1.44,-7.81,4.7,12.82,940.82,32.81
3115300,-0.01,-0.03,1.44,-7.87,3.91,12.7,940.83,32.8
3115339,-0.01,-0.03,1.43,-7.81,4.46,12.63,940.87,32.8
3115377,-0.01,-0.04,1.42,-7.69,4.39,12.51,940.86,32.81
3115415,-0.01,-0.04,1.43,-8.0,4.21,12.51,940.86,32.81
3115453,-0.0,-0.04,1.42,-7.93,4.76,12.57,940.85,32.8
3115491,0.01,-0.03,1.44,-7.87,4.09,12.33,940.88,32.81
3115541,-0.02,-0.04,1.43,-7.93,4.27,12.51,940.81,32.8
3115579,-0.01,-0.04,1.42,-7.81,4.46,12.21,940.82,32.81
3115617,-0.02,-0.04,1.45,-7.2,4.39,12.02,940.89,32.81
3115655,-0.0,-0.04,1.42,-7.69,5.62,11.78,940.84,32.8
3115693,-0.01,-0.03,1.46,-7.26,4.76,11.78,940.82,32.8
3115732,-0.02,-0.04,1.42,-7.45,6.59,11.66,940.9,32.8
3115770,-0.0,-0.04,1.46,-7.39,5.92,11.41,940.81,32.8
3115808,-0.01,-0.04,1.48,-7.69,6.16,11.35,940.9,32.82
3115846,-0.0,-0.03,1.47,-7.87,4.7,11.54,940.86,32.82
3115896,-0.03,-0.04,1.52,-8.0,5.74,11.72,940.85,32.81
3115934,0.01,-0.03,1.51,-8.3,4.27,11.72,940.83,32.8
3115972,-0.0,-0.02,1.53,-7.93,3.48,11.72,940.83,32.81
3116010,-0.01,-0.04,1.45,-8.12,3.6,11.9,940.86,32.81
3116048,-0.01,-0.02,1.51,-7.57,2.93,11.6,940.87,32.8
3116086,0.02,-0.03,1.49,-7.75,3.72,11.41,940.86,32.81
3116124,-0.02,-0.02,1.51,-7.02,2.2,11.41,940.86,32.82
3116162,-0.01,-0.04,1.5,-7.14,3.3,11.35,940.81,32.8
3116201,0.01,-0.03,1.51,-6.77,2.69,11.17,940.87,32.82
3116239,-0.0,-0.03,1.52,-6.41,2.99,10.93,940.89,32.81
3116288,-0.0,-0.03,1.49,-6.16,3.42,10.93,940.86,32.8
3116327,-0.0,-0.03,1.51,-5.98,3.85,10.62,940.81,32.8
3116365,0.0,-0.03,1.48,-5.86,4.64,10.62,940.83,32.8
3116403,-0.01,-0.02,1.51,-5.62,4.09,10.62,940.85,32.82
3116441,-0.01,-0.02,1.5,-5.86,4.88,10.44,940.91,32.82
3116479,-0.0,-0.03,1.52,-5.49,5.13,10.19,940.86,32.82
3116517,-0.01,-0.03,1.52,-5.55,5.25,10.19,940.85,32.8
3116555,-0.0,-0.03,1.53,-5.25,5.55,10.01,940.85,32.82
3116593,0.0,-0.02,1.5,-5.31,6.1,10.13,940.78,32.82
3116643,0.01,-0.03,1.5,-4.94,6.84,9.89,940.84,32.8
3116681,-0.0,-0.03,1.41,-4.94,6.84,9.89,940.89,32.81
3116719,0.0,-0.03,1.44,-4.46,7.08,9.7,940.8,32.81
3116757,-0.0,-0.05,1.39,-4.09,7.45,9.7,940.8,32.81
3116795,0.02,-0.04,1.38,-3.72,6.23,9.58,940.84,32.82
3116834,0.01,-0.06,1.33,-3.72,8.0,9.83,940.83,32.81
3116872,0.02,-0.05,1.31,-3.48,7.08,9.7,940.78,32.81
3116910,-0.02,-0.06,1.31,-2.93,6.65,9.64,940.79,32.81
3116948,0.02,-0.06,1.22,-3.42,7.14,9.64,940.76,32.81
3116986,0.02,-0.05,1.28,-3.05,5.92,9.34,940.73,32.81
3117036,0.03,-0.07,1.18,-3.66,7.2,9.34,940.75,32.8
3117074,0.01,-0.06,1.21,-3.23,6.23,9.16,940.76,32.82
3117112,0.01,-0.06,1.17,-3.6,7.57,9.22,940.68,32.81
3117150,0.02,-0.05,1.24,-3.48,6.47,8.85,940.72,32.8
3117188,0.03,-0.06,1.23,-3.6,7.02,8.61,940.7,32.82
3117226,0.02,-0.06,1.25,-3.85,5.92,8.61,940.72,32.82
3117264,0.01,-0.05,1.29,-3.54,5.98,8.3,940.7,32.81
3117302,0.01,-0.05,1.27,-3.72,5.49,8.61,940.77,32.81
3117340,0.01,-0.05,1.3,-3.78,4.94,8.48,940.81,32.82
3117390,-0.02,-0.05,1.25,-3.78,5.13,8.42,940.77,32.8
3117428,0.01,-0.05,1.29,-3.54,4.7,8.24,940.74,32.81
3117466,0.01,-0.06,1.24,-3.72,4.94,8.18,940.78,32.81
3117504,0.0,-0.04,1.27,-3.36,4.15,8.18,940.7,32.81
3117542,-0.0,-0.06,1.25,-3.54,5.43,8.12,940.74,32.82
3117580,0.0,-0.05,1.24,-3.23,4.76,8.0,940.7,32.8
3117618,-0.01,-0.05,1.25,-3.23,4.09,8.24,940.78,32.81
3117657,-0.01,-0.06,1.25,-3.17,4.39,8.0,940.8,32.81
3117695,0.0,-0.07,1.24,-2.93,4.39,8.0,940.7,32.81
3117733,0.01,-0.05,1.27,-2.93,3.97,8.06,940.74,32.81
3117808,-0.01,-0.05,1.24,-2.87,4.46,8.0,940.77,32.8
3117847,-0.01,-0.05,1.26,-2.38,4.33,7.69,940.72,32.79
3117885,-0.01,-0.06,1.27,-1.95,4.46,8.0,940.78,32.8
3118049,0.01,-0.06,1.21,-0.43,5.19,7.69,940.71,32.73
3118087,-0.01,-0.07,1.19,0.0,5.37,7.75,940.65,32.76
3118125,0.0,-0.06,1.1,-0.43,6.04,7.69,940.63,32.75
3118163,0.01,-0.05,1.14,0.18,5.74,7.63,940.66,32.76
3118201,-0.01,-0.08,1.03,0.06,7.08,7.57,940.67,32.77
3118239,-0.02,-0.08,1.04,0.49,6.35,7.32,940.73,32.78
3118289,0.0,-0.09,0.94,-0.18,9.52,7.32,940.63,32.77
3118327,-0.02,-0.07,0.92,-0.98,8.48,7.32,940.63,32.76
3118365,-0.01,-0.08,0.89,-2.32,9.77,7.51,940.66,32.77
3118403,-0.0,-0.07,0.93,-2.87,7.69,7.32,940.63,32.76
3118441,-0.05,-0.08,0.93,-3.91,8.91,7.63,940.66,32.78
3118479,-0.04,-0.1,0.88,-4.64,9.28,7.63,940.62,32.78
3118518,-0.01,-0.07,1.02,-5.19,7.51,7.69,940.62,32.78
3118556,-0.01,-0.09,0.99,-5.86,8.61,7.93,940.59,32.79
3118594,-0.03,-0.08,1.07,-5.86,6.29,7.81,940.66,32.78
3118632,-0.0,-0.08,1.07,-6.04,8.0,8.12,940.65,32.79
3118682,-0.02,-0.06,1.04,-5.68,6.04,8.3,940.75,32.78
3118720,0.0,-0.09,1.04,-5.37,8.18,8.12,940.75,32.8
3118758,-0.06,-0.09,0.89,-4.64,8.18,8.06,940.76,32.78
3118796,-0.06,-0.08,0.93,-2.93,5.43,8.42,940.73,32.8
3118834,0.03,-0.1,0.92,-3.17,7.14,8.24,940.73,32.78
3118872,-0.01,-0.07,0.99,-2.62,4.58,7.93,940.66,32.79
3118910,-0.05,-0.07,0.99,-2.26,6.77,8.61,940.69,32.79
3118948,0.01,-0.1,1.05,-2.01,5.92,8.61,940.61,32.79
3118987,0.01,-0.07,1.14,-2.81,5.49,8.61,940.67,32.8
3119036,-0.0,-0.07,1.27,-2.62,3.85,9.09,940.55,32.78
3119074,-0.02,-0.05,1.24,-3.3,6.16,9.09,940.6,32.8
3119113,-0.01,-0.06,1.29,-2.81,3.11,9.28,940.61,32.8
3119151,0.01,-0.06,1.32,-3.23,2.75,9.46,940.63,32.8
3119189,-0.02,-0.06,1.29,-3.6,1.77,9.4,940.63,32.8
3119227,0.01,-0.04,1.37,-3.85,1.4,9.28,940.64,32.78
3119265,-0.01,-0.04,1.38,-4.09,0.37,9.34,940.65,32.8
3119303,-0.01,-0.04,1.42,-4.15,0.12,9.46,940.57,32.78
3119341,0.01,-0.05,1.45,-4.33,0.49,9.16,940.63,32.8
3119379,-0.01,-0.04,1.47,-4.09,2.5,9.16,940.58,32.8
3119429,0.0,-0.04,1.47,-4.03,2.2,9.52,940.64,32.77
3119467,-0.03,-0.02,1.47,-3.6,3.11,8.91,940.61,32.79
3119505,-0.04,-0.02,1.45,-3.6,4.15,9.09,940.61,32.79
3119543,-0.01,-0.03,1.5,-3.05,3.54,8.97,940.59,32.78
3119582,-0.01,-0.03,1.49,-3.3,4.94,9.09,940.58,32.8
3119620,-0.03,-0.03,1.43,-3.05,5.55,9.28,940.57,32.79
3119658,-0.01,-0.02,1.46,-1.71,4.82,9.34,940.54,32.79
3119696,-0.01,-0.04,1.34,-1.83,6.47,9.46,940.56,32.79
3119734,-0.01,-0.03,1.37,-1.53,3.78,9.52,940.58,32.79
3119772,-0.02,-0.06,1.27,-1.59,5.31,9.77,940.6,32.8
3119822,-0.02,-0.03,1.22,-1.22,3.78,9.83,940.51,32.77
3119860,0.0,-0.05,1.2,-0.85,5.07,9.77,940.52,32.78
3119898,-0.0,-0.06,1.11,-1.16,4.64,9.95,940.57,32.8
3119936,-0.01,-0.05,1.13,-0.79,4.94,10.01,940.52,32.8
3119974,-0.01,-0.06,1.05,-1.04,5.8,10.13,940.48,32.8
3120013,0.01,-0.06,1.06,-0.73,4.52,10.19,940.52,32.81
3120051,-0.01,-0.06,0.99,-1.1,5.8,10.19,940.51,32.81
3120089,-0.02,-0.05,1.03,-0.49,5.49,10.13,940.46,32.8
3120127,0.01,-0.06,0.99,-0.98,7.51,10.25,940.45,32.8
3120177,-0.03,-0.05,1.01,-0.61,6.84,10.38,940.47,32.79
3120215,-0.0,-0.07,0.97,-0.92,9.22,10.38,940.49,32.8
3120253,0.01,-0.06,0.98,-1.16,10.31,10.19,940.44,32.79
3120291,-0.01,-0.04,0.99,-0.73,9.16,10.38,940.48,32.81
3120329,0.01,-0.05,0.98,-0.92,8.54,10.38,940.47,32.79
3120367,-0.0,-0.04,1.07,-0.61,7.14,10.13,940.49,32.81
3120406,-0.01,-0.05,1.13,-0.67,6.65,10.56,940.44,32.8
3120444,0.01,-0.06,1.15,-0.67,6.04,10.56,940.45,32.8
3120482,-0.02,-0.04,1.19,0.0,6.04,10.25,940.45,32.8
3120531,0.0,-0.04,1.15,-0.55,7.81,10.44,940.48,32.79
3120570,-0.0,-0.04,1.12,0.31,7.26,10.19,940.49,32.8
3120608,-0.01,-0.05,1.04,0.49,8.12,10.38,940.47,32.79
3120646,0.01,-0.04,1.08,0.98,8.24,10.38,940.47,32.81
3120684,0.01,-0.06,1.05,1.22,8.36,10.44,940.47,32.81
3120722,-0.0,-0.06,1.05,1.53,5.0,10.31,940.51,32.8
3120760,-0.0,-0.07,1.03,1.65,5.25,10.38,940.49,32.8
3120798,0.02,-0.07,1.01,1.28,4.7,10.25,940.46,32.8
3120836,0.03,-0.06,1.05,1.77,2.56,10.19,940.52,32.8
3120874,0.02,-0.08,0.96,1.46,2.81,10.19,940.48,32.81
3120950,0.01,-0.07,0.94,1.71,2.5,9.58,940.47,32.78
3120988,0.02,-0.07,0.96,1.71,-0.37,9.4,940.48,32.79
3121026,0.0,-0.06,0.93,1.46,0.98,9.22,940.44,32.8
3121116,-0.0,-0.07,0.9,1.59,0.92,8.48,940.46,32.77
3121154,-0.0,-0.08,0.86,1.59,0.18,8.36,940.41,32.76
3121192,-0.01,-0.06,0.86,1.65,0.79,8.3,940.43,32.78
3121230,-0.01,-0.07,0.84,1.46,2.14,8.18,940.45,32.79
3121268,-0.0,-0.08,0.84,1.53,3.05,8.06,940.44,32.78
3121306,-0.02,-0.07,0.84,1.71,3.91,8.06,940.44,32.79
3121344,-0.03,-0.08,0.83,1.95,5.19,8.18,940.36,32.79
3121394,-0.0,-0.06,0.82,2.26,6.53,7.81,940.39,32.78
3121432,-0.02,-0.07,0.72,2.32,7.81,7.93,940.48,32.79
3121470,-0.01,-0.07,0.68,2.56,7.26,8.0,940.44,32.81
3121508,-0.01,-0.08,0.73,3.11,7.08,7.75,940.43,32.79
3121546,0.02,-0.09,0.6,1.71,8.3,7.87,940.4,32.8
3121584,-0.0,-0.06,0.69,2.08,3.23,7.87,940.4,32.79
3121622,-0.01,-0.1,0.66,0.92,5.13,7.87,940.42,32.8
3121660,-0.01,-0.08,0.72,-0.06,3.85,7.69,940.4,32.8
3121698,0.0,-0.08,0.8,-0.12,2.32,7.69,940.44,32.8
3121748,-0.01,-0.07,0.75,-1.04,-0.18,7.81,940.47,32.78
3121786,-0.01,-0.07,0.77,-1.34,0.85,7.63,940.49,32.79
3121824,-0.01,-0.08,0.8,-1.34,1.04,7.69,940.46,32.8
3121862,-0.01,-0.07,0.83,-1.34,-0.31,7.63,940.5,32.8
3121900,-0.01,-0.07,0.86,-1.53,0.0,7.57,940.53,32.81
3121938,-0.03,-0.06,0.93,-1.4,0.49,7.69,940.53,32.79
3121976,-0.02,-0.09,0.94,-1.4,1.53,7.51,940.52,32.8
3122015,-0.03,-0.08,0.93,-1.22,0.92,7.57,940.55,32.81
3122053,-0.02,-0.07,0.89,-1.46,1.77,7.63,940.5,32.8
3122091,-0.01,-0.07,0.85,-1.4,2.5,7.57,940.56,32.81
3122140,-0.03,-0.08,0.83,-1.28,2.44,7.69,940.48,32.79
3122179,-0.04,-0.07,0.82,-1.53,1.95,7.75,940.49,32.8
3122217,-0.06,-0.07,0.85,-1.65,2.5,8.0,940.48,32.79
3122255,-0.04,-0.07,0.92,-2.01,2.93,8.12,940.53,32.81
3122293,-0.05,-0.06,0.99,-2.08,3.3,8.12,940.52,32.79
3122331,-0.05,-0.07,1.02,-2.75,4.88,8.42,940.5,32.81
3122369,-0.03,-0.06,1.1,-2.81,4.94,8.48,940.52,32.8
3122407,-0.05,-0.06,1.11,-2.99,6.41,8.61,940.54,32.79
3122445,-0.06,-0.05,1.14,-2.81,5.62,8.85,940.62,32.8
3122495,-0.05,-0.05,1.17,-2.81,6.9,9.22,940.66,32.8
3122533,-0.04,-0.05,1.2,-2.87,7.51,9.4,940.64,32.8
3122571,-0.03,-0.04,1.26,-2.56,7.02,9.58,940.69,32.8
3122609,-0.05,-0.05,1.26,-2.32,7.75,9.77,940.64,32.8
3122647,-0.05,-0.05,1.28,-1.95,7.39,10.01,940.71,32.8
3122685,-0.04,-0.04,1.29,-1.95,7.75,10.31,940.69,32.8
3122723,-0.03,-0.04,1.26,-1.77,7.32,10.44,940.71,32.81
3122762,-0.03,-0.04,1.24,-1.59,6.59,10.74,940.76,32.82
3122800,-0.03,-0.04,1.22,-1.53,7.14,10.86,940.75,32.82
3122838,-0.03,-0.05,1.23,-1.53,6.59,10.99,940.72,32.8
3122888,-0.04,-0.05,1.24,-1.46,6.35,11.11,940.78,32.82
3122926,-0.03,-0.05,1.24,-1.71,6.77,11.47,940.79,32.81
3122964,-0.02,-0.06,1.23,-1.89,7.51,11.11,940.7,32.8
3123002,-0.03,-0.06,1.21,-2.01,7.32,11.47,940.82,32.81
3123040,-0.02,-0.06,1.19,-2.14,7.2,11.54,940.77,32.81
3123078,-0.02,-0.05,1.19,-2.26,7.39,11.47,940.77,32.82
3123116,-0.02,-0.05,1.22,-2.62,7.08,11.6,940.81,32.81
3123154,-0.02,-0.06,1.2,-3.05,7.87,11.72,940.81,32.83
3123193,-0.01,-0.05,1.22,-2.93,7.69,11.54,940.83,32.81
3123242,0.0,-0.06,1.28,-3.23,7.63,11.72,940.83,32.79
3123280,-0.0,-0.06,1.27,-3.48,7.39,11.78,940.82,32.8
3123319,0.01,-0.05,1.32,-2.93,5.98,11.78,940.85,32.8
3123357,-0.01,-0.05,1.3,-3.48,6.71,11.84,940.84,32.79
3123395,-0.01,-0.05,1.3,-3.23,6.04,11.66,940.9,32.8
3123433,0.01,-0.05,1.35,-3.05,6.04,11.84,940.82,32.8
3123471,0.02,-0.05,1.31,-2.99,6.53,11.72,940.85,32.81
3123509,0.0,-0.04,1.35,-2.81,5.62,11.47,940.89,32.82
3123547,0.01,-0.05,1.36,-2.69,6.41,11.29,940.86,32.8
3123597,0.0,-0.05,1.37,-2.26,4.03,11.41,940.91,32.8
3123635,0.02,-0.05,1.41,-1.83,3.3,11.35,940.89,32.79
3123673,0.02,-0.07,1.3,-1.4,3.36,10.8,940.87,32.79
3123711,0.04,-0.05,1.35,-0.92,0.79,10.56,940.95,32.8
3123749,0.04,-0.08,1.27,-1.34,1.95,10.31,940.86,32.8
3123788,0.01,-0.05,1.22,-0.79,0.55,9.95,940.92,32.8
3123826,0.0,-0.07,1.23,-0.85,1.34,9.34,940.97,32.81
3123864,0.03,-0.07,1.17,-1.1,1.1,9.03,940.9,32.82
3123902,0.01,-0.06,1.21,-0.49,-1.04,8.91,940.88,32.8
3123940,0.02,-0.08,1.17,-0.85,-0.24,8.48,940.89,32.8
3124016,0.03,-0.07,1.16,-0.98,-1.53,8.06,940.95,32.76
3124054,0.0,-0.08,1.11,-1.89,-1.59,7.81,940.86,32.8
3124092,-0.0,-0.08,1.11,-2.56,-1.95,7.57,940.91,32.79
3124181,0.01,-0.08,1.13,-3.85,-2.38,6.96,940.92,32.76
3124220,0.02,-0.07,1.15,-4.39,-2.5,6.59,940.92,32.77
3124258,0.0,-0.07,1.21,-4.27,-2.93,6.59,940.95,32.78
3124296,-0.01,-0.07,1.2,-4.15,-2.14,6.23,940.95,32.79
3124334,0.0,-0.07,1.25,-3.48,-1.95,5.92,940.96,32.78
3124372,-0.01,-0.07,1.27,-3.3,-1.4,5.62,940.97,32.78
3124422,-0.01,-0.05,1.33,-2.69,-1.53,5.37,941.02,32.78
3124460,-0.03,-0.05,1.32,-2.75,0.31,5.19,941.01,32.79
3124498,-0.02,-0.05,1.35,-2.26,0.92,4.88,940.95,32.77
3124536,-0.04,-0.04,1.36,-1.65,2.2,4.88,941.01,32.78
3124574,-0.04,-0.05,1.33,-1.28,3.36,5.07,940.97,32.78
3124612,-0.03,-0.04,1.34,-1.04,3.23,4.88,941.02,32.79
3124650,-0.03,-0.05,1.33,-0.85,4.09,4.88,941.03,32.8
3124688,-0.03,-0.06,1.31,-0.49,3.36,5.0,941.03,32.8
3124726,-0.02,-0.06,1.31,-0.43,2.81,4.94,941.04,32.8
3124764,-0.04,-0.07,1.28,-0.49,2.32,5.25,941.01,32.8
3124814,-0.04,-0.06,1.28,-0.55,0.85,5.43,940.99,32.79
3124852,-0.04,-0.05,1.29,-0.73,-0.31,5.49,940.98,32.78
3124890,-0.05,-0.06,1.29,-0.61,-0.79,5.37,941.02,32.8
3124928,-0.05,-0.06,1.26,-0.85,-0.98,5.55,940.97,32.79
3124967,-0.05,-0.05,1.26,-0.61,-1.34,5.62,940.98,32.81
3125005,-0.05,-0.06,1.23,-0.85,-1.22,5.55,941.0,32.8
3125043,-0.05,-0.05,1.23,-0.24,-1.83,5.62,941.01,32.8
3125081,-0.06,-0.07,1.2,-0.24,-0.92,5.68,941.0,32.81
3125119,-0.05,-0.07,1.18,0.18,-0.85,5.68,941.01,32.81
3125169,-0.05,-0.07,1.16,0.24,-0.37,5.62,941.04,32.79
3125207,-0.05,-0.06,1.13,0.18,-0.31,5.68,940.94,32.79
3125245,-0.07,-0.07,1.12,0.43,0.12,5.74,940.94,32.8
3125283,-0.06,-0.07,1.1,0.24,0.55,5.8,940.97,32.81
3125321,-0.06,-0.08,1.08,-0.18,0.18,6.04,940.95,32.8
3125359,-0.07,-0.06,1.06,-0.49,0.31,6.04,940.95,32.81
3125397,-0.06,-0.06,1.02,-1.04,0.31,6.16,940.97,32.83
3125436,-0.04,-0.06,1.06,-1.34,0.31,6.29,940.94,32.81
3125474,-0.05,-0.08,1.01,-2.32,1.4,6.53,941.0,32.81
3125512,-0.08,-0.07,1.03,-2.56,1.71,6.71,941.01,32.81
3125561,-0.07,-0.07,1.07,-2.87,3.78,6.77,940.98,32.81
3125599,-0.08,-0.06,1.09,-3.36,4.03,7.14,941.01,32.8
3125638,-0.08,-0.06,1.12,-3.48,4.76,7.26,940.97,32.8
3125676,-0.07,-0.07,1.11,-4.21,5.55,7.81,940.98,32.8
3125714,-0.05,-0.06,1.13,-4.64,5.31,7.87,940.98,32.81
3125752,-0.07,-0.05,1.16,-5.13,5.19,8.24,940.98,32.81
3125790,-0.07,-0.05,1.18,-5.37,5.07,8.54,940.96,32.8
3125828,-0.05,-0.05,1.22,-5.55,4.88,8.73,941.0,32.83
3125866,-0.06,-0.05,1.26,-5.8,4.52,8.91,941.0,32.81
3125916,-0.06,-0.05,1.29,-5.86,4.64,9.34,940.99,32.8
3125954,-0.06,-0.04,1.34,-5.68,4.64,9.58,941.02,32.81
3125992,-0.05,-0.04,1.36,-5.62,4.94,9.89,941.01,32.82
3126031,-0.06,-0.04,1.36,-5.25,4.58,10.13,940.97,32.81
3126069,-0.06,-0.04,1.36,-4.88,4.82,10.19,940.97,32.83
3126107,-0.05,-0.04,1.36,-4.76,4.82,10.25,940.95,32.81
3126145,-0.06,-0.04,1.38,-4.09,4.21,10.56,940.99,32.81
3126183,-0.05,-0.05,1.33,-4.39,4.33,10.8,941.0,32.82
3126221,-0.05,-0.04,1.35,-4.15,3.6,10.8,941.01,32.82
3126271,-0.05,-0.04,1.3,-4.33,3.54,10.99,940.99,32.81
3126309,-0.04,-0.04,1.32,-4.15,3.23,10.93,940.95,32.8
3126347,-0.05,-0.04,1.32,-4.58,3.85,10.86,940.97,32.81
3126386,-0.03,-0.04,1.35,-4.46,3.97,10.99,940.98,32.81
3126424,-0.04,-0.04,1.38,-4.94,3.91,11.05,940.85,32.8
3126462,-0.05,-0.04,1.38,-5.0,3.85,11.23,940.92,32.81
3126500,-0.04,-0.04,1.37,-5.25,3.97,11.17,940.94,32.81
3126538,-0.03,-0.03,1.39,-5.13,3.54,11.17,940.9,32.81
3126576,-0.04,-0.05,1.34,-5.19,4.03,11.11,940.92,32.82
3126614,-0.02,-0.04,1.37,-4.94,3.17,11.17,940.89,32.81
3126664,-0.04,-0.03,1.37,-4.7,3.17,11.35,940.88,32.8
3126702,-0.05,-0.03,1.37,-4.64,3.23,11.6,940.9,32.81
3126740,-0.04,-0.04,1.37,-4.52,3.97,11.29,940.89,32.81
3126778,-0.05,-0.03,1.38,-4.15,3.72,11.41,940.87,32.8
3126817,-0.04,-0.04,1.36,-4.33,4.21,11.78,940.91,32.81
3126855,-0.04,-0.04,1.35,-4.21,3.78,11.47,940.88,32.81
3126893,-0.04,-0.04,1.33,-4.03,4.09,11.6,940.89,32.82
3126931,-0.03,-0.03,1.33,-4.27,3.97,11.78,940.82,32.8
3126969,-0.04,-0.04,1.31,-4.21,3.91,11.66,940.89,32.82
3127045,-0.03,-0.04,1.34,-4.64,3.05,11.66,940.89,32.79
3127083,-0.05,-0.05,1.32,-4.58,3.48,11.66,940.87,32.8
3127121,-0.04,-0.05,1.3,-4.46,2.81,11.54,940.84,32.8
3127211,-0.04,-0.05,1.3,-3.97,2.93,11.72,940.83,32.77
3127249,-0.04,-0.05,1.28,-3.72,3.05,11.54,940.83,32.78
3127287,-0.03,-0.05,1.26,-3.6,3.48,11.41,940.86,32.79
3127325,-0.03,-0.05,1.29,-2.81,2.26,11.54,940.83,32.79
3127363,-0.02,-0.05,1.25,-2.87,1.89,11.54,940.79,32.8
3127401,-0.03,-0.05,1.29,-2.81,0.98,11.54,940.84,32.79
3127451,-0.02,-0.06,1.28,-2.75,0.73,11.29,940.81,32.8
3127489,-0.02,-0.05,1.26,-2.75,-0.18,11.23,940.78,32.81
3127527,-0.03,-0.05,1.24,-3.05,-0.24,11.17,940.81,32.8
3127565,-0.01,-0.05,1.25,-2.87,-0.49,11.11,940.71,32.79
3127604,-0.02,-0.06,1.23,-3.3,0.37,10.99,940.76,32.8
3127642,-0.04,-0.05,1.22,-3.05,-0.06,10.8,940.77,32.8
3127680,-0.03,-0.06,1.23,-3.23,1.04,10.5,940.72,32.81
3127718,-0.03,-0.05,1.22,-3.48,1.28,10.74,940.73,32.81
3127756,-0.03,-0.05,1.23,-3.36,1.65,10.56,940.71,32.8
3127794,-0.04,-0.06,1.19,-3.54,1.83,10.62,940.72,32.82
3127844,-0.05,-0.05,1.21,-2.99,1.83,10.44,940.68,32.78
3127882,-0.03,-0.09,1.19,-3.6,3.72,10.5,940.7,32.81
3127920,-0.02,-0.06,1.17,-3.36,3.11,10.56,940.7,32.81
3127958,-0.04,-0.06,1.16,-3.11,3.17,10.68,940.67,32.81
3127997,-0.03,-0.06,1.11,-3.48,4.46,10.86,940.66,32.81
3128035,-0.03,-0.05,1.18,-2.93,2.44,10.8,940.69,32.81
3128073,-0.06,-0.07,1.12,-3.3,3.48,10.93,940.63,32.81
3128111,-0.02,-0.07,1.11,-3.42,2.75,10.99,940.59,32.81
3128149,-0.01,-0.06,1.11,-3.54,2.99,11.05,940.63,32.81
3128199,-0.04,-0.07,1.04,-3.78,2.2,11.11,940.66,32.8
3128237,-0.03,-0.07,1.05,-3.36,2.01,11.05,940.58,32.8
3128275,-0.04,-0.09,1.0,-3.48,3.78,11.17,940.61,32.8
3128313,-0.02,-0.08,0.95,-3.36,2.99,11.23,940.59,32.81
3128351,-0.05,-0.08,0.91,-3.23,3.17,11.11,940.51,32.8
3128390,-0.02,-0.08,0.92,-3.54,4.64,10.68,940.55,32.8
3128428,-0.02,-0.08,0.9,-3.48,5.43,10.74,940.52,32.81
3128466,-0.02,-0.08,0.93,-3.66,6.41,10.74,940.57,32.81
3128504,-0.04,-0.08,0.94,-3.48,5.49,11.05,940.51,32.81
3128554,-0.04,-0.07,1.03,-3.72,4.7,10.99,940.54,32.8
3128592,-0.02,-0.08,1.02,-4.03,5.31,10.99,940.48,32.81
3128630,-0.02,-0.06,1.06,-4.27,3.48,11.17,940.45,32.81
3128668,-0.02,-0.07,1.1,-4.46,3.05,11.47,940.45,32.81
3128706,-0.02,-0.07,1.12,-4.94,2.87,11.35,940.51,32.81
3128745,-0.02,-0.06,1.13,-4.82,3.3,11.11,940.46,32.81
3128783,-0.0,-0.05,1.16,-4.64,2.44,11.29,940.5,32.82
3128821,-0.02,-0.06,1.17,-4.21,2.2,11.11,940.48,32.82
3128859,-0.0,-0.06,1.16,-5.07,2.38,10.99,940.49,32.81
3128897,-0.03,-0.06,1.24,-4.33,1.83,10.8,940.41,32.81
3128947,-0.02,-0.07,1.23,-4.33,1.16,10.93,940.4,32.8
3128985,-0.02,-0.05,1.25,-4.27,0.18,10.86,940.4,32.8
3129023,-0.01,-0.06,1.26,-4.03,0.67,10.93,940.45,32.81
3129061,-0.02,-0.06,1.24,-3.66,0.18,10.99,940.42,32.81
3129099,-0.01,-0.07,1.25,-3.3,1.04,10.38,940.43,32.81
3129137,-0.04,-0.06,1.23,-3.23,1.89,10.44,940.39,32.81
3129176,-0.02,-0.05,1.25,-2.56,2.32,10.44,940.44,32.82
3129214,-0.03,-0.06,1.21,-2.99,2.5,10.38,940.36,32.82
3129252,-0.06,-0.05,1.2,-2.44,3.42,10.19,940.41,32.83
3129302,-0.06,-0.07,1.14,-2.01,4.94,10.31,940.3,32.8
3129340,-0.02,-0.06,1.11,-2.2,4.88,10.13,940.3,32.81
3129378,-0.02,-0.07,1.03,-2.32,6.23,9.95,940.3,32.82
3129416,-0.03,-0.07,1.01,-2.32,6.23,10.07,940.34,32.82
3129454,-0.03,-0.07,1.04,-2.69,6.23,9.95,940.27,32.81
3129492,-0.03,-0.07,1.03,-3.17,6.9,10.25,940.33,32.82
3129530,-0.03,-0.07,1.07,-3.85,6.16,10.25,940.29,32.82
3129568,-0.04,-0.07,1.09,-3.97,7.02,10.31,940.27,32.81
3129607,-0.01,-0.07,1.09,-4.46,7.32,10.5,940.28,32.82
3129656,-0.02,-0.07,1.13,-4.7,6.23,10.56,940.25,32.8
3129694,-0.02,-0.07,1.07,-5.49,5.92,10.93,940.25,32.82
3129733,-0.03,-0.06,1.07,-5.43,4.52,10.62,940.2,32.81
3129771,-0.02,-0.07,1.06,-5.62,4.7,10.74,940.31,32.82
3129809,-0.01,-0.07,1.08,-5.62,3.72,10.86,940.29,32.81
3129847,-0.02,-0.07,1.09,-5.62,3.17,10.93,940.26,32.81
3129885,-0.02,-0.07,1.11,-5.92,3.17,10.99,940.26,32.82
3129923,-0.03,-0.07,1.12,-6.1,4.03,11.11,940.18,32.82
3129961,-0.03,-0.07,1.11,-5.98,4.46,11.05,940.21,32.81
3130037,-0.03,-0.06,1.19,-6.1,4.94,10.93,940.19,32.78
3130075,-0.02,-0.04,1.3,-6.29,5.8,10.86,940.19,32.8
3130113,-0.0,-0.05,1.35,-5.98,7.26,10.8,940.16,32.8
3130203,-0.03,-0.05,1.44,-5.62,8.48,10.8,940.2,32.78
3130241,-0.01,-0.04,1.45,-5.37,8.91,10.86,940.23,32.79
3130279,-0.05,-0.03,1.42,-4.94,8.79,10.93,940.2,32.8
3130317,-0.01,-0.03,1.45,-4.46,8.3,11.05,940.18,32.8
3130355,0.0,-0.04,1.39,-5.13,9.58,11.05,940.11,32.79
3130393,-0.01,-0.04,1.38,-4.52,9.28,10.99,940.13,32.8
3130431,-0.02,-0.05,1.36,-4.58,10.07,11.05,940.21,32.81
3130481,-0.03,-0.04,1.4,-4.27,10.74,10.93,940.2,32.8
3130519,-0.02,-0.05,1.41,-3.72,10.86,10.93,940.25,32.81
3130557,-0.0,-0.05,1.35,-3.36,10.8,10.99,940.19,32.8
3130595,-0.01,-0.04,1.35,-3.23,10.31,10.86,940.17,32.81
3130634,0.0,-0.05,1.34,-3.66,10.25,11.05,940.15,32.81
3130672,0.01,-0.04,1.36,-3.85,8.97,11.05,940.11,32.81
3130710,-0.01,-0.04,1.37,-3.78,9.77,10.93,940.1,32.8
3130748,-0.0,-0.05,1.33,-3.97,10.44,11.05,940.15,32.81
3130786,-0.01,-0.03,1.39,-3.36,8.79,10.68,940.11,32.81
3130836,0.01,-0.05,1.31,-3.85,9.4,10.74,940.05,32.79
3130874,-0.01,-0.02,1.36,-3.11,7.02,10.86,940.13,32.8
3130912,-0.01,-0.04,1.35,-3.3,7.14,10.86,940.11,32.81
3130950,0.01,-0.04,1.35,-3.23,6.41,10.62,940.08,32.82
3130988,-0.02,-0.04,1.39,-2.87,5.49,10.68,940.07,32.81
3131026,-0.0,-0.06,1.33,-3.11,5.86,10.68,940.1,32.83
3131064,-0.0,-0.04,1.32,-2.2,4.58,10.44,940.11,32.81
3131103,0.01,-0.07,1.27,-2.01,5.43,10.56,940.01,32.81
3131141,-0.0,-0.07,1.23,-1.71,3.85,10.44,940.04,32.82
3131190,-0.02,-0.06,1.25,-0.98,4.52,10.31,940.04,32.81
3131229,-0.01,-0.06,1.25,-0.61,4.27,10.38,939.98,32.81
3131267,-0.02,-0.06,1.25,-0.37,5.07,10.25,939.93,32.81
3131305,-0.02,-0.07,1.17,0.24,5.37,10.01,940.02,32.82
3131343,-0.02,-0.07,1.12,0.55,6.16,10.13,939.95,32.82
3131381,-0.0,-0.07,1.08,0.24,6.47,10.19,939.87,32.83
3131419,-0.02,-0.06,1.09,0.67,5.62,10.13,939.88,32.81
3131457,-0.0,-0.07,1.1,0.43,6.96,10.13,939.88,32.82
3131495,-0.01,-0.06,1.07,-0.31,6.77,9.95,939.89,32.84
3131533,-0.02,-0.06,1.1,-0.24,5.86,10.07,939.86,32.83
3131583,0.0,-0.07,1.05,-1.16,7.51,10.01,939.83,32.81
3131621,0.0,-0.07,1.17,-0.67,6.59,9.64,939.89,32.82
3131659,-0.01,-0.09,1.05,-1.1,8.0,9.77,939.8,32.8
3131697,0.0,-0.07,1.09,-0.92,6.41,9.58,939.83,32.81
3131735,-0.02,-0.07,1.01,-1.34,8.42,9.64,939.81,32.83
3131773,-0.0,-0.05,1.0,-1.46,6.35,9.7,939.71,32.82
3131812,-0.01,-0.06,1.08,-1.34,7.02,9.46,939.71,32.8
3131850,-0.0,-0.07,1.02,-1.77,9.4,9.28,939.67,32.81
3131888,0.0,-0.05,1.17,-0.85,8.97,9.16,939.68,32.81
3131938,0.01,-0.07,1.14,-1.16,11.54,9.22,939.66,32.81
3131976,0.01,-0.04,1.21,-0.73,12.45,9.16,939.62,32.8
3132014,0.0,-0.06,1.18,-0.12,15.14,8.97,939.64,32.81
3132052,0.02,-0.06,1.14,0.06,15.32,8.79,939.63,32.82
3132090,0.03,-0.06,1.11,0.79,15.14,8.79,939.6,32.83
3132128,0.02,-0.05,1.09,0.55,15.08,8.85,939.55,32.82
3132166,0.04,-0.05,1.13,0.79,15.38,8.73,939.51,32.81
3132204,0.03,-0.06,1.11,1.04,15.44,8.54,939.58,32.83
3132243,0.03,-0.06,1.14,1.46,14.89,8.42,939.52,32.82
3132281,0.04,-0.07,1.1,1.53,15.99,8.3,939.59,32.82
3132330,0.05,-0.06,1.05,1.71,15.5,8.0,939.52,32.81
3132369,0.0,-0.06,1.05,2.26,15.2,7.93,939.51,32.8
3132407,0.05,-0.07,1.0,2.5,15.5,7.75,939.5,32.81
3132445,0.05,-0.07,0.97,2.2,15.87,7.39,939.49,32.82
3132483,0.03,-0.07,0.96,2.38,14.77,7.39,939.55,32.83
3132521,0.02,-0.08,0.92,2.26,15.32,7.08,939.45,32.81
3132559,0.05,-0.07,0.92,2.2,15.2,6.84,939.44,32.83
3132597,0.04,-0.08,0.93,2.26,15.56,6.71,939.45,32.83
3132635,0.04,-0.07,0.88,2.01,15.14,6.59,939.47,32.82
3132674,0.03,-0.07,0.9,2.2,14.53,6.35,939.39,32.81
3132723,0.05,-0.07,0.89,1.89,14.47,5.86,939.39,32.8
3132762,0.03,-0.08,0.92,1.83,13.85,5.98,939.4,32.82
3132800,0.04,-0.08,0.91,1.71,12.76,5.74,939.4,32.81
3132838,0.03,-0.08,0.93,1.77,12.15,5.37,939.46,32.83
3132876,0.03,-0.08,0.92,1.46,12.57,5.13,939.44,32.83
3132914,0.05,-0.08,0.96,1.59,11.47,5.07,939.43,32.81
3132952,0.04,-0.08,0.94,1.4,11.72,4.7,939.45,32.82
3132990,0.02,-0.07,0.98,1.77,11.05,4.58,939.43,32.84
3133028,0.02,-0.07,0.95,1.34,11.72,4.46,939.44,32.83
3133104,0.02,-0.07,1.0,1.71,10.5,3.85,939.52,32.8
3133142,0.02,-0.06,1.08,1.95,7.63,3.72,939.55,32.8
3133180,-0.01,-0.06,1.09,2.01,5.55,3.91,939.49,32.81
3133270,-0.02,-0.06,1.03,2.01,1.28,3.66,939.45,32.78
3133308,-0.02,-0.06,1.06,2.32,0.18,3.66,939.5,32.79
3133346,-0.03,-0.06,1.03,2.32,0.79,3.6,939.49,32.79
3133384,-0.03,-0.06,1.04,2.75,1.04,3.54,939.49,32.8
3133422,-0.02,-0.06,1.03,2.81,1.59,3.78,939.45,32.79
3133460,-0.04,-0.06,1.02,3.11,2.5,3.66,939.5,32.81
3133499,-0.04,-0.07,0.97,3.23,2.81,3.54,939.47,32.8
3133548,-0.04,-0.06,0.97,3.97,2.75,3.6,939.5,32.8
3133586,-0.04,-0.07,0.91,3.72,3.72,3.85,939.48,32.8
3133625,-0.03,-0.06,0.93,4.46,2.69,3.97,939.46,32.8
3133663,-0.05,-0.06,0.9,4.88,3.23,4.15,939.47,32.8
3133701,-0.06,-0.06,0.89,5.13,3.72,4.15,939.44,32.82
3133739,-0.04,-0.07,0.89,5.13,4.64,4.39,939.35,32.8
3133777,-0.04,-0.07,0.89,5.25,3.6,4.58,939.44,32.82
3133815,-0.05,-0.07,0.85,5.25,4.09,4.76,939.34,32.82
3133853,-0.04,-0.06,0.88,5.37,3.23,4.88,939.35,32.81
3133891,-0.02,-0.07,0.84,4.94,1.53,5.13,939.23,32.82
3133941,-0.02,-0.07,0.84,4.52,-1.89,5.19,939.14,32.8
3133979,-0.02,-0.08,0.81,3.6,-3.36,5.13,939.24,32.81
3134017,-0.02,-0.08,0.83,3.54,-5.55,5.13,939.17,32.81
3134056,-0.02,-0.08,0.82,3.48,-6.84,5.0,939.17,32.81
3134094,-0.04,-0.06,0.81,3.3,-8.18,5.07,939.1,32.81
3134132,-0.04,-0.08,0.82,3.36,-7.93,5.0,939.15,32.82
3134170,-0.04,-0.08,0.81,3.05,-8.24,4.58,939.08,32.81
3134208,-0.06,-0.07,0.79,3.05,-8.79,4.58,939.1,32.82
3134246,-0.05,-0.08,0.75,2.62,-8.0,4.64,939.13,32.82
3134296,-0.03,-0.07,0.83,2.81,-8.73,4.46,939.08,32.82
3134334,-0.04,-0.08,0.72,1.89,-7.93,4.58,939.1,32.81
3134372,-0.06,-0.07,0.78,2.26,-9.16,4.33,939.05,32.82
3134410,-0.02,-0.07,0.82,1.77,-8.06,4.09,939.05,32.83
3134448,-0.03,-0.08,0.8,1.34,-8.36,4.03,939.12,32.83
3134487,-0.04,-0.08,0.82,1.28,-8.79,3.85,939.07,32.81
3134525,-0.04,-0.08,0.8,0.92,-8.24,3.85,939.09,32.82
3134563,-0.07,-0.08,0.81,0.61,-9.22,3.97,939.08,32.82
3134601,-0.04,-0.08,0.83,0.31,-9.46,3.97,939.03,32.82
3134639,-0.04,-0.08,0.86,0.0,-8.97,3.78,939.06,32.82
3134689,-0.07,-0.07,0.84,-0.49,-9.46,3.85,939.04,32.8
3134727,-0.06,-0.07,0.88,-0.79,-9.03,3.72,939.05,32.81
3134765,-0.04,-0.08,0.86,-0.98,-9.22,3.78,939.06,32.8
3134803,-0.06,-0.07,0.89,-1.1,-9.46,3.85,939.06,32.81
3134841,-0.05,-0.07,0.88,-1.53,-8.48,3.72,939.09,32.81
3134879,-0.07,-0.07,0.89,-2.01,-9.28,3.72,939.06,32.8
3134917,-0.06,-0.06,0.95,-2.38,-9.09,3.85,939.08,32.8
3134956,-0.07,-0.07,0.94,-3.05,-7.2,3.91,939.06,32.82
3134994,-0.07,-0.07,1.03,-3.23,-7.14,3.97,939.13,32.82
3135044,-0.07,-0.06,1.05,-3.91,-6.1,4.27,939.2,32.8
3135082,-0.08,-0.06,1.05,-4.46,-3.3,4.52,939.17,32.83
3135120,-0.06,-0.06,1.09,-4.03,-3.11,4.46,939.21,32.82
3135158,-0.07,-0.07,1.12,-4.39,-1.04,4.64,939.25,32.81
3135196,-0.09,-0.07,1.09,-4.52,-0.98,4.82,939.18,32.81
3135234,-0.08,-0.06,1.15,-4.33,-0.55,4.82,939.23,32.82
3135272,-0.06,-0.06,1.1,-4.88,0.12,5.19,939.2,32.81
3135311,-0.08,-0.04,1.16,-4.46,-0.73,5.13,939.24,32.82
3135349,-0.06,-0.07,1.13,-4.21,-0.61,5.37,939.27,32.83
3135398,-0.1,-0.04,1.17,-2.81,-2.69,5.86,939.29,32.81
3135437,-0.08,-0.05,1.14,-1.89,-2.2,5.98,939.23,32.81
3135475,-0.09,-0.05,1.12,-1.1,-2.81,6.16,939.28,32.82
3135513,-0.07,-0.05,1.1,-0.61,-3.11,6.47,939.27,32.81
3135551,-0.06,-0.09,1.0,-1.04,-3.6,6.77,939.26,32.8
3135589,-0.06,-0.06,0.99,-1.28,-4.39,6.77,939.27,32.82
3135627,-0.07,-0.06,0.95,-2.32,-3.97,7.45,939.19,32.81
3135665,-0.09,-0.06,0.96,-2.44,-4.94,7.39,939.28,32.83
3135703,-0.08,-0.07,0.93,-3.3,-4.21,7.51,939.24,32.82
3135741,-0.07,-0.08,0.94,-3.78,-4.7,7.63,939.2,32.83
3135791,-0.09,-0.07,0.96,-4.27,-3.66,7.87,939.31,32.81
3135829,-0.08,-0.06,0.98,-4.88,-2.62,8.24,939.22,32.82
3135867,-0.09,-0.07,1.0,-5.37,-2.38,8.48,939.26,32.81
3135905,-0.1,-0.06,0.98,-5.86,-1.59,8.67,939.2,32.83
3135943,-0.1,-0.06,1.05,-5.92,-0.73,9.09,939.26,32.81
3135981,-0.07,-0.06,1.07,-6.41,1.65,9.46,939.22,32.83
3136020,-0.09,-0.05,1.09,-6.59,2.01,9.64,939.31,32.81
3136058,-0.08,-0.04,1.13,-6.47,3.11,10.07,939.28,32.82
3136096,-0.06,-0.05,1.18,-6.65,3.72,10.5,939.3,32.83
3136171,-0.08,-0.04,1.24,-7.02,3.48,11.11,939.37,32.81
3136210,-0.05,-0.04,1.23,-7.51,4.21,11.41,939.3,32.8
3136248,-0.05,-0.03,1.24,-8.0,3.91,11.78,939.35,32.81
3136337,-0.05,-0.03,1.31,-8.18,3.85,12.21,939.34,32.77
3136375,-0.04,-0.03,1.34,-7.93,3.3,12.39,939.43,32.8
3136414,-0.04,-0.03,1.36,-7.75,2.38,12.45,939.38,32.79
3136452,-0.05,-0.03,1.39,-7.08,1.46,12.63,939.38,32.79
3136490,-0.04,-0.03,1.39,-6.35,0.55,12.88,939.46,32.81
3136528,-0.03,-0.03,1.38,-5.62,-0.73,12.94,939.47,32.81
3136578,-0.04,-0.03,1.3,-5.0,-1.28,12.82,939.51,32.79
3136616,-0.03,-0.03,1.29,-4.7,-2.32,12.82,939.46,32.8
3136654,-0.03,-0.04,1.29,-4.58,-2.26,12.7,939.43,32.8
3136692,-0.02,-0.04,1.3,-4.39,-3.54,12.76,939.4,32.81
3136730,-0.04,-0.03,1.34,-4.21,-4.64,12.51,939.34,32.8
3136768,-0.03,-0.04,1.32,-4.27,-4.7,12.57,939.41,32.8
3136807,-0.04,-0.03,1.33,-4.21,-5.31,12.39,939.44,32.81
3136845,-0.04,-0.04,1.32,-4.21,-5.0,12.21,939.42,32.81
3136883,-0.04,-0.04,1.28,-4.39,-4.88,12.02,939.4,32.8
3136933,-0.03,-0.03,1.26,-4.58,-4.39,11.72,939.36,32.8
3136971,-0.04,-0.04,1.26,-5.31,-3.97,11.78,939.47,32.81
3137009,-0.04,-0.04,1.25,-5.68,-3.85,11.54,939.48,32.81
3137047,-0.05,-0.04,1.28,-6.53,-4.27,11.6,939.44,32.82
3137085,-0.05,-0.04,1.28,-7.2,-3.42,11.78,939.43,32.81
3137123,-0.04,-0.03,1.29,-7.93,-3.78,11.78,939.49,32.81
3137161,-0.04,-0.02,1.31,-8.54,-4.33,11.84,939.42,32.83
3137200,-0.06,-0.04,1.3,-9.28,-4.03,12.02,939.43,32.81
3137238,-0.04,-0.03,1.3,-9.64,-3.42,11.54,939.48,32.81
3137288,-0.06,-0.03,1.31,-10.19,-2.93,11.96,939.4,32.8
3137326,-0.04,-0.02,1.36,-10.19,-3.3,11.78,939.43,32.8
3137364,-0.06,-0.01,1.38,-10.13,-2.5,11.72,939.49,32.82
3137402,-0.05,-0.0,1.38,-9.64,-2.2,11.72,939.43,32.8
3137440,-0.03,-0.01,1.41,-9.09,-1.83,11.72,939.49,32.81
3137478,-0.06,-0.02,1.35,-8.79,-0.79,11.72,939.49,32.81
3137516,-0.07,-0.01,1.34,-8.06,-0.06,11.54,939.41,32.81
3137555,-0.07,-0.02,1.3,-8.0,2.32,11.66,939.47,32.82
3137593,-0.04,-0.0,1.29,-8.0,2.38,11.9,939.42,32.81
3137631,-0.06,-0.02,1.29,-7.87,2.93,12.02,939.43,32.82
3137681,-0.06,-0.02,1.29,-8.12,4.39,12.02,939.42,32.8
3137719,-0.02,-0.02,1.33,-8.36,5.37,12.27,939.47,32.81
3137757,-0.04,-0.02,1.32,-8.61,4.88,12.57,939.47,32.82
3137795,-0.07,-0.02,1.33,-8.54,5.0,12.82,939.52,32.82
3137833,-0.04,-0.02,1.29,-8.91,5.43,12.7,939.48,32.81
3137871,-0.03,-0.01,1.31,-8.85,4.46,12.88,939.46,32.81
3137910,-0.04,-0.02,1.28,-9.22,4.21,13.18,939.51,32.83
3137948,-0.04,-0.01,1.27,-9.34,3.78,13.37,939.58,32.81
3137986,-0.03,-0.02,1.3,-9.7,3.48,13.61,939.5,32.83
3138036,-0.02,-0.02,1.29,-9.83,1.83,13.79,939.55,32.81
3138074,-0.03,-0.02,1.32,-10.01,1.77,13.79,939.54,32.81
3138112,-0.02,-0.02,1.3,-9.95,2.26,13.61,939.53,32.83
3138150,-0.02,-0.01,1.33,-9.52,1.89,13.67,939.66,32.82
3138188,-0.03,-0.02,1.32,-9.58,2.14,13.61,939.55,32.81
3138226,-0.05,-0.02,1.32,-9.22,1.95,13.55,939.57,32.82
3138264,-0.02,-0.01,1.34,-9.58,2.69,13.43,939.54,32.81
3138302,-0.02,-0.01,1.34,-9.34,2.38,13.31,939.62,32.83
3138341,-0.03,-0.01,1.33,-9.64,2.44,13.43,939.53,32.8
3138390,-0.02,-0.0,1.37,-9.64,2.87,13.31,939.63,32.81
3138428,-0.03,-0.01,1.39,-9.58,3.3,13.18,939.57,32.82
3138467,-0.02,-0.01,1.36,-9.7,3.05,13.49,939.57,32.81
3138505,-0.03,0.0,1.39,-9.77,2.81,13.31,939.56,32.81
3138543,-0.02,-0.0,1.38,-9.77,3.11,13.31,939.61,32.82
3138581,-0.03,0.01,1.4,-9.89,2.62,13.18,939.57,32.81
3138619,-0.03,0.01,1.41,-9.64,3.23,13.31,939.56,32.81
3138657,-0.03,0.02,1.41,-9.03,3.6,13.12,939.61,32.81
3138695,-0.02,0.01,1.44,-8.67,4.33,13.18,939.61,32.83
3138733,-0.03,0.01,1.39,-8.24,5.07,13.06,939.53,32.81
3138783,-0.03,0.01,1.43,-7.39,6.1,13.12,939.59,32.81
3138821,-0.03,0.01,1.41,-7.08,7.02,12.82,939.6,32.82
3138859,-0.05,0.02,1.41,-6.41,6.9,13.0,939.61,32.81
3138897,-0.03,0.0,1.38,-6.53,8.18,13.18,939.62,32.81
