timestamp,acc_x,acc_y,acc_z,rot_x,rot_y,rot_z,qfe,temp,Unnamed: 10
4403528,-0.04,-0.06,1.6,-7.87,6.23,1.4,899.68,22.82,
4403566,-0.04,-0.05,1.56,-7.51,4.46,1.59,899.71,22.83,
4403605,-0.03,-0.08,1.51,-6.96,4.39,1.95,899.67,22.84,
4403643,-0.04,-0.08,1.42,-6.71,2.87,2.08,899.59,22.82,
4403681,-0.04,-0.06,1.45,-6.35,2.44,2.62,899.58,22.83,
4403731,-0.03,-0.08,1.35,-5.74,2.08,2.62,899.55,22.81,
4403769,-0.02,-0.07,1.42,-5.49,0.73,2.69,899.53,22.82,
4403808,-0.04,-0.09,1.31,-5.07,1.95,3.11,899.44,22.81,
4403846,-0.04,-0.08,1.43,-4.39,1.53,2.81,899.42,22.83,
4403884,-0.04,-0.08,1.44,-4.33,2.75,2.75,899.4,22.83,
4403923,-0.03,-0.06,1.52,-3.97,2.93,2.69,899.39,22.83,
4403961,-0.04,-0.04,1.59,-3.85,6.1,2.5,899.3,22.83,
4403999,-0.04,-0.06,1.59,-4.15,8.61,2.62,899.31,22.82,
4404037,-0.01,-0.05,1.67,-3.72,7.69,2.69,899.19,22.84,
4404075,-0.02,-0.06,1.61,-3.3,8.73,2.69,899.18,22.83,
4404126,-0.02,-0.04,1.58,-3.17,8.91,2.99,899.15,22.82,
4404164,-0.0,-0.06,1.48,-2.56,8.48,3.05,899.15,22.83,
4404202,-0.02,-0.06,1.45,-1.89,7.39,3.17,899.06,22.82,
4404240,-0.03,-0.08,1.39,-1.28,8.48,3.48,899.04,22.81,
4404278,-0.01,-0.07,1.39,-1.22,7.32,3.3,899.05,22.82,
4404317,-0.01,-0.07,1.34,-0.85,6.16,3.48,898.97,22.83,
4404355,-0.03,-0.08,1.3,-0.55,6.16,3.3,898.92,22.83,
4404393,0.01,-0.09,1.15,-0.61,6.71,3.23,898.91,22.83,
4404431,0.06,-0.06,1.23,0.31,2.99,2.87,898.88,22.82,
4404481,-0.01,-0.09,0.92,-0.31,2.5,3.3,898.75,22.83,
4404520,0.0,-0.06,0.99,1.46,-0.37,3.17,898.69,22.83,
4404558,0.02,-0.1,0.76,0.0,-0.49,2.99,898.69,22.83,
4404596,0.0,-0.06,0.88,0.67,-5.13,2.99,898.65,22.82,
4404634,-0.01,-0.1,0.77,1.04,-4.58,3.17,898.57,22.83,
4404673,0.01,-0.07,0.84,-0.43,-6.77,2.69,898.52,22.83,
4404711,0.0,-0.09,0.85,0.37,-6.47,2.87,898.45,22.82,
4404749,-0.02,-0.08,0.77,-0.49,-6.9,2.81,898.41,22.82,
4404787,-0.04,-0.07,0.82,0.55,-6.59,2.32,898.36,22.8,
4404826,0.01,-0.09,0.65,-0.92,-3.11,2.01,898.38,22.8,
4404876,0.01,-0.06,0.84,0.73,-2.69,1.83,898.28,22.79,
4404914,-0.01,-0.1,0.68,-0.18,0.18,1.77,898.22,22.8,
4404952,-0.02,-0.06,0.87,0.61,0.0,1.59,898.21,22.79,
4404990,0.01,-0.09,0.89,0.43,1.83,1.71,898.15,22.79,
4405029,-0.01,-0.08,0.98,1.16,1.16,1.53,898.14,22.8,
4405067,-0.02,-0.08,0.97,2.08,2.75,1.22,898.08,22.81,
4405105,-0.02,-0.07,0.93,2.62,3.66,1.22,898.01,22.81,
4405143,0.01,-0.06,0.88,3.48,3.66,1.46,898.01,22.8,
4405182,-0.02,-0.06,0.79,3.78,3.11,1.28,897.95,22.8,
4405220,-0.05,-0.07,0.79,4.27,3.54,1.46,897.94,22.81,
4405296,-0.01,-0.06,0.82,4.64,2.01,1.59,897.74,22.79,
4405334,-0.01,-0.09,0.68,4.33,2.93,1.71,897.79,22.79,
4405372,-0.02,-0.06,0.78,4.39,2.26,1.53,897.72,22.8,
4405462,-0.02,-0.06,0.75,4.15,0.79,1.77,897.67,22.77,
4405501,-0.02,-0.07,0.7,4.33,2.38,1.65,897.64,22.79,
4405539,0.01,-0.06,0.74,4.09,1.59,1.46,897.59,22.78,
4405577,-0.01,-0.07,0.71,4.82,1.53,1.59,897.54,22.79,
4405615,0.0,-0.06,0.68,4.33,0.31,1.59,897.5,22.8,
4405653,-0.0,-0.06,0.74,5.13,0.37,1.77,897.48,22.8,
4405703,0.01,-0.06,0.74,4.76,-0.55,1.83,897.44,22.79,
4405742,-0.0,-0.06,0.76,5.68,-1.1,1.65,897.39,22.81,
4405780,-0.0,-0.07,0.69,5.37,-0.61,1.77,897.38,22.81,
4405818,0.0,-0.05,0.77,5.8,-2.5,1.53,897.35,22.79,
4405856,-0.0,-0.07,0.69,6.04,-2.01,1.65,897.24,22.8,
4405895,-0.01,-0.05,0.71,5.37,-2.32,1.65,897.23,22.81,
4405933,-0.01,-0.06,0.71,6.35,-2.2,1.65,897.2,22.8,
4405971,-0.0,-0.07,0.61,5.37,-0.79,1.59,897.15,22.8,
4406009,-0.01,-0.05,0.66,6.53,-0.49,1.59,897.1,22.82,
4406048,-0.02,-0.07,0.53,6.35,0.73,1.71,897.09,22.81,
4406098,-0.02,-0.05,0.59,6.59,1.65,1.34,897.06,22.79,
4406136,-0.0,-0.07,0.52,6.71,4.15,1.22,896.98,22.8,
4406174,-0.0,-0.06,0.56,6.53,4.46,1.34,896.98,22.81,
4406212,-0.0,-0.06,0.53,6.35,5.31,1.16,896.9,22.81,
4406251,-0.02,-0.05,0.53,6.23,6.16,1.4,896.93,22.81,
4406289,-0.01,-0.06,0.53,6.65,7.2,1.46,896.84,22.8,
4406327,0.0,-0.06,0.52,6.29,6.71,1.28,896.77,22.8,
4406365,-0.03,-0.06,0.59,6.71,6.41,1.34,896.75,22.81,
4406404,-0.01,-0.07,0.54,6.53,7.81,1.22,896.72,22.81,
4406454,0.0,-0.06,0.63,6.96,7.81,1.1,896.7,22.79,
4406492,-0.01,-0.07,0.57,6.35,7.2,1.28,896.64,22.8,
4406530,-0.02,-0.05,0.6,6.47,7.32,1.22,896.66,22.8,
4406568,0.01,-0.07,0.6,6.16,7.63,1.34,896.65,22.8,
4406607,0.0,-0.05,0.71,5.8,5.49,1.59,896.65,22.81,
4406645,-0.01,-0.06,0.65,5.43,6.23,1.46,896.63,22.81,
4406683,-0.02,-0.05,0.75,5.0,6.1,1.28,896.59,22.81,
4406721,-0.0,-0.07,0.82,5.37,6.35,1.71,896.56,22.81,
4406760,-0.01,-0.05,0.86,4.39,6.23,1.46,896.5,22.8,
4406798,-0.04,-0.04,0.93,4.82,6.47,1.77,896.55,22.81,
4406848,-0.02,-0.06,0.9,4.33,6.96,1.95,896.5,22.8,
4406886,-0.01,-0.04,0.9,3.91,6.23,1.83,896.48,22.81,
4406924,0.01,-0.05,0.92,3.78,6.53,1.95,896.46,22.81,
4406963,-0.01,-0.07,0.91,3.6,7.51,2.08,896.43,22.82,
4407001,-0.01,-0.04,0.94,3.54,7.32,2.08,896.42,22.81,
4407039,-0.02,-0.04,0.98,3.42,8.12,2.08,896.4,22.81,
4407077,-0.02,-0.03,0.99,2.75,8.12,2.2,896.42,22.81,
4407116,-0.02,-0.06,1.01,2.75,9.34,2.14,896.36,22.82,
4407154,-0.01,-0.05,1.0,2.08,9.89,1.95,896.4,22.83,
4407192,0.0,-0.03,1.03,2.38,8.06,2.38,896.31,22.82,
4407242,-0.0,-0.03,0.98,2.2,8.18,2.44,896.34,22.81,
4407280,0.01,-0.03,1.0,2.75,6.04,2.5,896.29,22.82,
4407319,0.02,-0.04,0.98,2.44,5.62,2.56,896.25,22.81,
4407357,0.01,-0.03,1.02,2.99,2.2,2.81,896.25,22.81,
4407395,0.01,-0.03,1.02,2.81,1.04,2.93,896.18,22.82,
4407433,-0.0,-0.04,1.02,3.3,0.55,2.87,896.23,22.83,
4407472,0.01,-0.06,0.98,2.99,1.34,2.5,896.18,22.81,
4407510,0.02,-0.04,0.97,3.3,-0.06,2.62,896.11,22.82,
4407548,0.0,-0.04,0.95,3.48,0.0,2.56,896.11,22.83,
4407586,0.01,-0.03,0.89,3.05,0.49,2.26,896.11,22.83,
4407636,0.01,-0.05,0.98,3.3,-0.31,1.77,896.06,22.8,
4407675,0.02,-0.06,0.92,2.32,-0.24,1.65,896.06,22.83,
4407713,-0.0,-0.05,1.0,2.87,-0.67,1.59,895.98,22.83,
4407751,-0.01,-0.05,0.9,1.83,1.1,1.4,896.03,22.82,
4407789,-0.01,-0.02,0.99,2.75,-0.18,1.34,896.02,22.81,
4407828,-0.0,-0.06,0.92,2.26,0.98,1.28,896.0,22.83,
4407866,0.0,-0.05,0.93,2.38,-0.18,1.16,895.98,22.82,
4407904,-0.0,-0.04,0.94,3.11,-0.06,0.98,895.95,22.82,
4407942,-0.01,-0.04,0.92,2.69,0.73,1.04,895.96,22.82,
4407992,-0.0,-0.05,0.98,3.23,0.61,0.85,895.93,22.81,
4408031,-0.03,-0.05,0.95,2.93,1.04,0.92,895.89,22.83,
4408069,-0.01,-0.04,0.98,2.93,1.1,0.61,895.82,22.82,
4408107,-0.01,-0.04,0.95,2.38,1.83,0.55,895.81,22.81,
4408145,-0.01,-0.03,0.95,2.2,2.01,0.49,895.8,22.82,
4408184,-0.0,-0.03,0.97,1.89,2.56,0.55,895.78,22.82,
4408222,-0.02,-0.03,1.01,1.89,1.95,0.55,895.75,22.83,
4408260,-0.01,-0.04,1.01,1.59,1.59,0.61,895.8,22.83,
4408298,-0.02,-0.03,1.05,1.95,1.34,0.73,895.68,22.82,
4408337,-0.01,-0.04,1.06,1.95,0.98,0.73,895.73,22.83,
4408413,-0.02,-0.02,1.07,1.83,-0.37,0.98,895.71,22.8,
4408451,-0.01,-0.04,1.03,1.59,-0.43,1.16,895.64,22.8,
4408489,-0.03,-0.03,1.05,1.95,-0.92,0.92,895.57,22.81,
4408579,-0.01,-0.03,1.05,2.56,-0.06,0.85,895.64,22.77,
4408617,-0.02,-0.03,1.0,2.5,0.31,0.79,895.59,22.8,
4408655,-0.03,-0.03,1.01,2.87,0.79,0.98,895.54,22.78,
4408694,-0.01,-0.03,0.97,2.69,1.28,1.1,895.46,22.8,
4408732,-0.04,-0.02,1.01,2.69,-0.18,0.92,895.41,22.8,
4408770,-0.04,-0.03,1.02,1.89,0.49,0.98,895.24,22.81,
4408808,-0.0,-0.04,0.97,0.73,-1.59,1.16,895.18,22.81,
4408858,-0.08,-0.05,0.95,0.12,-4.58,1.34,895.12,22.79,
4408897,-0.08,-0.05,0.89,-0.55,-5.49,1.83,895.05,22.81,
4408935,-0.06,-0.02,0.95,-0.43,-6.77,1.89,894.94,22.81,
4408973,-0.05,-0.03,0.95,-0.55,-8.36,2.44,895.01,22.81,
4409011,-0.09,-0.04,0.93,-0.49,-9.7,2.93,894.93,22.8,
4409050,-0.1,-0.04,0.95,0.24,-9.83,3.3,894.92,22.8,
4409088,-0.09,-0.06,0.94,0.43,-10.86,3.48,894.95,22.8,
4409126,-0.08,-0.03,0.96,1.1,-12.33,3.78,894.98,22.81,
4409164,-0.08,-0.03,0.94,1.04,-11.6,4.09,894.93,22.8,
4409214,-0.06,-0.05,0.94,1.59,-11.66,4.27,894.88,22.79,
4409253,-0.09,-0.04,0.92,1.83,-12.21,4.46,894.9,22.8,
4409291,-0.08,-0.03,0.91,1.95,-12.63,4.64,894.88,22.82,
4409329,-0.07,-0.03,0.89,1.95,-12.15,4.7,894.85,22.81,
4409368,-0.07,-0.04,0.9,1.83,-12.33,4.88,894.82,22.8,
4409406,-0.06,-0.04,0.91,1.83,-12.88,5.13,894.8,22.8,
4409444,-0.08,-0.04,0.91,1.4,-12.7,5.07,894.79,22.8,
4409482,-0.07,-0.03,0.91,1.28,-13.06,5.37,894.78,22.8,
4409521,-0.07,-0.03,0.91,0.92,-13.12,5.49,894.75,22.79,
4409571,-0.07,-0.03,0.92,0.79,-13.06,5.68,894.76,22.79,
4409609,-0.07,-0.04,0.92,0.55,-13.12,5.62,894.71,22.8,
4409647,-0.05,-0.04,0.92,0.37,-13.98,5.98,894.75,22.81,
4409685,-0.06,-0.02,0.92,0.37,-14.04,6.1,894.69,22.8,
4409724,-0.08,-0.03,0.89,0.37,-14.16,6.1,894.63,22.79,
4409762,-0.06,-0.03,0.91,0.55,-14.47,6.23,894.67,22.79,
4409800,-0.06,-0.03,0.91,0.67,-15.14,6.53,894.64,22.8,
4409839,-0.06,-0.03,0.92,0.55,-15.38,6.59,894.68,22.81,
4409877,-0.07,-0.03,0.87,0.12,-14.83,6.59,894.62,22.8,
4409927,-0.06,-0.03,0.91,0.49,-15.01,6.59,894.62,22.79,
4409965,-0.06,-0.04,0.86,0.06,-14.83,6.71,894.59,22.8,
4410003,-0.07,-0.02,0.88,0.12,-15.2,6.84,894.57,22.8,
4410041,-0.07,-0.02,0.88,-0.12,-13.98,6.59,894.52,22.8,
4410080,-0.07,-0.02,0.89,-0.18,-13.43,6.71,894.5,22.77,
4410118,-0.07,-0.03,0.93,-0.43,-13.31,6.53,894.49,22.79,
4410156,-0.07,-0.02,0.93,-0.73,-12.7,6.59,894.49,22.8,
4410195,-0.07,-0.02,0.95,-0.67,-12.33,6.65,894.49,22.79,
4410233,-0.08,-0.02,0.93,-0.73,-12.45,6.65,894.51,22.79,
4410271,-0.08,-0.02,0.93,-0.92,-12.39,6.65,894.46,22.8,
4410321,-0.08,-0.02,0.92,-1.1,-12.08,6.96,894.42,22.78,
4410359,-0.07,-0.01,0.95,-1.34,-12.33,6.96,894.36,22.79,
4410398,-0.09,-0.02,0.97,-1.65,-11.72,7.08,894.4,22.79,
4410436,-0.09,-0.01,0.99,-1.83,-11.6,7.08,894.39,22.8,
4410474,-0.09,-0.01,1.01,-2.01,-11.29,7.32,894.37,22.78,
4410513,-0.08,-0.01,1.01,-2.44,-10.93,7.45,894.34,22.79,
4410551,-0.09,-0.0,1.04,-2.5,-10.62,7.32,894.32,22.8,
4410589,-0.1,-0.01,1.01,-2.5,-9.89,7.51,894.3,22.8,
4410627,-0.1,-0.0,0.99,-2.69,-9.89,7.75,894.31,22.8,
4410677,-0.1,-0.01,0.98,-2.69,-9.95,8.06,894.31,22.78,
4410716,-0.08,-0.01,0.93,-3.11,-8.97,7.93,894.3,22.78,
4410754,-0.09,-0.01,0.94,-3.17,-8.85,8.24,894.24,22.79,
4410792,-0.08,-0.03,0.92,-3.3,-8.97,8.48,894.26,22.79,
4410830,-0.11,-0.02,0.93,-3.42,-9.58,8.73,894.25,22.78,
4410869,-0.1,-0.01,0.91,-3.66,-8.48,8.85,894.22,22.79,
4410907,-0.08,-0.0,0.94,-3.66,-8.79,8.91,894.27,22.79,
4410945,-0.09,0.0,0.96,-3.78,-8.54,9.22,894.26,22.78,
4410984,-0.1,-0.01,0.99,-3.91,-7.57,9.16,894.36,22.79,
4411034,-0.08,-0.01,1.01,-4.21,-6.1,9.46,894.31,22.79,
4411072,-0.08,0.0,1.02,-4.21,-6.23,9.52,894.34,22.79,
4411110,-0.11,-0.0,1.0,-4.64,-5.62,9.83,894.24,22.78,
4411149,-0.1,-0.01,1.0,-4.88,-4.82,9.7,894.28,22.78,
4411187,-0.08,-0.0,1.05,-4.94,-4.76,10.01,894.26,22.8,
4411225,-0.09,0.01,1.05,-4.94,-5.68,10.56,894.22,22.79,
4411263,-0.11,0.01,1.09,-5.07,-5.55,10.86,894.27,22.79,
4411302,-0.08,-0.0,1.11,-5.07,-4.64,10.93,894.21,22.8,
4411340,-0.08,0.01,1.13,-5.07,-5.37,11.35,894.19,22.8,
4411417,-0.11,0.02,1.11,-5.55,-5.25,12.21,894.18,22.76,
4411456,-0.08,0.0,1.1,-6.23,-4.52,12.21,894.21,22.77,
4411494,-0.09,0.01,1.13,-6.23,-5.98,12.82,894.19,22.77,
4411584,-0.08,0.02,1.11,-6.96,-4.27,13.31,894.16,22.73,
4411623,-0.08,0.02,1.12,-7.63,-3.97,13.73,894.12,22.76,
4411661,-0.1,0.01,1.11,-8.0,-3.85,14.16,894.22,22.76,
4411699,-0.08,0.01,1.12,-8.3,-3.11,14.22,894.16,22.75,
4411737,-0.08,0.02,1.09,-8.73,-3.36,14.65,894.15,22.76,
4411776,-0.09,0.02,1.11,-9.09,-3.66,14.95,894.08,22.77,
4411814,-0.07,0.02,1.12,-9.64,-2.69,15.26,894.1,22.76,
4411864,-0.07,0.03,1.18,-9.83,-3.36,15.62,894.13,22.75,
4411902,-0.08,0.03,1.18,-10.19,-3.42,15.87,894.1,22.76,
4411940,-0.07,0.04,1.21,-10.56,-3.91,16.17,894.14,22.75,
4411979,-0.06,0.05,1.22,-11.29,-4.09,16.54,894.17,22.77,
4412017,-0.05,0.06,1.26,-11.41,-4.58,16.6,894.2,22.76,
4412055,-0.05,0.06,1.24,-11.66,-3.85,16.91,894.21,22.76,
4412093,-0.05,0.04,1.23,-11.72,-3.54,16.91,894.21,22.76,
4412132,-0.04,0.05,1.22,-11.78,-2.87,16.54,894.24,22.76,
4412170,-0.02,0.05,1.24,-11.41,-2.75,16.54,894.24,22.76,
4412220,-0.02,0.06,1.2,-11.6,-2.14,16.36,894.24,22.75,
4412258,-0.02,0.05,1.24,-11.05,-1.16,16.11,894.27,22.76,
4412297,-0.0,0.04,1.22,-11.23,-0.92,15.93,894.28,22.77,
4412335,-0.01,0.06,1.27,-11.11,-1.34,15.44,894.22,22.76,
4412373,-0.03,0.05,1.25,-11.23,-0.79,15.32,894.22,22.76,
4412411,-0.01,0.05,1.27,-11.47,-0.55,14.95,894.24,22.77,
4412450,-0.01,0.06,1.29,-11.66,-0.49,14.77,894.23,22.76,
4412488,-0.01,0.07,1.29,-11.6,-0.85,14.89,894.13,22.75,
4412526,-0.03,0.08,1.32,-11.6,-0.61,14.65,894.2,22.76,
4412576,-0.02,0.03,1.32,-11.54,0.0,14.71,894.23,22.76,
4412615,-0.02,0.06,1.31,-11.72,0.37,14.28,894.28,22.77,
4412653,-0.01,0.07,1.3,-11.6,0.85,14.04,894.19,22.76,
4412691,-0.01,0.08,1.33,-11.47,1.4,13.73,894.25,22.76,
4412730,-0.01,0.06,1.32,-11.29,2.14,13.43,894.28,22.77,
4412768,-0.02,0.06,1.32,-11.29,2.38,13.06,894.19,22.75,
4412806,-0.03,0.07,1.3,-11.47,3.17,12.82,894.22,22.77,
4412844,-0.02,0.07,1.3,-11.47,3.3,12.63,894.21,22.77,
4412883,-0.02,0.08,1.35,-11.47,3.3,12.57,894.21,22.76,
4412933,-0.02,0.06,1.32,-11.41,3.6,12.27,894.19,22.76,
4412971,-0.01,0.07,1.38,-11.17,3.48,11.96,894.22,22.77,
4413009,-0.02,0.07,1.36,-10.99,3.97,12.08,894.17,22.76,
4413048,-0.02,0.06,1.34,-10.68,3.23,11.9,894.15,22.78,
4413086,-0.04,0.05,1.32,-10.68,3.78,11.84,894.22,22.78,
4413124,-0.03,0.06,1.27,-10.8,4.03,11.9,894.12,22.77,
4413162,-0.02,0.07,1.31,-10.25,4.09,11.9,894.22,22.77,
4413201,-0.04,0.05,1.24,-10.38,4.39,11.78,894.14,22.77,
4413239,-0.04,0.05,1.25,-10.07,4.15,11.9,894.23,22.79,
4413277,-0.04,0.03,1.25,-10.19,5.13,11.84,894.17,22.77,
4413327,-0.05,0.04,1.26,-9.77,4.58,11.9,894.18,22.77,
4413366,-0.05,0.05,1.23,-9.95,5.13,11.9,894.17,22.76,
4413404,-0.04,0.04,1.25,-9.95,5.37,11.84,894.12,22.76,
4413442,-0.05,0.05,1.25,-10.25,5.92,11.84,894.2,22.76,
4413481,-0.06,0.04,1.27,-10.07,6.1,12.21,894.23,22.77,
4413519,-0.04,0.04,1.25,-10.44,6.77,11.9,894.19,22.76,
4413557,-0.06,0.05,1.27,-10.31,6.53,12.27,894.22,22.76,
4413595,-0.05,0.04,1.27,-10.38,7.51,12.27,894.22,22.77,
4413634,-0.05,0.04,1.28,-10.62,7.39,12.51,894.21,22.77,
4413684,-0.05,0.05,1.27,-10.68,8.12,12.7,894.23,22.75,
4413722,-0.07,0.05,1.26,-10.86,8.0,12.94,894.31,22.75,
4413760,-0.06,0.05,1.27,-11.11,8.67,12.76,894.28,22.76,
4413798,-0.05,0.05,1.29,-10.93,8.79,12.88,894.31,22.76,
4413837,-0.06,0.06,1.32,-10.93,9.28,13.24,894.27,22.76,
4413875,-0.04,0.06,1.32,-11.17,10.07,13.49,894.27,22.75,
4413913,-0.05,0.07,1.33,-11.11,9.89,13.31,894.29,22.76,
4413951,-0.06,0.06,1.33,-11.29,10.07,13.55,894.33,22.77,
4413990,-0.05,0.06,1.34,-11.23,9.77,13.79,894.29,22.76,
4414040,-0.04,0.08,1.37,-11.17,9.77,13.92,894.35,22.76,
4414078,-0.04,0.08,1.39,-11.23,9.58,14.53,894.33,22.76,
4414116,-0.07,0.09,1.41,-10.99,8.73,14.47,894.32,22.75,
4414155,-0.05,0.09,1.41,-10.86,9.09,14.77,894.32,22.76,
4414193,-0.04,0.1,1.47,-10.74,8.48,15.08,894.39,22.77,
4414231,-0.04,0.09,1.49,-10.68,8.12,15.26,894.44,22.77,
4414270,-0.04,0.09,1.49,-10.56,7.39,15.38,894.43,22.78,
4414308,-0.06,0.1,1.52,-10.13,6.9,15.38,894.45,22.78,
4414346,-0.05,0.1,1.51,-9.89,7.08,15.62,894.47,22.77,
4414385,-0.06,0.1,1.5,-9.34,6.59,15.81,894.49,22.76,
4414461,-0.06,0.08,1.5,-8.61,5.55,16.17,894.57,22.76,
4414499,-0.05,0.09,1.5,-8.54,5.0,16.17,894.61,22.76,
4414537,-0.04,0.08,1.52,-8.24,4.58,16.36,894.59,22.76,
4414627,-0.04,0.06,1.47,-8.18,3.66,16.6,894.62,22.73,
4414665,-0.03,0.06,1.45,-8.3,3.3,16.48,894.64,22.74,
4414704,-0.04,0.07,1.47,-8.3,2.26,16.36,894.65,22.75,
4414742,-0.04,0.05,1.44,-8.42,3.23,16.11,894.7,22.75,
4414780,-0.04,0.03,1.43,-8.73,3.05,16.11,894.68,22.76,
4414819,-0.04,0.04,1.42,-9.03,2.93,15.99,894.69,22.75,
4414869,-0.04,0.05,1.42,-9.09,2.62,15.87,894.69,22.74,
4414907,-0.03,0.04,1.48,-9.34,2.75,15.93,894.7,22.76,
4414945,-0.03,0.05,1.52,-9.52,2.56,15.93,894.68,22.76,
4414983,-0.05,0.05,1.5,-9.95,2.99,15.87,894.7,22.76,
4415022,-0.06,0.06,1.52,-10.56,2.93,15.81,894.74,22.76,
4415060,-0.03,0.05,1.56,-10.86,3.05,15.69,894.74,22.76,
4415098,-0.03,0.04,1.59,-10.99,2.87,15.5,894.79,22.77,
4415136,-0.05,0.05,1.57,-11.23,2.69,15.5,894.83,22.77,
4415175,-0.05,0.06,1.58,-11.29,2.99,15.5,894.79,22.78,
4415213,-0.04,0.06,1.59,-11.47,2.87,15.32,894.78,22.77,
4415263,-0.04,0.05,1.59,-11.6,2.75,15.32,894.78,22.77,
4415301,-0.04,0.05,1.62,-11.78,2.26,15.08,894.83,22.76,
4415339,-0.03,0.05,1.62,-12.08,2.08,14.83,894.82,22.76,
4415378,-0.04,0.04,1.61,-12.39,1.59,14.83,894.87,22.78,
4415416,-0.05,0.05,1.63,-12.39,1.04,15.01,894.86,22.77,
4415454,-0.04,0.05,1.6,-12.63,0.85,14.95,894.87,22.79,
4415493,-0.06,0.05,1.6,-12.94,-0.06,14.83,894.89,22.79,
4415531,-0.06,0.04,1.61,-13.06,-0.55,15.08,894.84,22.77,
4415569,-0.04,0.03,1.6,-13.24,-0.73,15.08,894.85,22.77,
4415619,-0.06,0.06,1.63,-13.49,-1.28,14.89,894.89,22.77,
4415657,-0.06,0.05,1.62,-13.73,-1.1,14.83,894.88,22.77,
4415696,-0.05,0.04,1.65,-13.85,-0.79,14.59,894.92,22.77,
4415734,-0.06,0.05,1.66,-13.98,-0.98,14.71,894.92,22.77,
4415772,-0.06,0.06,1.66,-13.92,-0.92,14.65,894.92,22.77,
4415811,-0.06,0.06,1.65,-14.1,-0.55,14.65,894.95,22.77,
4415849,-0.07,0.05,1.66,-13.85,-0.73,14.4,894.97,22.77,
4415887,-0.06,0.04,1.64,-13.85,-0.49,14.4,894.92,22.77,
4415926,-0.07,0.05,1.65,-13.92,0.18,14.34,894.95,22.77,
4415976,-0.05,0.06,1.65,-13.67,0.37,14.4,895.05,22.77,
4416014,-0.06,0.04,1.63,-13.85,0.49,14.16,895.03,22.76,
4416052,-0.07,0.04,1.65,-13.73,0.12,14.34,894.96,22.77,
4416091,-0.05,0.05,1.66,-13.79,0.12,14.28,895.01,22.76,
4416129,-0.05,0.05,1.67,-13.73,-0.73,14.34,895.04,22.76,
4416167,-0.06,0.04,1.64,-13.67,-0.61,14.59,895.03,22.76,
4416205,-0.06,0.05,1.66,-13.55,-1.34,14.71,895.04,22.77,
4416244,-0.06,0.04,1.64,-13.67,-1.28,14.83,895.02,22.75,
4416282,-0.06,0.05,1.63,-13.61,-2.01,15.01,895.0,22.77,
4416332,-0.06,0.04,1.64,-13.55,-2.14,14.95,895.09,22.76,
4416371,-0.06,0.04,1.62,-13.67,-2.69,15.01,895.1,22.76,
4416409,-0.04,0.05,1.67,-13.79,-2.81,14.95,895.06,22.75,
4416447,-0.04,0.05,1.66,-13.79,-2.99,15.08,895.09,22.76,
4416485,-0.05,0.06,1.69,-14.04,-2.75,14.95,895.04,22.76,
4416524,-0.05,0.05,1.7,-13.98,-2.2,14.71,895.11,22.77,
4416562,-0.04,0.05,1.71,-14.22,-2.56,14.47,895.18,22.77,
4416600,-0.04,0.06,1.73,-14.4,-2.81,14.53,895.1,22.76,
4416639,-0.04,0.07,1.72,-14.4,-2.32,14.34,895.13,22.76,
4416689,-0.03,0.05,1.73,-14.16,-2.2,14.16,895.14,22.75,
4416727,-0.05,0.05,1.69,-13.98,-2.32,14.16,895.13,22.75,
4416765,-0.06,0.05,1.69,-13.92,-1.46,14.04,895.15,22.76,
4416804,-0.04,0.06,1.69,-13.61,-0.92,13.79,895.11,22.77,
4416842,-0.03,0.05,1.68,-13.55,-0.49,13.85,895.13,22.77,
4416880,-0.04,0.05,1.69,-13.06,-0.37,13.79,895.1,22.76,
4416919,-0.05,0.05,1.67,-13.0,0.98,13.73,895.09,22.76,
4416957,-0.04,0.06,1.7,-12.51,1.16,13.37,895.12,22.77,
4416995,-0.04,0.05,1.71,-12.02,1.83,13.49,895.18,22.77,
4417033,-0.04,0.03,1.68,-11.66,2.32,13.43,895.17,22.77,
4417084,-0.03,0.05,1.7,-11.23,2.69,13.55,895.17,22.75,
4417122,-0.04,0.06,1.67,-11.11,2.56,13.67,895.09,22.76,
4417160,-0.04,0.04,1.65,-10.93,2.38,13.79,895.11,22.76,
4417198,-0.05,0.02,1.63,-10.99,2.14,13.79,895.24,22.78,
4417237,-0.02,0.02,1.62,-10.8,2.38,13.73,895.16,22.76,
4417275,-0.02,0.03,1.61,-10.68,2.81,13.43,895.18,22.76,
4417313,-0.02,0.03,1.57,-10.44,3.23,13.73,895.15,22.77,
4417352,-0.02,0.02,1.57,-10.38,3.11,13.49,895.14,22.77,
4417390,-0.03,0.01,1.55,-10.38,3.6,13.61,895.19,22.78,
4417466,-0.03,0.03,1.58,-10.31,3.91,13.55,895.14,22.75,
4417504,-0.03,0.01,1.55,-10.19,4.15,13.55,895.15,22.76,
4417542,-0.02,0.01,1.58,-10.13,4.39,13.61,895.19,22.76,
4417632,-0.03,0.02,1.54,-10.19,5.55,13.55,895.19,22.72,
4417671,-0.03,0.01,1.52,-10.25,5.8,13.73,895.19,22.74,
4417709,-0.03,0.01,1.53,-10.13,5.49,13.73,895.12,22.75,
4417747,-0.02,0.01,1.51,-10.13,5.62,13.67,895.1,22.74,
4417786,-0.02,0.01,1.51,-10.19,5.43,13.79,895.11,22.75,
4417824,-0.03,0.01,1.52,-10.38,5.68,13.98,895.13,22.75,
4417874,-0.03,0.01,1.49,-10.31,5.55,14.04,895.13,22.74,
4417912,-0.03,0.02,1.52,-10.25,4.7,13.98,895.06,22.75,
4417950,-0.03,0.01,1.47,-10.31,5.37,14.04,895.15,22.75,
4417989,-0.03,0.01,1.47,-10.07,5.37,14.04,895.1,22.74,
4418027,-0.02,-0.0,1.45,-10.01,6.04,13.92,895.16,22.77,
4418065,-0.03,-0.0,1.46,-9.77,5.43,13.98,895.14,22.75,
4418103,-0.03,0.01,1.45,-9.52,5.86,14.16,895.14,22.77,
4418142,-0.04,0.01,1.46,-9.22,5.62,14.28,895.15,22.76,
4418180,-0.03,-0.01,1.46,-8.97,5.25,14.22,895.11,22.75,
4418230,-0.04,-0.0,1.46,-8.61,4.94,14.4,895.14,22.75,
4418268,-0.03,-0.0,1.45,-8.42,5.8,14.22,895.14,22.75,
4418307,-0.03,-0.01,1.41,-8.24,5.98,14.4,895.14,22.76,
4418345,-0.03,0.0,1.39,-8.24,6.04,14.53,895.15,22.75,
4418383,-0.03,-0.01,1.41,-8.18,5.68,14.53,895.14,22.77,
4418421,-0.03,-0.02,1.36,-7.75,7.02,14.4,895.07,22.77,
4418460,-0.04,-0.01,1.36,-7.87,6.96,14.65,895.09,22.76,
4418498,-0.02,-0.03,1.36,-7.39,7.75,14.47,895.12,22.76,
4418536,-0.01,-0.02,1.3,-7.81,7.2,14.59,895.13,22.77,
4418575,-0.04,-0.01,1.36,-7.57,7.39,14.59,895.08,22.75,
4418625,-0.02,-0.02,1.32,-7.14,8.06,14.53,895.17,22.76,
4418663,-0.03,-0.02,1.33,-6.84,7.81,14.47,895.1,22.76,
4418701,-0.04,-0.02,1.32,-6.59,8.18,14.4,895.09,22.76,
4418739,-0.02,-0.02,1.35,-6.53,8.18,14.34,895.08,22.76,
4418778,-0.02,-0.02,1.3,-6.84,8.79,14.34,895.11,22.76,
4418816,-0.04,-0.02,1.28,-7.08,7.45,14.53,895.1,22.76,
4418854,-0.02,-0.03,1.3,-7.32,7.93,14.4,895.08,22.76,
4418893,-0.02,-0.03,1.28,-7.32,7.81,14.22,895.14,22.77,
4418931,-0.02,-0.02,1.32,-7.26,6.77,14.47,895.1,22.77,
4418981,-0.02,-0.03,1.3,-7.32,7.14,14.28,895.15,22.76,
4419019,-0.02,-0.03,1.33,-7.2,6.41,14.34,895.08,22.76,
4419057,0.01,-0.02,1.33,-7.51,5.68,13.92,895.1,22.75,
4419096,0.0,-0.02,1.38,-7.32,4.94,13.85,895.18,22.76,
4419134,-0.01,-0.02,1.32,-7.51,4.7,13.85,895.17,22.76,
4419172,-0.01,-0.02,1.33,-7.45,4.52,13.85,895.15,22.76,
4419211,0.01,-0.03,1.34,-7.39,4.09,13.55,895.11,22.75,
4419249,-0.01,-0.03,1.31,-7.32,3.78,13.43,895.13,22.75,
4419287,-0.01,-0.04,1.31,-7.26,3.36,13.49,895.14,22.75,
4419337,0.0,-0.03,1.29,-7.39,2.93,13.06,895.1,22.75,
4419376,-0.01,-0.02,1.32,-7.26,2.32,13.06,895.11,22.74,
4419414,-0.02,-0.03,1.29,-7.26,2.56,12.82,895.1,22.75,
4419452,-0.02,-0.04,1.31,-7.14,2.01,12.57,895.12,22.76,
4419491,-0.01,-0.04,1.33,-7.39,2.69,12.33,895.12,22.75,
4419529,-0.03,-0.03,1.32,-7.14,2.44,12.27,895.09,22.75,
4419567,-0.03,-0.03,1.32,-7.02,2.2,12.57,895.08,22.76,
4419606,-0.01,-0.04,1.32,-6.84,1.59,12.27,895.09,22.75,
4419644,-0.02,-0.04,1.26,-7.14,1.65,12.27,895.12,22.75,
4419682,-0.02,-0.03,1.31,-6.96,0.61,12.21,895.07,22.74,
4419732,-0.01,-0.04,1.26,-7.2,1.04,12.08,895.1,22.73,
4419770,-0.04,-0.04,1.3,-6.71,0.31,12.21,895.06,22.73,
4419809,-0.02,-0.04,1.27,-6.84,1.04,12.39,895.11,22.74,
4419847,-0.02,-0.03,1.31,-6.47,0.37,11.78,895.06,22.74,
4419885,-0.02,-0.03,1.29,-6.41,0.92,11.96,895.11,22.75,
4419924,-0.02,-0.03,1.3,-6.23,0.24,12.02,895.1,22.74,
4419962,-0.02,-0.03,1.32,-6.16,0.31,12.02,895.1,22.74,
4420000,-0.02,-0.04,1.31,-6.04,0.24,11.72,895.01,22.75,
4420038,-0.02,-0.03,1.33,-5.98,0.49,11.6,895.04,22.73,
4420088,-0.02,-0.03,1.3,-5.62,0.79,11.54,895.11,22.73,
4420127,-0.03,-0.02,1.3,-5.62,0.61,11.47,895.08,22.73,
4420165,-0.02,-0.03,1.27,-5.68,0.85,11.54,895.12,22.75,
4420203,-0.03,-0.04,1.33,-5.25,0.06,11.41,895.08,22.75,
4420242,-0.02,-0.03,1.33,-5.19,-0.12,11.72,895.02,22.73,
4420280,-0.03,-0.02,1.36,-5.13,-1.22,11.54,895.09,22.74,
4420318,-0.02,-0.0,1.32,-5.31,-0.49,11.6,895.0,22.73,
4420356,-0.02,-0.03,1.35,-5.13,-1.71,11.72,895.05,22.75,
4420394,-0.02,-0.03,1.33,-5.25,-1.89,11.66,895.06,22.74,
4420470,-0.02,-0.02,1.36,-5.0,-0.85,11.47,895.0,22.72,
4420509,-0.01,-0.02,1.33,-4.94,-1.28,11.54,894.99,22.73,
4420547,-0.04,-0.04,1.35,-4.76,-2.01,11.47,895.01,22.72,
4420637,-0.02,-0.05,1.3,-4.64,-0.55,11.47,895.09,22.7,
4420675,-0.04,-0.04,1.25,-4.39,-0.98,11.47,895.07,22.72,
4420713,-0.03,-0.05,1.22,-4.52,0.31,11.41,895.02,22.73,
4420752,-0.03,-0.05,1.22,-4.7,1.16,11.47,895.03,22.73,
4420790,-0.04,-0.03,1.22,-5.0,1.1,11.47,894.98,22.73,
4420828,-0.04,-0.03,1.27,-4.64,1.34,11.54,895.0,22.72,
4420867,-0.01,-0.04,1.26,-5.0,2.56,11.23,894.98,22.73,
4420917,-0.03,-0.05,1.31,-4.94,3.11,11.41,895.0,22.73,
4420955,-0.03,-0.05,1.25,-5.0,3.72,11.47,895.0,22.73,
4420993,-0.03,-0.03,1.29,-4.82,3.54,11.41,895.05,22.73,
4421032,-0.03,-0.04,1.25,-5.07,4.27,11.66,895.1,22.75,
4421070,-0.03,-0.04,1.24,-4.94,4.15,11.6,895.06,22.75,
4421108,-0.02,-0.05,1.21,-5.0,4.58,11.29,894.98,22.75,
4421147,-0.02,-0.05,1.22,-5.19,4.46,11.54,895.07,22.75,
4421185,-0.01,-0.04,1.21,-5.49,4.82,11.6,895.06,22.75,
4421223,-0.03,-0.05,1.21,-5.49,4.7,11.9,895.07,22.75,
4421273,-0.03,-0.06,1.22,-5.68,4.94,11.78,895.04,22.73,
4421311,-0.02,-0.06,1.2,-5.74,4.76,11.78,895.06,22.75,
4421350,-0.03,-0.05,1.22,-5.8,4.76,11.84,895.04,22.75,
4421388,-0.03,-0.05,1.19,-5.92,4.64,11.9,895.04,22.75,
4421426,-0.03,-0.05,1.16,-5.86,5.25,11.9,895.07,22.75,
4421465,-0.02,-0.05,1.17,-5.92,5.13,11.9,895.08,22.76,
4421503,-0.02,-0.05,1.17,-5.8,5.0,11.96,895.08,22.76,
4421541,-0.03,-0.06,1.15,-5.86,4.94,11.96,895.06,22.76,
4421580,-0.02,-0.05,1.22,-5.8,4.52,12.15,895.04,22.76,
4421630,-0.02,-0.05,1.21,-5.8,4.03,12.39,895.07,22.75,
4421668,-0.02,-0.05,1.25,-5.98,3.11,12.02,895.04,22.73,
4421706,-0.02,-0.06,1.23,-6.35,3.36,12.33,895.07,22.75,
4421744,-0.02,-0.06,1.26,-6.35,2.56,12.27,895.09,22.75,
4421783,-0.01,-0.05,1.24,-6.35,2.2,12.33,895.1,22.77,
4421821,-0.01,-0.05,1.25,-6.23,1.28,12.21,895.13,22.76,
4421859,-0.01,-0.05,1.23,-6.35,1.95,12.39,895.13,22.77,
4421898,-0.02,-0.05,1.25,-6.47,1.46,12.27,895.09,22.76,
4421936,-0.02,-0.05,1.26,-6.16,1.04,12.39,895.12,22.77,
4421986,-0.02,-0.05,1.28,-6.29,0.24,12.33,895.14,22.75,
4422024,-0.01,-0.05,1.3,-6.47,0.31,12.27,895.1,22.76,
4422062,-0.02,-0.05,1.32,-6.35,0.0,12.33,895.14,22.76,
4422101,-0.01,-0.05,1.33,-6.35,0.12,12.02,895.12,22.76,
4422139,-0.02,-0.04,1.33,-6.35,0.37,12.27,895.12,22.76,
4422177,-0.02,-0.04,1.29,-6.29,0.55,12.15,895.13,22.76,
4422215,-0.02,-0.04,1.35,-6.35,0.43,11.96,895.15,22.77,
4422254,-0.01,-0.05,1.32,-6.16,1.1,11.9,895.09,22.76,
4422292,-0.02,-0.05,1.34,-5.98,1.1,11.84,895.14,22.76,
4422330,-0.02,-0.04,1.3,-5.98,2.08,11.84,895.13,22.76,
4422380,-0.03,-0.04,1.31,-6.04,2.38,11.9,895.16,22.76,
4422419,-0.02,-0.05,1.29,-6.35,2.81,11.54,895.18,22.77,
4422457,-0.03,-0.04,1.33,-6.35,2.69,11.78,895.18,22.76,
4422495,-0.02,-0.05,1.32,-6.41,3.36,11.96,895.1,22.77,
4422533,-0.02,-0.05,1.31,-6.47,3.3,11.84,895.16,22.76,
4422572,-0.02,-0.04,1.33,-6.29,3.54,11.9,895.18,22.77,
4422610,-0.02,-0.04,1.31,-6.35,2.81,12.02,895.15,22.76,
4422648,-0.02,-0.04,1.32,-6.29,2.32,12.02,895.15,22.77,
4422687,-0.01,-0.04,1.32,-6.23,2.38,12.15,895.14,22.76,
4422737,-0.01,-0.05,1.32,-6.23,2.2,12.27,895.15,22.75,
4422775,-0.02,-0.05,1.3,-6.29,1.65,12.21,895.15,22.76,
4422813,-0.02,-0.05,1.29,-6.53,2.38,12.27,895.15,22.77,
4422851,-0.01,-0.04,1.33,-6.65,2.44,12.08,895.15,22.76,
4422890,-0.01,-0.04,1.34,-6.47,2.08,12.21,895.11,22.77,
4422928,-0.02,-0.05,1.35,-6.71,1.71,12.08,895.2,22.76,
4422966,0.0,-0.04,1.38,-6.71,1.77,12.21,895.16,22.77,
4423005,-0.01,-0.04,1.37,-6.53,1.04,12.02,895.17,22.76,
4423043,-0.01,-0.03,1.39,-6.41,1.1,12.08,895.23,22.76,
4423093,-0.01,-0.04,1.4,-6.35,0.85,12.08,895.17,22.73,
4423131,-0.01,-0.05,1.35,-6.35,1.22,12.15,895.2,22.74,
4423169,-0.0,-0.05,1.36,-5.98,1.28,11.84,895.21,22.76,
4423208,-0.0,-0.04,1.35,-5.68,1.83,11.78,895.21,22.75,
4423246,-0.01,-0.05,1.35,-5.43,1.77,11.66,895.2,22.75,
4423284,-0.02,-0.04,1.29,-5.31,2.56,11.6,895.22,22.74,
4423322,-0.02,-0.04,1.34,-5.13,2.87,11.41,895.14,22.74,
4423361,-0.01,-0.05,1.32,-5.19,2.87,11.41,895.22,22.74,
4423399,-0.03,-0.04,1.37,-5.13,3.66,11.29,895.21,22.73,
4423437,-0.02,-0.06,1.33,-5.25,4.21,11.29,895.21,22.73,
4423513,-0.03,-0.06,1.33,-5.19,4.7,11.11,895.23,22.72,
4423552,-0.01,-0.05,1.29,-5.43,4.03,11.41,895.25,22.72,
4423590,0.0,-0.05,1.34,-5.19,3.85,10.99,895.2,22.72,
4423680,-0.01,-0.05,1.34,-5.0,3.72,11.23,895.21,22.69,
4423718,-0.01,-0.06,1.36,-4.33,4.09,11.17,895.26,22.71,
4423757,0.0,-0.04,1.32,-4.52,4.21,11.23,895.26,22.72,
4423795,-0.01,-0.04,1.34,-4.33,4.21,11.17,895.24,22.72,
4423833,-0.02,-0.06,1.32,-3.85,4.39,11.17,895.23,22.72,
4423872,0.01,-0.06,1.3,-3.78,4.33,10.99,895.2,22.71,
4423922,0.01,-0.05,1.33,-3.66,4.76,11.11,895.26,22.72,
4423960,0.02,-0.05,1.3,-3.48,4.94,10.68,895.17,22.72,
4423998,0.02,-0.04,1.4,-3.05,5.55,10.62,895.19,22.73,
4424037,0.02,-0.08,1.38,-3.11,7.63,10.31,895.15,22.72,
4424075,0.03,-0.06,1.4,-2.87,8.12,10.13,895.19,22.73,
4424113,0.06,-0.07,1.24,-2.87,11.66,9.64,895.1,22.73,
4424152,0.05,-0.08,1.12,-2.93,13.61,9.16,895.07,22.73,
4424190,0.04,-0.09,0.99,-2.56,17.15,8.54,895.07,22.72,
4424228,0.07,-0.1,0.84,-2.99,18.98,7.93,895.04,22.73,
4424266,0.05,-0.09,0.74,-2.99,20.45,7.87,895.03,22.73,
4424317,0.08,-0.07,0.84,-2.93,20.45,7.08,895.0,22.72,
4424355,0.04,-0.1,0.91,-2.75,20.75,6.96,894.96,22.73,
4424393,0.05,-0.12,0.89,-3.6,21.61,6.53,894.96,22.73,
4424431,0.09,-0.09,1.03,-2.38,21.61,5.68,894.98,22.73,
4424470,0.05,-0.09,0.97,-3.23,23.44,5.8,895.03,22.73,
4424508,0.06,-0.08,1.07,-2.44,22.58,5.74,895.08,22.73,
4424546,0.06,-0.12,1.08,-2.5,24.84,5.25,895.0,22.73,
4424584,0.02,-0.09,1.12,-2.26,24.84,5.07,895.05,22.73,
4424623,0.04,-0.07,1.12,-1.77,25.51,5.19,895.05,22.73,
4424673,0.05,-0.08,1.1,-1.59,24.9,4.82,895.06,22.74,
4424711,0.03,-0.07,1.15,-1.4,24.23,4.76,895.05,22.73,
4424749,0.05,-0.08,1.12,-1.34,23.68,4.7,895.05,22.73,
4424787,0.03,-0.07,1.16,-1.4,23.25,4.88,895.04,22.72,
4424826,0.01,-0.09,1.18,-1.53,24.6,4.76,895.05,22.74,
4424864,0.03,-0.07,1.2,-1.53,23.68,4.64,895.04,22.73,
4424902,0.03,-0.07,1.15,-1.59,23.25,4.88,894.98,22.72,
4424941,0.03,-0.07,1.11,-2.62,23.13,4.94,895.06,22.72,
4424979,0.05,-0.06,1.16,-2.75,22.58,5.0,895.08,22.73,
4425017,0.04,-0.08,1.13,-2.75,22.89,4.94,895.01,22.73,
4425067,0.01,-0.08,1.16,-2.99,23.07,5.13,895.07,22.7,
4425106,0.04,-0.05,1.21,-3.3,23.93,4.76,895.08,22.7,
4425144,0.02,-0.06,1.22,-3.17,24.6,4.88,895.08,22.7,
4425182,0.04,-0.06,1.18,-3.11,25.02,4.94,895.11,22.71,
4425221,0.04,-0.08,1.2,-2.87,24.54,5.0,895.12,22.71,
4425259,0.04,-0.06,1.21,-2.69,23.86,5.13,895.15,22.72,
4425297,0.02,-0.06,1.26,-2.44,22.46,5.37,895.12,22.71,
4425335,-0.0,-0.06,1.22,-2.32,21.73,5.49,895.16,22.72,
4425374,0.06,-0.06,1.28,-2.32,20.75,5.55,895.09,22.71,
4425424,0.06,-0.04,1.37,-1.83,20.08,5.86,895.08,22.69,
4425462,0.04,-0.06,1.4,-1.65,19.29,5.98,895.11,22.71,
4425500,0.03,-0.06,1.39,-1.28,18.37,6.1,895.12,22.71,
4425538,0.04,-0.02,1.54,-1.1,16.48,6.23,895.11,22.71,
4425577,0.06,-0.05,1.53,-1.04,13.79,6.35,895.14,22.71,
4425615,0.05,-0.04,1.43,-1.22,11.29,6.41,895.21,22.69,
4425653,0.05,-0.05,1.5,-0.31,10.13,6.16,895.21,22.71,
4425692,0.08,-0.08,1.38,-0.49,9.16,6.04,895.25,22.7,
4425730,0.06,-0.05,1.38,-0.24,5.68,6.04,895.32,22.71,
4425768,0.04,-0.06,1.29,0.55,4.76,6.04,895.31,22.71,
4425818,0.01,-0.09,1.14,1.22,1.71,5.55,895.36,22.7,
4425856,0.06,-0.07,1.15,1.89,1.04,5.43,895.37,22.71,
4425895,0.03,-0.08,1.02,1.77,-0.06,5.13,895.34,22.7,
4425933,0.01,-0.07,1.0,2.01,-1.04,4.82,895.37,22.72,
4425971,0.02,-0.08,0.97,1.4,-0.24,4.27,895.41,22.72,
4426009,0.0,-0.09,1.02,1.4,-0.61,4.15,895.34,22.71,
4426048,0.02,-0.09,1.02,1.04,0.37,4.03,895.34,22.71,
4426086,0.01,-0.08,1.01,1.04,0.73,3.48,895.32,22.71,
4426124,0.03,-0.08,1.04,1.22,2.38,2.93,895.3,22.71,
4426174,0.02,-0.08,1.02,1.04,2.32,2.93,895.37,22.7,
4426212,0.02,-0.09,1.06,1.22,3.78,2.5,895.34,22.7,
4426251,0.02,-0.09,1.02,1.1,4.09,2.38,895.29,22.7,
4426289,0.02,-0.08,1.05,1.71,3.91,2.14,895.36,22.71,
4426327,0.03,-0.07,1.05,1.46,4.27,1.71,895.3,22.72,
4426365,0.03,-0.08,1.06,1.65,4.21,1.4,895.28,22.72,
4426404,0.04,-0.08,1.07,1.71,3.78,1.34,895.29,22.72,
4426442,0.03,-0.07,1.08,1.71,3.72,1.1,895.26,22.72,
4426480,0.01,-0.07,1.07,1.46,3.6,0.98,895.24,22.7,
4426518,0.02,-0.08,1.11,1.46,3.48,0.85,895.21,22.71,
4426594,-0.0,-0.07,1.06,1.4,3.05,0.61,895.26,22.69,
4426633,0.02,-0.08,1.02,1.28,3.72,0.37,895.24,22.7,
4426671,-0.01,-0.08,0.99,1.71,3.17,0.31,895.31,22.7,
4426761,-0.03,-0.07,0.89,2.75,3.66,0.49,895.24,22.66,
4426799,-0.02,-0.08,0.85,2.14,3.66,0.61,895.23,22.69,
4426837,-0.03,-0.08,0.83,2.44,2.87,0.55,895.19,22.69,
4426876,-0.05,-0.09,0.83,2.44,2.75,0.67,895.15,22.7,
4426914,-0.03,-0.08,0.86,2.26,2.38,0.85,895.13,22.69,
4426952,-0.04,-0.08,0.87,2.08,2.56,0.98,895.16,22.7,
4426990,-0.05,-0.07,0.87,2.14,2.5,1.16,895.11,22.7,
4427040,-0.04,-0.08,0.89,2.32,2.62,1.46,895.14,22.69,
4427079,-0.05,-0.09,0.89,1.95,2.01,1.65,895.12,22.7,
4427117,-0.05,-0.08,0.9,1.89,2.2,1.77,895.08,22.69,
4427155,-0.02,-0.08,0.95,1.83,2.5,1.83,895.19,22.7,
4427194,-0.03,-0.08,0.95,1.46,2.26,2.26,895.12,22.71,
4427232,-0.03,-0.07,1.0,1.83,2.01,2.26,895.15,22.71,
4427270,-0.04,-0.08,0.98,1.95,2.62,2.32,895.15,22.69,
4427308,-0.03,-0.08,1.0,2.01,2.38,2.44,895.15,22.7,
4427347,-0.03,-0.08,1.01,1.95,2.2,2.62,895.15,22.7,
4427397,-0.03,-0.08,1.01,2.14,1.53,2.62,895.1,22.69,
4427435,-0.01,-0.07,1.02,2.08,1.59,2.56,895.18,22.71,
4427473,-0.01,-0.08,1.02,2.26,0.92,2.69,895.1,22.7,
4427512,-0.02,-0.08,1.03,1.89,0.67,2.62,895.15,22.71,
4427550,-0.02,-0.08,1.05,2.2,1.4,2.44,895.09,22.7,
4427588,-0.03,-0.08,1.03,2.2,1.83,2.62,895.13,22.71,
4427626,-0.03,-0.07,1.07,2.62,0.92,2.44,895.1,22.72,
4427665,-0.01,-0.08,1.08,2.5,-0.12,2.5,895.07,22.7,
4427703,-0.03,-0.07,1.1,2.5,-0.49,2.69,895.12,22.71,
4427741,-0.02,-0.08,1.08,2.38,-0.79,2.62,895.09,22.72,
4427791,-0.0,-0.08,1.05,2.14,-1.04,2.75,895.06,22.7,
4427830,-0.03,-0.08,1.01,2.2,-0.85,2.75,895.07,22.7,
4427868,-0.04,-0.07,0.97,2.2,-0.61,2.75,895.06,22.7,
4427906,-0.04,-0.07,0.99,2.2,-1.16,2.5,895.02,22.7,
4427944,-0.02,-0.08,0.97,2.08,-0.79,2.62,895.06,22.71,
4427983,-0.02,-0.08,0.96,2.14,-1.53,2.62,894.95,22.69,
4428021,-0.03,-0.07,0.99,2.32,-0.61,2.62,894.99,22.7,
4428059,-0.02,-0.08,0.97,2.26,-0.12,2.62,895.03,22.71,
4428098,-0.03,-0.07,0.99,2.2,-0.67,2.69,894.97,22.7,
4428136,-0.02,-0.07,0.94,1.77,0.0,2.75,894.94,22.72,
4428186,-0.03,-0.08,0.96,1.77,0.12,2.75,895.0,22.71,
4428224,-0.03,-0.08,0.93,1.34,0.49,2.81,894.99,22.7,
4428263,-0.02,-0.07,0.98,1.59,0.31,2.69,894.96,22.71,
4428301,-0.01,-0.08,0.96,1.22,1.28,2.69,894.96,22.71,
4428339,0.0,-0.08,0.99,1.53,0.24,2.75,894.91,22.71,
4428377,0.0,-0.08,0.99,1.16,-0.06,2.62,894.86,22.72,
4428416,-0.04,-0.08,0.96,0.73,-2.08,2.75,894.73,22.72,
4428454,-0.03,-0.08,0.98,0.06,-4.94,2.75,894.66,22.72,
4428492,-0.04,-0.1,0.96,-1.1,-6.96,2.81,894.53,22.72,
4428542,-0.05,-0.08,0.98,-2.5,-11.29,2.99,894.43,22.71,
4428581,-0.09,-0.08,0.97,-3.54,-12.82,3.48,894.45,22.72,
4428619,-0.11,-0.07,1.02,-3.42,-14.4,3.91,894.35,22.71,
4428657,-0.11,-0.09,1.02,-4.33,-15.14,4.52,894.29,22.72,
4428695,-0.12,-0.08,1.09,-4.46,-16.36,4.94,894.37,22.74,
4428734,-0.12,-0.09,1.16,-4.64,-16.42,5.37,894.28,22.72,
4428772,-0.1,-0.09,1.19,-4.64,-16.91,5.68,894.3,22.72,
4428810,-0.1,-0.07,1.25,-5.07,-16.97,6.04,894.35,22.72,
4428849,-0.12,-0.07,1.25,-5.13,-17.03,6.59,894.34,22.72,
4428899,-0.1,-0.06,1.27,-5.62,-16.78,6.71,894.37,22.71,
4428937,-0.11,-0.05,1.32,-5.62,-16.85,6.84,894.36,22.72,
4428975,-0.11,-0.07,1.32,-5.74,-16.72,7.08,894.32,22.72,
4429014,-0.08,-0.07,1.32,-5.68,-16.54,7.26,894.28,22.71,
4429052,-0.07,-0.06,1.38,-5.43,-16.66,7.39,894.35,22.72,
4429090,-0.08,-0.06,1.37,-5.62,-16.72,7.57,894.31,22.72,
4429129,-0.11,-0.04,1.42,-5.37,-18.07,7.69,894.28,22.73,
4429167,-0.08,-0.06,1.43,-5.86,-18.55,7.93,894.22,22.72,
4429205,-0.06,-0.06,1.51,-5.98,-19.35,8.18,894.25,22.72,
4429255,-0.05,-0.03,1.51,-6.53,-22.03,8.36,894.19,22.72,
4429294,-0.07,-0.04,1.59,-6.29,-21.79,8.18,894.18,22.72,
4429332,-0.06,-0.05,1.59,-6.16,-21.42,8.18,894.13,22.72,
4429370,-0.09,-0.04,1.54,-6.35,-22.4,8.61,894.16,22.73,
4429408,-0.11,-0.03,1.63,-6.41,-22.34,8.73,894.1,22.72,
4429447,-0.1,-0.02,1.57,-6.96,-21.24,8.42,894.08,22.74,
4429485,-0.07,0.0,1.72,-6.71,-21.48,8.18,894.07,22.73,
4429523,-0.07,-0.03,1.73,-6.47,-20.2,8.36,894.07,22.72,
4429562,-0.09,-0.02,1.71,-6.47,-20.08,8.3,894.08,22.72,
4429600,-0.09,-0.0,1.85,-6.1,-18.92,8.12,894.17,22.73,
4429678,-0.11,-0.02,1.85,-5.31,-19.47,8.18,894.15,22.7,
4429716,-0.1,-0.02,1.71,-5.37,-16.42,7.93,894.18,22.71,
4429754,-0.06,-0.01,1.75,-5.55,-15.87,7.57,894.16,22.72,
4429844,-0.13,0.01,1.69,-5.55,-12.57,8.12,894.16,22.68,
4429883,-0.1,-0.01,1.7,-6.16,-9.22,7.69,894.12,22.69,
4429921,-0.05,-0.0,1.81,-6.16,-7.75,7.51,894.15,22.7,
4429959,-0.02,-0.01,1.78,-6.47,-5.19,7.45,894.14,22.7,
4429998,-0.04,0.01,1.76,-6.23,-1.65,7.26,894.23,22.7,
4430036,0.0,-0.0,1.71,-6.23,0.85,7.26,894.2,22.7,
4430086,-0.04,-0.01,1.61,-5.92,0.67,7.57,894.12,22.69,
4430124,-0.05,-0.01,1.58,-5.8,1.83,7.26,894.19,22.69,
4430163,-0.03,-0.01,1.52,-5.49,2.08,7.14,894.21,22.7,
4430201,0.0,-0.03,1.54,-5.55,1.1,7.2,894.17,22.71,
4430239,0.01,-0.05,1.46,-5.43,0.37,7.51,894.1,22.69,
4430277,-0.03,-0.03,1.42,-5.0,-0.43,7.87,894.07,22.71,
4430316,-0.05,-0.02,1.35,-5.19,0.43,7.87,894.08,22.71,
4430354,-0.03,-0.02,1.3,-5.19,0.73,7.87,894.08,22.7,
4430392,-0.05,-0.03,1.25,-5.49,2.01,8.12,894.06,22.71,
4430442,-0.03,-0.08,1.28,-5.68,3.42,8.06,894.03,22.71,
4430481,-0.04,-0.05,1.22,-5.92,4.88,8.06,893.97,22.7,
4430519,-0.04,-0.02,1.27,-5.55,5.25,8.3,893.89,22.7,
4430557,-0.03,-0.05,1.16,-6.35,7.87,8.42,893.88,22.71,
4430595,-0.02,-0.04,1.18,-5.43,7.26,8.54,893.81,22.7,
4430634,-0.06,-0.06,1.11,-5.19,7.2,8.54,893.79,22.71,
4430672,-0.03,-0.06,1.08,-5.31,7.57,8.54,893.78,22.7,
4430710,-0.0,-0.04,1.21,-5.68,6.35,9.09,893.74,22.69,
4430749,0.02,-0.04,1.19,-6.59,5.86,9.28,893.71,22.71,
4430787,-0.06,-0.04,1.22,-6.47,4.15,9.4,893.69,22.71,
4430837,-0.01,-0.06,1.24,-6.71,6.16,9.58,893.7,22.7,
4430875,-0.02,-0.03,1.23,-6.53,4.46,9.34,893.65,22.71,
4430914,-0.05,-0.03,1.17,-6.9,6.47,9.52,893.59,22.7,
4430952,0.0,-0.05,1.17,-6.47,7.2,9.46,893.58,22.71,
4430990,0.01,-0.05,1.25,-6.29,8.06,9.16,893.51,22.71,
4431028,-0.03,-0.04,1.16,-6.65,8.54,9.28,893.47,22.7,
4431066,-0.03,-0.04,1.2,-6.65,10.07,9.34,893.45,22.71,
4431105,-0.0,-0.05,1.2,-6.65,11.29,8.85,893.46,22.72,
4431143,-0.0,-0.05,1.23,-6.47,10.68,8.85,893.41,22.71,
4431193,-0.01,-0.06,1.16,-6.1,11.78,8.85,893.45,22.71,
4431231,-0.0,-0.04,1.18,-5.74,11.78,8.61,893.39,22.71,
4431270,-0.0,-0.05,1.18,-5.49,11.6,8.73,893.38,22.7,
4431308,-0.01,-0.05,1.16,-4.94,10.01,8.73,893.37,22.69,
4431346,-0.02,-0.06,1.21,-4.46,10.25,8.42,893.28,22.7,
4431385,-0.02,-0.04,1.16,-4.33,10.13,8.42,893.27,22.71,
4431423,-0.02,-0.04,1.2,-3.72,8.73,8.36,893.26,22.72,
4431461,-0.01,-0.05,1.13,-3.36,9.28,8.06,893.22,22.7,
4431499,-0.01,-0.05,1.13,-3.36,8.54,8.0,893.24,22.71,
4431538,-0.01,-0.06,1.1,-3.23,9.28,8.3,893.21,22.7,
4431588,-0.04,-0.05,1.1,-2.81,8.48,8.06,893.18,22.7,
4431626,-0.03,-0.06,1.06,-2.5,9.34,8.18,893.18,22.72,
4431664,-0.02,-0.06,1.11,-1.65,8.54,8.06,893.14,22.71,
4431703,-0.02,-0.07,1.06,-1.77,8.85,7.93,893.15,22.71,
4431741,-0.04,-0.05,1.09,-0.98,7.93,8.24,893.08,22.71,
4431779,-0.04,-0.07,1.0,-1.1,9.77,8.24,893.1,22.71,
4431817,-0.01,-0.06,1.0,-0.98,8.91,8.18,893.04,22.71,
4431856,-0.01,-0.05,1.0,-0.67,9.89,8.24,892.97,22.71,
4431894,-0.02,-0.07,0.92,-0.98,10.56,8.18,892.98,22.71,
4431944,-0.02,-0.07,0.94,-0.43,10.74,8.18,892.94,22.7,
4431982,-0.02,-0.08,0.89,-0.79,10.86,8.06,892.96,22.7,
4432020,-0.02,-0.06,0.89,-0.73,10.5,8.24,892.95,22.71,
4432059,-0.02,-0.07,0.82,-1.34,10.93,8.18,892.96,22.71,
4432097,-0.02,-0.06,0.89,-0.98,8.61,8.0,892.91,22.72,
4432135,-0.02,-0.08,0.82,-1.59,8.61,8.06,892.9,22.71,
4432173,-0.01,-0.07,0.85,-2.38,7.87,8.06,892.85,22.72,
4432212,-0.01,-0.07,0.85,-2.44,8.67,7.93,892.84,22.71,
4432250,-0.05,-0.05,0.86,-2.93,8.54,8.0,892.86,22.7,
4432288,-0.02,-0.07,0.86,-2.99,9.34,7.87,892.83,22.7,
4432338,0.01,-0.06,0.91,-3.23,9.22,7.57,892.85,22.71,
4432377,-0.01,-0.07,0.9,-2.5,10.31,7.63,892.88,22.7,
4432415,-0.03,-0.06,0.86,-2.5,11.23,7.75,892.85,22.69,
4432453,-0.01,-0.06,0.89,-1.1,11.23,7.39,892.85,22.69,
4432491,-0.01,-0.07,0.84,-1.34,11.9,7.32,892.88,22.69,
4432530,-0.01,-0.05,0.82,-0.73,11.17,7.45,892.82,22.71,
4432568,-0.02,-0.06,0.82,-0.12,11.23,7.2,892.81,22.7,
4432606,0.02,-0.07,0.81,0.18,10.31,6.9,892.72,22.68,
4432645,0.0,-0.05,0.89,0.85,8.12,6.96,892.81,22.7,
4432721,-0.02,-0.07,0.81,0.79,7.45,6.59,892.82,22.66,
4432759,-0.0,-0.06,0.85,0.73,5.62,6.53,892.73,22.67,
4432797,-0.02,-0.07,0.84,0.98,4.27,6.53,892.76,22.67,
4432887,-0.02,-0.04,0.81,1.16,2.5,6.47,892.73,22.63,
4432925,-0.02,-0.06,0.77,0.73,1.46,6.47,892.71,22.64,
4432964,-0.05,-0.06,0.8,0.73,0.61,6.41,892.71,22.66,
4433002,-0.06,-0.07,0.77,0.67,2.14,6.41,892.65,22.65,
4433040,-0.02,-0.05,0.79,0.61,1.53,6.16,892.66,22.66,
4433078,-0.06,-0.05,0.78,1.22,1.1,6.23,892.7,22.67,
4433117,-0.04,-0.05,0.71,0.79,1.77,6.35,892.66,22.66,
4433167,-0.03,-0.05,0.72,0.67,1.65,6.16,892.58,22.66,
4433205,-0.05,-0.06,0.71,0.18,0.92,6.47,892.65,22.67,
4433243,-0.06,-0.05,0.75,0.0,0.61,6.53,892.59,22.66,
4433281,-0.05,-0.06,0.78,-0.24,1.4,6.35,892.63,22.68,
4433320,-0.05,-0.05,0.81,-0.24,1.16,6.47,892.57,22.67,
4433358,-0.05,-0.04,0.8,-0.24,1.34,6.47,892.6,22.67,
4433396,-0.06,-0.04,0.82,0.0,2.01,6.59,892.6,22.68,
4433435,-0.05,-0.04,0.85,-0.12,2.93,6.53,892.63,22.68,
4433473,-0.05,-0.03,0.9,0.18,3.23,6.47,892.53,22.67,
4433523,-0.05,-0.04,0.9,0.43,4.64,6.53,892.57,22.66,
4433561,-0.05,-0.03,0.93,0.67,5.25,6.41,892.52,22.68,
4433600,-0.06,-0.04,0.92,0.49,5.62,6.53,892.58,22.68,
4433638,-0.05,-0.03,0.92,0.43,5.55,6.53,892.56,22.68,
4433676,-0.06,-0.03,0.92,0.37,6.47,6.59,892.57,22.68,
4433714,-0.04,-0.03,0.89,0.12,6.23,6.71,892.54,22.68,
4433753,-0.06,-0.03,0.9,0.31,5.37,6.77,892.5,22.68,
4433791,-0.06,-0.03,0.89,0.31,5.25,7.02,892.51,22.68,
4433829,-0.04,-0.03,0.93,0.12,5.43,6.9,892.49,22.69,
4433868,-0.04,-0.03,0.94,-0.18,5.25,6.9,892.57,22.7,
4433917,-0.07,-0.03,0.97,0.24,4.52,7.14,892.47,22.66,
4433956,-0.06,-0.03,0.96,0.06,4.94,7.26,892.51,22.69,
4433994,-0.05,-0.02,1.01,0.37,5.0,7.2,892.53,22.69,
4434032,-0.06,-0.02,0.99,0.18,5.74,7.32,892.48,22.7,
4434071,-0.06,-0.02,1.04,0.85,6.1,7.08,892.46,22.69,
4434109,-0.06,-0.02,1.05,0.79,7.45,7.2,892.5,22.68,
4434147,-0.06,-0.02,1.07,0.98,8.12,7.26,892.49,22.7,
4434186,-0.06,-0.01,1.09,1.16,8.54,7.32,892.52,22.68,
4434224,-0.06,-0.01,1.06,0.92,8.61,7.57,892.48,22.69,
4434262,-0.07,-0.01,1.07,1.22,8.48,7.69,892.53,22.7,
4434312,-0.06,-0.02,1.05,1.28,8.97,7.93,892.43,22.68,
4434350,-0.06,-0.01,1.06,1.53,7.75,7.87,892.49,22.68,
4434389,-0.07,-0.01,1.03,1.71,7.63,8.12,892.42,22.68,
4434427,-0.06,-0.01,1.06,1.89,6.65,8.3,892.5,22.68,
4434465,-0.06,-0.02,1.06,2.01,6.71,8.42,892.5,22.68,
4434503,-0.06,-0.01,1.06,2.5,4.39,8.79,892.5,22.68,
4434542,-0.07,-0.02,1.03,2.5,4.39,8.85,892.48,22.69,
4434580,-0.06,-0.01,1.0,2.32,4.52,8.73,892.51,22.68,
4434618,-0.05,-0.01,1.03,2.99,4.21,9.03,892.54,22.69,
4434668,-0.05,-0.0,0.97,2.87,3.42,9.03,892.51,22.66,
4434707,-0.07,-0.01,1.04,3.6,3.36,9.09,892.52,22.67,
4434745,-0.06,-0.03,0.99,3.05,4.64,9.09,892.54,22.69,
4434783,-0.05,-0.01,1.04,3.72,4.03,9.03,892.53,22.69,
4434821,-0.05,-0.01,1.0,3.54,4.94,9.28,892.54,22.68,
4434860,-0.05,-0.01,1.0,4.09,3.85,9.28,892.53,22.69,
4434898,-0.06,-0.02,0.97,4.03,4.09,9.28,892.5,22.69,
4434936,-0.05,-0.03,0.95,4.03,3.48,9.4,892.55,22.69,
4434975,-0.05,-0.02,0.94,4.21,3.72,9.09,892.53,22.69,
4435013,-0.06,-0.02,0.85,3.66,4.21,9.34,892.52,22.69,
4435063,-0.05,-0.02,0.9,3.54,3.91,9.16,892.56,22.68,
4435101,-0.05,-0.04,0.85,2.93,4.15,9.22,892.49,22.69,
4435139,-0.05,-0.03,0.89,2.69,2.99,9.22,892.52,22.68,
4435178,-0.06,-0.02,0.91,2.44,3.85,9.4,892.56,22.69,
4435216,-0.05,-0.02,0.91,2.44,3.85,9.4,892.6,22.69,
4435254,-0.06,-0.02,0.92,2.01,3.97,9.22,892.54,22.68,
4435292,-0.06,-0.03,0.9,1.83,4.09,9.58,892.59,22.7,
4435331,-0.06,-0.03,0.89,1.77,4.7,9.52,892.57,22.69,
4435369,-0.05,-0.03,0.84,1.4,5.49,9.4,892.58,22.69,
4435407,-0.04,-0.02,0.83,1.34,5.62,9.4,892.63,22.69,
4435458,-0.05,-0.04,0.77,1.4,6.41,9.52,892.58,22.68,
4435496,-0.04,-0.05,0.76,1.4,6.53,9.52,892.7,22.69,
4435534,-0.04,-0.04,0.75,1.59,6.71,9.52,892.68,22.69,
4435572,-0.04,-0.04,0.73,1.83,6.47,9.77,892.65,22.69,
4435611,-0.03,-0.05,0.71,2.14,5.8,9.52,892.66,22.69,
4435649,-0.03,-0.05,0.7,2.26,5.0,9.52,892.69,22.69,
4435687,-0.03,-0.05,0.69,2.2,4.39,9.83,892.62,22.69,
4435726,-0.06,-0.04,0.71,2.2,3.36,9.52,892.73,22.7,
4435764,-0.03,-0.04,0.71,2.14,3.3,9.58,892.67,22.69,
4435840,-0.04,-0.05,0.71,2.2,2.08,9.64,892.7,22.67,
4435878,-0.03,-0.04,0.74,2.5,1.46,9.52,892.73,22.68,
4435916,-0.03,-0.04,0.73,2.5,1.16,9.64,892.74,22.69,
4436006,-0.03,-0.05,0.73,3.11,0.98,9.4,892.79,22.66,
4436045,-0.03,-0.04,0.73,3.36,0.49,9.4,892.75,22.66,
4436083,-0.05,-0.04,0.73,3.48,0.12,9.52,892.81,22.68,
4436121,-0.03,-0.05,0.73,3.05,0.18,9.16,892.81,22.68,
4436160,-0.03,-0.04,0.76,3.11,0.0,9.03,892.78,22.69,
4436198,-0.03,-0.05,0.75,2.99,-0.12,8.97,892.83,22.68,
4436236,-0.03,-0.04,0.76,2.93,-0.79,8.85,892.82,22.68,
4436286,-0.03,-0.05,0.76,2.56,-0.18,8.73,892.77,22.67,
4436324,-0.03,-0.05,0.78,2.69,-0.79,8.79,892.83,22.69,
4436363,-0.03,-0.06,0.76,2.5,-0.85,8.61,892.85,22.69,
4436401,-0.03,-0.05,0.73,2.26,-0.98,8.36,892.9,22.69,
4436439,-0.04,-0.05,0.74,2.69,-0.49,8.3,892.9,22.69,
4436477,-0.03,-0.05,0.73,2.01,0.18,8.24,892.96,22.7,
4436516,-0.04,-0.04,0.79,2.81,-0.24,8.0,892.97,22.71,
4436554,-0.05,-0.06,0.75,2.44,0.85,8.06,892.97,22.7,
4436592,-0.03,-0.05,0.8,2.44,0.61,8.0,892.97,22.7,
4436642,-0.04,-0.05,0.75,1.89,0.92,7.69,893.02,22.69,
4436680,-0.04,-0.05,0.79,1.65,0.49,7.93,893.04,22.7,
4436719,-0.04,-0.06,0.8,1.04,0.98,7.93,893.08,22.7,
4436757,-0.04,-0.05,0.82,0.43,0.61,7.81,893.06,22.71,
4436795,-0.05,-0.05,0.85,0.49,0.73,7.81,893.09,22.7,
4436834,-0.04,-0.05,0.86,0.06,0.79,7.87,893.1,22.71,
4436872,-0.03,-0.04,0.92,0.18,0.43,7.75,893.11,22.71,
4436910,-0.03,-0.05,0.93,-0.06,0.37,8.0,893.16,22.71,
4436948,-0.04,-0.05,0.95,0.12,0.18,7.81,893.21,22.71,
4436987,-0.03,-0.05,0.97,0.12,0.55,7.69,893.25,22.71,
4437037,-0.04,-0.04,0.97,0.12,0.92,7.81,893.22,22.71,
4437075,-0.03,-0.05,0.99,0.18,1.4,7.57,893.28,22.7,
4437113,-0.04,-0.05,0.98,0.24,2.08,7.63,893.24,22.71,
4437151,-0.04,-0.04,1.01,0.55,2.87,7.51,893.33,22.71,
4437190,-0.03,-0.04,1.02,0.79,3.66,7.51,893.34,22.69,
4437228,-0.03,-0.04,1.03,1.04,3.78,7.69,893.27,22.71,
4437266,-0.04,-0.04,1.03,1.4,4.15,7.51,893.34,22.71,
4437305,-0.04,-0.04,1.04,1.53,4.46,7.57,893.43,22.72,
4437343,-0.03,-0.04,1.03,1.59,4.82,7.81,893.47,22.72,
4437381,-0.03,-0.05,1.0,1.65,4.82,7.69,893.47,22.72,
4437431,-0.03,-0.05,1.0,1.89,5.55,7.75,893.46,22.7,
4437470,-0.04,-0.04,0.99,1.95,5.86,7.75,893.47,22.71,
4437508,-0.04,-0.05,1.0,2.08,6.1,7.87,893.51,22.72,
4437546,-0.03,-0.04,0.99,2.01,6.59,7.87,893.55,22.72,
4437584,-0.04,-0.05,1.01,2.08,6.96,8.0,893.45,22.7,
4437623,-0.03,-0.05,1.0,2.08,6.84,8.24,893.56,22.7,
4437661,-0.03,-0.05,1.05,2.08,6.23,8.12,893.53,22.71,
4437699,-0.04,-0.05,1.0,1.65,6.71,8.42,893.63,22.71,
4437737,-0.03,-0.04,1.04,1.83,6.29,8.48,893.74,22.71,
4437787,-0.02,-0.05,1.03,1.16,7.2,8.42,893.64,22.71,
4437826,-0.03,-0.04,1.07,1.16,6.23,8.61,893.63,22.69,
4437864,-0.01,-0.05,1.05,0.85,6.84,8.54,893.63,22.7,
4437902,-0.02,-0.07,1.01,0.49,7.08,8.61,893.74,22.72,
4437941,-0.02,-0.04,1.02,0.18,7.75,8.54,893.73,22.7,
4437979,-0.02,-0.05,1.03,0.06,8.3,8.42,893.77,22.71,
4438017,-0.02,-0.06,1.0,-0.31,7.93,8.79,893.81,22.72,
4438055,-0.02,-0.04,1.05,-0.37,8.06,8.67,893.86,22.7,
4438094,-0.03,-0.05,1.04,-0.67,10.19,8.79,893.85,22.72,
4438132,-0.02,-0.05,1.08,-0.37,9.77,8.67,893.89,22.71,
4438182,-0.02,-0.05,1.12,-0.61,11.47,8.73,893.92,22.69,
4438220,-0.02,-0.04,1.16,-0.37,10.99,8.61,893.95,22.71,
4438259,-0.01,-0.04,1.18,-0.43,11.41,8.85,893.97,22.71,
4438297,0.01,-0.03,1.21,-0.67,11.29,8.73,893.98,22.71,
4438335,-0.0,-0.03,1.25,-0.79,10.8,8.79,893.99,22.72,
4438374,-0.0,-0.04,1.28,-0.73,9.83,8.79,894.04,22.7,
4438412,0.01,-0.04,1.32,-0.67,9.28,8.61,894.03,22.71,
4438450,-0.01,-0.04,1.33,-0.73,9.28,8.79,894.11,22.72,
4438488,-0.0,-0.03,1.36,-0.31,8.3,8.91,894.11,22.72,
4438538,-0.01,-0.03,1.35,0.0,7.69,8.85,894.13,22.7,
4438577,-0.0,-0.04,1.36,0.12,7.93,8.73,894.17,22.71,
4438615,0.0,-0.04,1.34,0.43,7.63,8.67,894.21,22.72,
4438653,0.02,-0.03,1.34,0.73,7.02,8.67,894.28,22.71,
4438691,-0.01,-0.05,1.31,1.04,6.96,8.54,894.31,22.71,
4438730,-0.01,-0.05,1.33,1.1,7.14,8.3,894.22,22.71,
4438768,0.02,-0.04,1.34,1.04,6.9,8.18,894.22,22.7,
4438806,-0.0,-0.04,1.29,0.92,5.37,8.18,894.3,22.72,
4438844,-0.0,-0.05,1.23,0.92,4.76,8.3,894.31,22.72,
4438883,0.01,-0.07,1.24,1.28,4.82,7.69,894.32,22.72,
4438959,0.01,-0.06,1.08,0.98,4.21,7.45,894.4,22.69,
4438997,-0.02,-0.04,1.14,1.28,3.48,7.39,894.42,22.69,
4439035,-0.01,-0.08,1.05,0.24,4.33,7.08,894.4,22.7,
4439125,0.0,-0.08,1.11,-0.55,4.58,6.96,894.5,22.67,
4439163,-0.0,-0.06,1.17,-0.06,3.23,6.59,894.54,22.67,
4439201,0.0,-0.08,1.14,-0.24,4.58,6.53,894.53,22.68,
4439240,0.03,-0.1,1.05,-0.43,4.76,6.53,894.64,22.69,
4439278,-0.0,-0.08,1.05,0.0,4.03,6.16,894.6,22.69,
4439316,0.0,-0.09,0.93,-0.73,5.62,5.98,894.63,22.69,
4439354,0.01,-0.06,1.01,-0.92,3.97,5.86,894.57,22.7,
4439404,0.01,-0.11,0.97,-1.89,5.49,5.68,894.59,22.68,
4439443,0.02,-0.08,1.04,-1.89,5.37,5.13,894.59,22.69,
4439481,0.03,-0.09,1.04,-2.26,8.0,4.94,894.58,22.69,
4439519,0.03,-0.08,1.06,-2.38,7.51,4.76,894.62,22.69,
4439557,0.02,-0.08,1.1,-2.44,8.06,4.58,894.6,22.69,
4439596,0.04,-0.09,1.11,-3.11,7.63,4.46,894.68,22.69,
4439634,0.01,-0.08,1.19,-2.81,8.24,4.33,894.71,22.7,
4439672,0.02,-0.08,1.17,-3.3,8.42,4.15,894.78,22.71,
4439710,0.03,-0.07,1.24,-2.26,7.63,3.91,894.73,22.69,
4439760,0.03,-0.08,1.22,-2.14,7.63,3.78,894.78,22.69,
4439799,0.04,-0.08,1.23,-1.65,6.77,3.3,894.76,22.7,
4439837,0.01,-0.08,1.24,-1.34,6.04,3.11,894.81,22.71,
4439875,0.02,-0.09,1.24,-1.16,5.43,2.93,894.83,22.7,
4439914,0.01,-0.08,1.22,-1.34,5.49,2.44,894.87,22.71,
4439952,0.02,-0.08,1.28,-1.1,5.25,2.26,894.87,22.71,
4439990,0.03,-0.08,1.23,-1.16,5.86,1.89,894.9,22.72,
4440028,0.01,-0.08,1.24,-1.28,6.16,1.71,894.91,22.71,
4440067,0.01,-0.08,1.26,-0.92,7.08,1.4,894.91,22.71,
4440105,0.0,-0.09,1.24,-0.92,6.71,1.4,894.95,22.71,
4440155,0.01,-0.08,1.27,-0.67,6.84,0.92,894.97,22.69,
4440193,0.01,-0.08,1.27,-0.49,6.35,0.92,894.92,22.7,
4440231,0.01,-0.08,1.24,-0.61,5.68,0.92,894.96,22.7,
4440270,-0.01,-0.09,1.23,-0.31,5.43,0.49,894.99,22.7,
4440308,0.0,-0.08,1.22,-0.06,5.37,0.43,895.0,22.7,
4440346,0.01,-0.08,1.21,-0.06,5.8,0.43,894.97,22.7,
4440384,-0.0,-0.08,1.19,0.18,5.55,0.31,895.03,22.71,
4440423,0.0,-0.08,1.19,0.18,5.43,0.31,895.0,22.71,
4440461,0.0,-0.09,1.13,0.12,5.43,0.12,895.0,22.7,
4440499,0.0,-0.08,1.14,0.06,5.07,0.12,895.01,22.69,
4440549,-0.0,-0.08,1.13,0.55,4.7,-0.12,895.0,22.69,
4440587,-0.0,-0.09,1.15,0.67,4.7,0.0,894.98,22.69,
4440626,0.01,-0.09,1.16,0.55,5.31,-0.12,895.09,22.71,
4440664,-0.02,-0.09,1.13,0.18,4.64,-0.31,895.08,22.69,
4440702,-0.02,-0.09,1.12,-0.24,4.52,-0.24,895.02,22.69,
4440740,-0.01,-0.08,1.15,-0.61,4.39,-0.43,895.03,22.69,
4440779,-0.01,-0.09,1.16,-0.92,5.13,-0.49,895.09,22.7,
4440817,-0.02,-0.08,1.13,-1.28,4.58,-0.49,895.09,22.69,
4440855,-0.02,-0.08,1.16,-1.1,5.0,-0.55,895.06,22.68,
4440905,-0.01,-0.09,1.15,-1.22,4.94,-0.61,895.12,22.68,
4440944,-0.02,-0.08,1.19,-1.04,5.07,-0.67,895.07,22.68,
4440982,-0.02,-0.09,1.16,-0.79,5.37,-0.55,895.1,22.69,
4441020,-0.04,-0.09,1.14,-0.79,4.94,-0.49,895.12,22.68,
4441058,-0.03,-0.08,1.18,-0.79,5.0,-0.55,895.07,22.69,
4441097,-0.01,-0.09,1.15,-0.73,5.25,-0.55,895.12,22.69,
4441135,-0.03,-0.08,1.17,-0.85,5.37,-0.49,895.1,22.69,
4441173,-0.02,-0.09,1.17,-1.04,5.86,-0.67,895.11,22.69,
4441212,-0.02,-0.08,1.22,-0.92,5.31,-0.61,895.08,22.68,
4441250,-0.03,-0.09,1.24,-0.67,5.43,-0.43,895.14,22.7,
4441300,-0.04,-0.09,1.24,-0.43,5.55,-0.61,895.13,22.69,
4441338,-0.03,-0.09,1.26,-0.18,5.55,-0.43,895.12,22.69,
4441376,-0.03,-0.09,1.21,-0.24,5.74,-0.55,895.16,22.7,
4441415,-0.04,-0.08,1.21,0.0,5.13,-0.49,895.13,22.68,
4441453,-0.04,-0.09,1.19,0.0,5.55,-0.43,895.09,22.69,
4441491,-0.05,-0.09,1.18,0.06,5.0,-0.12,895.11,22.69,
4441529,-0.06,-0.08,1.19,0.12,5.25,-0.06,895.05,22.69,
4441568,-0.03,-0.08,1.21,0.24,5.62,-0.12,895.12,22.69,
4441606,-0.06,-0.09,1.18,0.06,5.0,0.0,895.11,22.69,
4441656,-0.08,-0.09,1.15,0.12,5.0,0.18,895.08,22.68,
4441694,-0.06,-0.08,1.18,0.55,5.62,0.24,895.05,22.67,
4441732,-0.03,-0.09,1.14,0.06,6.53,0.18,895.06,22.69,
4441771,-0.06,-0.08,1.16,0.12,6.29,0.18,895.11,22.69,
4441809,-0.08,-0.09,1.21,0.73,6.9,0.43,895.05,22.69,
4441847,-0.04,-0.09,1.11,0.31,6.1,0.61,895.04,22.68,
4441885,-0.05,-0.07,1.17,0.92,4.03,0.79,895.06,22.68,
4441924,-0.06,-0.1,1.03,0.31,4.46,0.85,895.05,22.68,
4441962,-0.08,-0.08,1.11,0.55,2.81,1.1,895.06,22.7,
4442000,-0.05,-0.09,1.14,0.24,3.11,1.34,894.99,22.68,
4442076,-0.06,-0.09,1.26,0.67,1.95,1.59,895.08,22.66,
4442115,-0.04,-0.1,1.17,0.49,2.5,1.46,895.05,22.66,
4442153,-0.06,-0.08,1.24,1.53,0.98,1.53,895.07,22.68,
4442243,-0.06,-0.08,1.14,1.77,1.1,1.83,895.08,22.64,
4442281,-0.05,-0.1,1.08,1.34,2.14,2.01,895.05,22.66,
4442320,-0.06,-0.09,1.08,1.65,1.04,2.01,895.02,22.67,
4442358,-0.05,-0.08,1.09,1.22,2.99,2.08,895.08,22.67,
4442396,-0.05,-0.09,1.09,1.16,2.99,2.32,895.0,22.66,
4442434,-0.04,-0.08,1.18,1.22,2.5,2.44,895.03,22.68,
4442484,-0.05,-0.09,1.12,1.1,3.23,2.44,895.03,22.66,
4442523,-0.06,-0.08,1.12,1.04,4.15,2.56,895.06,22.68,
4442561,-0.04,-0.09,1.08,1.1,4.46,2.56,895.06,22.67,
4442599,-0.04,-0.09,1.06,1.28,5.0,2.81,895.0,22.67,
4442637,-0.04,-0.09,1.03,1.04,4.94,2.69,895.06,22.68,
4442676,-0.04,-0.09,1.04,1.04,5.43,2.87,895.08,22.67,
4442714,-0.02,-0.08,1.04,1.16,5.49,2.93,895.02,22.68,
4442752,-0.04,-0.08,1.05,1.22,5.62,2.99,895.0,22.67,
4442790,-0.04,-0.09,1.05,1.34,5.49,2.93,895.04,22.68,
4442829,-0.04,-0.08,1.07,1.1,5.25,2.87,895.07,22.67,
4442879,-0.03,-0.09,1.05,1.04,5.25,3.23,895.06,22.67,
4442917,-0.04,-0.09,1.04,1.28,4.82,3.05,895.01,22.68,
4442955,-0.03,-0.08,1.07,1.28,4.52,3.05,895.02,22.67,
4442993,-0.02,-0.09,1.05,1.16,4.64,2.99,895.04,22.67,
4443032,-0.04,-0.09,1.06,1.28,4.21,3.11,895.02,22.69,
4443070,-0.02,-0.09,1.1,1.59,3.3,3.23,895.04,22.69,
4443108,-0.02,-0.09,1.12,1.83,1.89,3.23,895.01,22.68,
4443147,-0.03,-0.1,0.99,1.83,1.71,3.3,895.09,22.7,
4443185,-0.04,-0.09,0.91,2.01,0.98,3.23,895.06,22.69,
4443223,-0.03,-0.1,0.8,2.32,2.14,3.23,895.04,22.69,
4443273,-0.04,-0.08,0.78,2.93,0.0,3.11,895.03,22.68,
4443311,-0.02,-0.1,0.67,2.62,1.04,3.3,894.99,22.69,
4443350,-0.0,-0.08,0.76,1.53,1.04,2.75,895.0,22.68,
4443388,-0.02,-0.09,0.76,2.32,1.77,2.81,894.99,22.71,
4443426,-0.02,-0.1,0.75,0.92,1.4,2.69,894.91,22.69,
4443464,-0.02,-0.09,0.8,1.1,1.89,2.56,894.9,22.69,
