timestamp,acc_x,acc_y,acc_z,rot_x,rot_y,rot_z,qfe,temp
4961524,-0.0,-0.0,1.27,-5.74,3.42,-10.99,884.79,31.27
4961573,-0.0,-0.02,1.24,-5.62,4.03,-11.17,884.7,31.26
4961612,0.0,-0.0,1.29,-5.8,3.66,-11.29,884.72,31.28
4961650,-0.0,-0.0,1.27,-5.98,3.85,-11.23,884.68,31.27
4961688,-0.0,-0.0,1.3,-6.1,3.48,-11.23,884.66,31.27
4961726,0.0,-0.0,1.28,-6.1,3.72,-11.29,884.65,31.28
4961764,-0.02,0.01,1.28,-6.04,3.11,-11.29,884.65,31.29
4961802,-0.02,-0.0,1.26,-6.04,3.97,-11.23,884.62,31.28
4961841,-0.0,0.0,1.28,-5.98,4.03,-11.29,884.63,31.27
4961879,0.02,0.0,1.31,-6.16,3.72,-11.35,884.59,31.27
4961929,-0.01,0.01,1.33,-6.23,3.42,-11.35,884.54,31.27
4961967,0.0,0.01,1.35,-6.23,3.36,-11.35,884.56,31.28
4962005,-0.0,0.02,1.37,-6.41,3.17,-11.29,884.5,31.28
4962043,-0.02,0.02,1.39,-6.41,2.56,-11.05,884.52,31.28
4962081,-0.02,0.03,1.41,-6.23,2.75,-11.11,884.49,31.27
4962119,-0.02,0.02,1.36,-6.41,2.5,-10.99,884.48,31.29
4962157,0.01,0.01,1.37,-6.41,3.05,-11.05,884.55,31.3
4962196,-0.0,-0.0,1.3,-6.41,3.72,-11.23,884.57,31.3
4962234,-0.02,0.01,1.31,-6.41,3.72,-11.17,884.57,31.3
4962272,-0.01,0.0,1.25,-6.41,4.46,-11.17,884.49,31.3
4962349,-0.02,-0.01,1.24,-6.59,4.76,-11.35,884.51,31.26
4962387,-0.02,-0.01,1.27,-6.65,4.03,-11.47,884.43,31.29
4962425,-0.02,-0.01,1.28,-6.41,4.64,-11.47,884.43,31.28
4962515,-0.02,-0.01,1.27,-6.23,4.64,-11.41,884.51,31.24
4962554,-0.03,-0.01,1.25,-6.04,4.58,-11.23,884.49,31.26
4962592,-0.03,-0.0,1.28,-5.8,4.33,-11.47,884.43,31.26
4962630,-0.02,-0.0,1.22,-5.49,4.15,-11.17,884.4,31.25
4962668,-0.03,0.01,1.25,-5.62,3.97,-10.93,884.43,31.27
4962706,-0.02,-0.01,1.23,-5.8,3.78,-10.93,884.36,31.27
4962756,-0.03,-0.01,1.26,-5.98,3.23,-10.44,884.35,31.26
4962794,-0.02,0.0,1.28,-6.04,3.23,-10.31,884.32,31.26
4962832,-0.03,0.01,1.27,-6.16,3.11,-10.31,884.35,31.26
4962870,-0.03,0.01,1.27,-6.35,3.54,-10.07,884.31,31.27
4962909,-0.01,-0.0,1.3,-6.41,2.93,-10.07,884.25,31.26
4962947,-0.03,-0.0,1.29,-6.35,3.17,-9.89,884.3,31.27
4962985,-0.02,0.01,1.29,-6.47,3.3,-9.83,884.27,31.26
4963023,-0.02,0.02,1.32,-6.23,3.17,-9.64,884.25,31.26
4963061,-0.02,0.01,1.28,-6.29,3.72,-9.64,884.22,31.26
4963111,-0.02,0.01,1.3,-6.23,3.36,-9.4,884.2,31.24
4963149,-0.02,0.01,1.28,-6.04,3.54,-9.28,884.21,31.26
4963187,-0.02,0.01,1.31,-5.86,3.85,-9.4,884.23,31.26
4963226,-0.02,0.01,1.3,-5.62,4.21,-9.22,884.23,31.26
4963264,-0.03,0.01,1.32,-5.43,4.58,-9.16,884.21,31.26
4963302,-0.02,-0.0,1.29,-5.13,5.49,-9.16,884.14,31.26
4963340,-0.02,0.01,1.3,-5.13,4.94,-8.91,884.15,31.25
4963378,-0.04,0.0,1.26,-4.94,4.88,-8.97,884.17,31.27
4963416,-0.02,0.01,1.24,-4.88,4.7,-8.79,884.13,31.26
4963466,-0.02,0.0,1.25,-4.76,5.07,-8.61,884.12,31.26
4963504,-0.01,-0.01,1.21,-4.7,5.19,-8.67,884.1,31.25
4963542,-0.01,-0.01,1.22,-4.82,5.55,-8.61,884.12,31.26
4963581,-0.0,-0.01,1.19,-4.7,5.55,-8.85,884.11,31.25
4963619,-0.01,-0.01,1.19,-4.94,5.43,-8.73,884.08,31.26
4963657,-0.02,-0.02,1.16,-4.76,5.8,-8.73,884.07,31.27
4963695,0.0,-0.02,1.15,-5.13,5.31,-8.61,884.03,31.26
4963733,0.0,-0.02,1.13,-5.19,5.13,-8.73,883.99,31.26
4963771,-0.01,-0.01,1.17,-5.43,4.33,-8.79,884.06,31.27
4963810,-0.01,-0.01,1.16,-5.37,4.46,-8.85,884.01,31.27
4963859,-0.02,-0.01,1.2,-5.49,3.85,-8.61,884.0,31.26
4963898,-0.01,-0.02,1.2,-5.49,4.21,-8.54,883.97,31.27
4963936,-0.0,-0.01,1.2,-5.43,4.27,-8.85,883.99,31.27
4963974,-0.02,0.01,1.24,-5.43,4.33,-8.85,883.97,31.27
4964012,-0.01,-0.0,1.2,-5.43,5.31,-8.85,883.98,31.28
4964050,-0.01,0.01,1.23,-5.13,5.19,-8.54,883.97,31.27
4964088,-0.01,-0.0,1.2,-5.13,4.88,-8.73,883.89,31.27
4964127,-0.02,0.0,1.19,-5.25,3.66,-8.3,883.96,31.29
4964165,-0.01,0.02,1.26,-4.82,3.91,-8.48,883.9,31.29
4964215,-0.03,0.0,1.19,-4.88,4.27,-8.36,883.88,31.28
4964253,-0.01,0.01,1.28,-4.7,2.99,-8.24,883.9,31.29
4964291,-0.01,-0.01,1.18,-4.58,4.33,-8.3,883.81,31.28
4964329,-0.02,0.01,1.21,-4.7,3.72,-8.24,883.88,31.29
4964367,-0.0,0.0,1.23,-4.27,4.88,-8.24,883.85,31.29
4964406,-0.01,-0.01,1.17,-4.27,4.27,-8.3,883.85,31.28
4964444,-0.02,-0.0,1.17,-4.27,3.72,-8.18,883.85,31.29
4964482,-0.0,-0.01,1.14,-3.97,4.15,-7.93,883.82,31.28
4964520,-0.0,-0.0,1.15,-4.09,3.48,-8.06,883.86,31.3
4964558,-0.02,0.0,1.15,-3.85,3.66,-8.06,883.79,31.29
4964608,-0.01,-0.01,1.15,-3.85,4.46,-7.93,883.86,31.29
4964646,-0.01,-0.01,1.14,-4.03,4.7,-8.18,883.79,31.28
4964684,-0.03,-0.01,1.13,-4.58,5.07,-8.0,883.72,31.28
4964723,-0.02,-0.01,1.15,-4.64,5.74,-7.81,883.76,31.28
4964761,-0.01,-0.01,1.13,-4.94,6.23,-8.0,883.77,31.28
4964799,-0.01,-0.01,1.15,-5.19,6.04,-8.12,883.75,31.28
4964837,-0.02,-0.01,1.12,-5.31,5.92,-7.81,883.68,31.29
4964875,-0.01,-0.01,1.14,-5.74,6.53,-7.75,883.76,31.29
4964913,-0.0,0.01,1.19,-5.92,6.59,-7.93,883.67,31.28
4964963,-0.01,0.0,1.18,-6.04,6.59,-7.75,883.66,31.28
4965001,-0.02,0.0,1.21,-6.1,7.08,-7.87,883.66,31.29
4965039,-0.01,-0.0,1.2,-6.04,7.39,-7.75,883.64,31.29
4965078,0.0,0.01,1.22,-5.98,7.2,-7.63,883.64,31.29
4965116,-0.02,0.01,1.19,-6.04,7.51,-7.81,883.7,31.31
4965154,-0.01,0.01,1.18,-6.04,7.32,-7.57,883.66,31.28
4965192,0.0,0.0,1.2,-5.92,7.32,-7.63,883.62,31.29
4965230,-0.01,0.0,1.19,-5.86,6.59,-7.69,883.6,31.29
4965268,-0.01,0.01,1.2,-5.74,6.35,-7.63,883.59,31.29
4965344,-0.0,0.01,1.21,-5.74,5.43,-7.32,883.59,31.27
4965382,-0.0,0.01,1.22,-5.68,4.82,-7.32,883.56,31.27
4965420,-0.01,0.01,1.18,-5.68,4.52,-7.26,883.62,31.27
4965510,0.0,0.0,1.22,-5.55,4.03,-7.2,883.5,31.24
4965548,-0.0,0.01,1.25,-5.43,3.91,-7.39,883.52,31.25
4965586,-0.01,0.01,1.23,-5.43,4.52,-7.39,883.55,31.26
4965624,-0.0,0.02,1.26,-5.43,4.46,-7.69,883.52,31.26
4965663,0.0,0.02,1.28,-5.37,4.64,-7.51,883.52,31.25
4965701,-0.0,0.02,1.29,-5.49,3.85,-7.57,883.36,31.24
4965739,-0.01,0.01,1.28,-5.55,3.85,-7.39,883.45,31.25
4965789,0.01,0.02,1.24,-5.37,3.23,-7.51,883.42,31.25
4965827,0.01,0.02,1.26,-5.19,2.62,-7.63,883.45,31.25
4965865,-0.02,0.01,1.2,-5.07,1.77,-7.51,883.35,31.25
4965903,-0.02,-0.0,1.22,-4.82,1.53,-7.39,883.38,31.26
4965941,0.01,-0.0,1.21,-5.13,1.46,-7.57,883.39,31.26
4965979,-0.0,0.01,1.23,-5.07,0.67,-7.69,883.4,31.27
4966017,-0.01,0.0,1.21,-5.19,1.46,-7.63,883.41,31.27
4966056,0.0,0.0,1.23,-5.31,1.59,-7.87,883.39,31.26
4966094,-0.01,0.01,1.23,-5.13,1.65,-7.87,883.45,31.28
4966144,-0.01,0.0,1.22,-5.31,1.89,-7.93,883.36,31.26
4966182,-0.0,0.01,1.23,-5.37,2.2,-8.24,883.45,31.26
4966220,-0.0,0.02,1.24,-5.68,2.38,-8.18,883.45,31.27
4966258,0.0,-0.0,1.21,-5.68,2.62,-8.18,883.4,31.27
4966296,0.0,0.0,1.21,-5.86,2.2,-8.42,883.38,31.28
4966334,-0.01,0.01,1.2,-5.74,2.5,-8.18,883.4,31.27
4966372,-0.0,0.0,1.17,-5.86,2.26,-8.24,883.39,31.27
4966410,-0.0,0.0,1.19,-5.8,2.26,-8.3,883.42,31.28
4966449,-0.0,-0.01,1.13,-5.55,2.26,-8.42,883.39,31.28
4966487,-0.0,-0.01,1.13,-5.62,2.14,-8.61,883.36,31.27
4966536,0.01,-0.02,1.09,-5.55,2.81,-8.79,883.36,31.27
4966575,0.0,-0.0,1.12,-5.43,2.62,-8.97,883.39,31.28
4966613,-0.02,-0.01,1.09,-5.13,3.85,-9.09,883.37,31.27
4966651,-0.0,-0.01,1.15,-5.19,4.46,-9.34,883.27,31.27
4966689,0.0,-0.01,1.15,-5.07,5.0,-9.7,883.37,31.28
4966727,-0.02,0.01,1.19,-5.43,5.31,-9.7,883.29,31.28
4966765,-0.01,0.02,1.22,-5.55,6.35,-9.89,883.31,31.29
4966803,-0.0,0.02,1.26,-5.68,7.57,-10.31,883.3,31.29
4966842,-0.02,0.03,1.28,-5.68,8.06,-10.31,883.36,31.3
4966891,-0.01,0.04,1.3,-5.62,8.12,-10.25,883.21,31.28
4966930,-0.03,0.06,1.34,-5.55,9.22,-10.56,883.24,31.28
4966968,-0.01,0.06,1.37,-5.49,9.28,-10.25,883.22,31.27
4967006,-0.01,0.06,1.42,-5.19,9.09,-10.13,883.28,31.29
4967044,-0.02,0.05,1.4,-4.94,8.73,-10.07,883.16,31.28
4967082,-0.02,0.07,1.44,-4.64,8.24,-9.83,883.18,31.29
4967120,-0.01,0.06,1.39,-4.27,7.69,-9.4,883.15,31.28
4967158,-0.02,0.06,1.37,-4.39,6.23,-9.22,883.2,31.29
4967196,-0.02,0.04,1.33,-4.03,6.1,-8.85,883.23,31.28
4967235,-0.02,0.04,1.31,-3.97,4.88,-8.54,883.2,31.29
4967284,-0.02,0.03,1.29,-3.85,3.6,-8.42,883.24,31.28
4967322,-0.03,0.01,1.26,-3.6,2.81,-8.36,883.17,31.29
4967361,-0.02,0.01,1.24,-3.54,2.99,-8.42,883.23,31.29
4967399,-0.0,0.01,1.23,-3.66,2.62,-8.3,883.23,31.29
4967437,-0.02,0.01,1.21,-4.09,2.5,-8.24,883.18,31.29
4967475,-0.02,0.0,1.18,-4.09,2.81,-8.48,883.22,31.3
4967513,-0.02,0.0,1.21,-4.33,2.62,-8.42,883.22,31.29
4967552,-0.01,-0.01,1.2,-4.21,3.05,-8.67,883.2,31.28
4967590,-0.02,-0.0,1.22,-4.58,2.5,-8.61,883.2,31.29
4967640,-0.02,0.0,1.19,-4.88,3.11,-8.61,883.25,31.29
4967678,-0.02,0.0,1.19,-5.13,2.56,-8.79,883.23,31.29
4967716,-0.02,-0.0,1.17,-5.62,2.56,-8.79,883.19,31.31
4967754,-0.03,-0.0,1.15,-5.68,2.08,-8.73,883.23,31.31
4967792,-0.03,0.01,1.21,-5.98,2.08,-8.79,883.18,31.3
4967830,-0.03,0.0,1.19,-6.04,2.32,-8.61,883.18,31.32
4967868,-0.04,0.0,1.19,-6.41,1.71,-8.61,883.21,31.31
4967906,-0.04,0.0,1.2,-6.47,1.83,-8.91,883.18,31.32
4967945,-0.04,0.0,1.17,-6.77,2.14,-8.54,883.16,31.29
4967983,-0.04,0.0,1.21,-6.71,1.34,-8.36,883.22,31.32
4968033,-0.04,-0.0,1.18,-6.84,0.98,-8.36,883.15,31.29
4968071,-0.05,0.01,1.19,-6.71,1.04,-8.18,883.17,31.3
4968109,-0.03,0.0,1.2,-6.65,1.34,-8.12,883.15,31.29
4968147,-0.04,-0.01,1.21,-6.53,1.53,-8.3,883.21,31.3
4968185,-0.04,-0.0,1.2,-6.53,0.98,-8.18,883.16,31.3
4968223,-0.04,-0.0,1.21,-6.59,1.34,-8.18,883.19,31.31
4968262,-0.03,-0.01,1.21,-6.53,1.83,-8.18,883.11,31.29
4968300,-0.03,-0.0,1.22,-6.47,2.2,-8.12,883.2,31.31
4968338,-0.03,0.01,1.23,-6.35,2.32,-8.24,883.12,31.32
4968414,-0.04,0.01,1.28,-6.59,3.91,-8.48,883.17,31.28
4968452,-0.04,-0.0,1.32,-6.41,4.21,-8.42,883.2,31.28
4968490,-0.04,-0.0,1.29,-6.35,4.09,-8.67,883.1,31.29
4968579,-0.04,0.01,1.24,-6.29,4.33,-8.42,883.12,31.25
4968617,-0.04,0.01,1.25,-6.29,4.27,-8.48,883.15,31.28
4968656,-0.03,0.01,1.25,-6.29,4.76,-8.36,883.17,31.27
4968694,-0.03,0.0,1.26,-6.1,4.82,-8.36,883.13,31.28
4968732,-0.04,0.01,1.27,-6.23,4.7,-8.3,883.13,31.28
4968770,-0.03,-0.0,1.29,-5.92,5.13,-8.42,883.17,31.28
4968820,-0.03,0.0,1.26,-5.74,4.88,-8.42,883.18,31.28
4968858,-0.04,0.0,1.25,-5.68,5.62,-8.24,883.16,31.28
4968896,-0.03,0.0,1.23,-5.55,5.55,-8.3,883.16,31.28
4968934,-0.03,0.01,1.24,-5.49,5.55,-8.24,883.14,31.3
4968973,-0.02,0.0,1.23,-5.68,5.43,-8.12,883.1,31.29
4969011,-0.04,0.01,1.28,-5.55,5.07,-8.12,883.12,31.31
4969049,-0.03,0.0,1.27,-5.68,5.43,-7.93,883.05,31.3
4969087,-0.03,0.01,1.27,-5.98,5.37,-7.87,883.17,31.31
4969125,-0.03,0.01,1.27,-5.86,5.43,-8.12,883.15,31.31
4969163,-0.02,-0.0,1.29,-5.92,5.19,-7.87,883.11,31.29
4969213,-0.04,0.0,1.26,-5.86,5.49,-7.57,883.17,31.3
4969251,-0.05,0.01,1.27,-5.74,5.37,-7.39,883.12,31.3
4969289,-0.02,0.01,1.3,-5.62,5.55,-7.63,883.11,31.29
4969328,-0.01,-0.0,1.28,-5.68,5.55,-7.51,883.15,31.3
4969366,-0.03,-0.01,1.3,-5.8,5.98,-7.45,883.08,31.3
4969404,-0.03,-0.01,1.28,-5.62,6.29,-7.63,883.15,31.32
4969442,-0.01,-0.0,1.34,-5.86,5.8,-7.69,883.15,31.31
4969480,-0.01,0.0,1.34,-6.1,6.16,-7.69,883.13,31.3
4969518,-0.02,-0.0,1.32,-5.86,7.14,-7.63,883.13,31.3
4969568,-0.02,0.0,1.4,-5.68,6.71,-7.75,883.09,31.27
4969606,-0.02,-0.01,1.36,-5.86,6.65,-7.63,883.12,31.29
4969644,-0.02,0.03,1.4,-5.92,4.33,-7.32,883.23,31.31
4969682,-0.03,0.01,1.38,-5.92,4.94,-7.32,883.11,31.31
4969721,-0.03,0.0,1.38,-6.23,4.21,-7.14,883.15,31.3
4969759,-0.01,0.01,1.44,-6.1,4.33,-7.08,883.11,31.31
4969797,-0.02,0.01,1.41,-6.29,3.42,-6.84,883.08,31.31
4969835,-0.03,0.03,1.42,-6.41,3.91,-7.2,883.12,31.3
4969873,-0.01,0.01,1.4,-6.23,3.85,-7.26,882.99,31.3
4969911,0.0,-0.01,1.42,-6.23,2.32,-7.2,883.13,31.31
4969961,-0.03,-0.0,1.38,-5.92,2.5,-7.26,883.09,31.3
4969999,-0.03,0.01,1.38,-5.92,2.75,-7.26,883.08,31.3
4970037,-0.0,0.01,1.4,-5.98,2.75,-7.32,883.04,31.3
4970075,-0.04,0.01,1.42,-6.1,1.89,-7.32,883.05,31.3
4970113,-0.04,0.0,1.41,-6.04,2.69,-7.45,883.13,31.31
4970152,-0.0,-0.01,1.39,-6.16,3.42,-7.75,883.08,31.31
4970190,-0.01,0.01,1.37,-6.29,3.17,-7.87,883.03,31.3
4970228,-0.03,-0.0,1.37,-6.23,3.91,-7.57,883.11,31.3
4970266,-0.02,-0.01,1.35,-6.1,4.52,-7.75,883.11,31.31
4970316,-0.03,-0.01,1.32,-5.74,5.25,-7.87,883.06,31.29
4970354,-0.02,-0.02,1.27,-5.92,5.62,-8.12,883.08,31.32
4970392,-0.03,0.0,1.32,-5.98,4.64,-7.93,883.09,31.3
4970430,-0.01,-0.02,1.26,-5.98,6.35,-8.06,883.01,31.29
4970468,-0.03,-0.01,1.29,-5.98,5.92,-7.81,882.98,31.3
4970507,-0.03,-0.01,1.33,-6.1,6.96,-8.0,883.02,31.29
4970545,-0.05,-0.01,1.32,-5.92,6.16,-7.75,882.95,31.29
4970583,-0.05,-0.0,1.36,-6.16,7.51,-7.69,882.97,31.29
4970621,-0.03,-0.01,1.36,-6.23,8.24,-7.69,883.0,31.3
4970671,-0.03,-0.0,1.41,-6.16,8.73,-7.57,882.95,31.29
4970709,-0.03,0.0,1.4,-5.92,9.46,-7.57,882.96,31.29
4970747,-0.03,0.01,1.43,-6.04,10.07,-7.51,882.93,31.29
4970785,-0.04,0.01,1.43,-6.1,9.58,-7.26,882.9,31.29
4970823,-0.04,0.01,1.44,-5.92,9.34,-7.26,882.89,31.28
4970862,-0.02,0.01,1.43,-6.1,9.34,-6.96,882.91,31.29
4970900,-0.02,0.02,1.45,-5.86,8.42,-6.71,882.9,31.3
4970938,-0.03,0.01,1.43,-5.74,7.75,-6.47,882.95,31.29
4970976,-0.03,0.01,1.4,-5.8,7.45,-6.16,882.91,31.29
4971014,-0.04,0.01,1.41,-5.62,7.14,-6.16,882.9,31.3
4971064,-0.03,-0.0,1.35,-5.62,6.29,-5.86,882.94,31.29
4971102,-0.03,-0.0,1.33,-5.92,6.16,-5.86,882.89,31.29
4971140,-0.03,0.01,1.35,-5.74,6.16,-5.55,882.84,31.3
4971178,-0.02,0.01,1.34,-5.92,6.16,-5.49,882.87,31.29
4971216,-0.02,0.0,1.36,-6.04,5.37,-5.43,882.79,31.3
4971255,-0.04,-0.0,1.34,-5.68,5.55,-5.31,882.9,31.3
4971293,-0.03,-0.01,1.34,-5.92,5.0,-5.25,882.86,31.31
4971331,-0.01,0.0,1.32,-5.68,5.07,-5.37,882.85,31.31
4971369,-0.03,0.0,1.29,-5.68,4.76,-5.19,882.88,31.31
4971445,-0.01,-0.02,1.25,-5.55,5.19,-4.94,882.83,31.28
4971483,-0.03,-0.01,1.24,-5.62,3.17,-4.94,882.9,31.3
4971521,-0.02,-0.01,1.21,-5.8,3.66,-4.82,882.79,31.29
4971611,-0.02,-0.01,1.27,-5.8,3.54,-4.58,882.72,31.27
4971649,-0.01,-0.01,1.3,-6.23,2.38,-4.52,882.74,31.29
4971687,-0.02,-0.01,1.34,-6.1,2.75,-4.64,882.73,31.27
4971725,-0.01,-0.0,1.27,-6.35,2.62,-4.64,882.79,31.29
4971763,-0.02,0.01,1.37,-6.23,2.14,-4.64,882.79,31.3
4971801,0.0,-0.01,1.29,-5.92,3.17,-4.82,882.77,31.29
4971839,-0.02,-0.0,1.31,-5.68,2.93,-4.7,882.74,31.3
4971889,0.0,-0.01,1.28,-5.19,3.54,-5.0,882.7,31.28
4971927,-0.01,-0.01,1.28,-5.07,2.81,-5.19,882.75,31.3
4971966,-0.01,-0.02,1.27,-4.7,3.72,-5.13,882.78,31.29
4972004,0.01,-0.03,1.24,-4.64,3.72,-5.25,882.68,31.29
4972042,-0.01,-0.03,1.22,-4.52,4.27,-5.25,882.7,31.29
4972080,0.0,-0.02,1.16,-4.76,4.15,-5.37,882.73,31.29
4972118,-0.01,-0.02,1.19,-4.82,4.7,-5.55,882.67,31.3
4972156,0.0,-0.03,1.15,-4.88,4.94,-5.62,882.67,31.3
4972194,-0.01,-0.02,1.18,-5.19,4.15,-5.68,882.71,31.31
4972244,-0.0,-0.03,1.13,-5.19,4.76,-5.74,882.68,31.3
4972282,0.01,-0.02,1.17,-5.49,4.39,-5.86,882.62,31.29
4972320,0.0,-0.02,1.17,-5.49,4.82,-5.86,882.66,31.3
4972359,-0.01,-0.02,1.17,-5.49,4.94,-5.92,882.66,31.29
4972397,0.0,-0.03,1.18,-5.43,5.62,-6.04,882.65,31.29
4972435,0.0,-0.03,1.19,-5.62,5.0,-6.04,882.57,31.29
4972473,-0.01,-0.03,1.19,-5.49,5.43,-6.16,882.65,31.3
4972511,0.0,-0.03,1.15,-5.55,5.13,-6.35,882.65,31.29
4972549,0.01,-0.02,1.23,-5.55,5.0,-6.29,882.63,31.3
4972599,-0.0,-0.02,1.21,-5.43,4.76,-6.41,882.51,31.28
4972637,0.0,-0.01,1.26,-5.43,4.64,-6.41,882.56,31.29
4972675,0.01,-0.02,1.24,-5.37,5.31,-6.47,882.58,31.29
4972714,0.0,-0.02,1.27,-5.49,4.27,-6.71,882.53,31.29
4972752,0.0,-0.02,1.28,-5.13,4.46,-6.65,882.55,31.29
4972790,0.0,-0.01,1.27,-5.37,4.46,-6.65,882.57,31.3
4972828,0.01,-0.02,1.27,-5.25,4.7,-6.84,882.6,31.29
4972866,-0.0,-0.01,1.26,-5.19,4.09,-6.84,882.51,31.29
4972904,0.0,-0.02,1.28,-5.37,4.21,-6.96,882.53,31.3
4972943,0.01,-0.02,1.25,-5.31,4.58,-7.2,882.48,31.3
4972993,-0.0,-0.01,1.31,-5.13,4.33,-7.2,882.47,31.27
4973031,-0.01,-0.02,1.25,-5.0,4.88,-7.26,882.51,31.29
4973069,-0.01,-0.01,1.3,-5.31,4.52,-7.26,882.47,31.29
4973107,-0.01,-0.02,1.28,-5.37,6.23,-7.32,882.48,31.3
4973145,-0.01,-0.02,1.27,-5.31,5.86,-7.57,882.41,31.3
4973183,0.0,-0.01,1.3,-5.0,6.77,-7.69,882.48,31.3
4973221,-0.01,-0.03,1.23,-5.07,6.47,-7.57,882.53,31.3
4973260,-0.01,-0.02,1.26,-5.31,6.16,-7.63,882.51,31.31
4973298,0.0,-0.03,1.19,-5.19,5.8,-7.51,882.45,31.31
4973348,-0.0,-0.02,1.21,-5.19,5.37,-7.32,882.51,31.3
4973386,0.0,-0.06,1.18,-5.37,4.46,-7.57,882.43,31.29
4973424,0.0,-0.03,1.22,-5.55,4.03,-7.51,882.4,31.3
4973462,-0.0,-0.04,1.19,-5.62,4.39,-7.63,882.42,31.31
4973500,0.0,-0.04,1.22,-5.92,4.21,-7.81,882.38,31.3
4973538,-0.01,-0.03,1.25,-6.23,4.09,-7.81,882.45,31.3
4973576,0.0,-0.02,1.26,-6.47,3.85,-7.75,882.41,31.3
4973615,0.01,-0.01,1.31,-6.53,4.27,-7.87,882.4,31.3
4973653,0.01,-0.02,1.33,-6.59,4.46,-8.12,882.39,31.31
4973691,0.0,-0.01,1.39,-6.59,4.09,-8.06,882.35,31.3
4973741,-0.0,-0.01,1.4,-6.47,4.21,-8.3,882.32,31.3
4973779,-0.01,-0.0,1.41,-6.35,4.21,-8.3,882.33,31.31
4973817,-0.01,-0.0,1.39,-6.47,3.97,-8.12,882.32,31.3
4973855,-0.0,-0.01,1.38,-6.59,3.48,-8.12,882.34,31.3
4973893,0.0,0.01,1.4,-6.41,3.54,-8.48,882.39,31.31
4973931,0.01,0.01,1.41,-6.29,3.48,-8.48,882.31,31.3
4973969,-0.0,0.01,1.46,-6.29,4.27,-8.48,882.32,31.31
4974008,-0.0,0.01,1.49,-6.1,4.88,-8.67,882.24,31.31
4974046,-0.01,0.0,1.5,-5.98,5.25,-8.73,882.23,31.31
4974096,-0.01,0.01,1.48,-6.1,5.25,-8.67,882.32,31.3
4974134,0.0,0.01,1.46,-5.86,5.37,-8.85,882.3,31.31
4974172,-0.0,0.01,1.4,-5.8,5.62,-8.91,882.28,31.32
4974210,-0.01,0.01,1.37,-5.62,5.07,-8.61,882.3,31.33
4974248,0.0,-0.02,1.35,-5.55,5.07,-8.48,882.3,31.31
4974286,-0.02,-0.02,1.35,-5.31,4.64,-8.54,882.33,31.32
4974324,-0.01,-0.02,1.35,-5.13,4.21,-8.54,882.3,31.32
4974363,-0.01,-0.02,1.33,-5.07,4.21,-8.54,882.21,31.32
4974401,-0.01,-0.02,1.33,-5.25,4.33,-8.73,882.26,31.32
4974439,-0.0,-0.02,1.31,-5.49,4.82,-8.79,882.25,31.32
4974515,-0.02,-0.02,1.31,-5.98,4.15,-8.48,882.28,31.31
4974553,-0.01,-0.03,1.3,-6.35,4.03,-8.61,882.21,31.3
4974591,-0.02,-0.01,1.32,-6.35,4.15,-8.48,882.25,31.3
4974680,-0.02,-0.02,1.35,-6.29,3.66,-8.42,882.19,31.26
4974719,-0.01,-0.02,1.33,-6.47,3.85,-8.24,882.22,31.28
4974757,-0.02,-0.02,1.38,-6.41,3.54,-8.18,882.22,31.28
4974795,-0.02,-0.03,1.32,-6.35,3.3,-8.3,882.15,31.28
4974833,-0.01,-0.02,1.37,-6.53,2.81,-8.36,882.14,31.29
4974871,-0.02,-0.03,1.33,-6.84,3.42,-8.3,882.17,31.29
4974921,-0.03,0.0,1.38,-6.65,2.32,-8.18,882.16,31.28
4974959,-0.02,-0.02,1.35,-6.71,2.75,-8.24,882.11,31.3
4974997,0.0,-0.02,1.42,-6.96,1.89,-8.3,882.12,31.3
4975035,-0.02,-0.02,1.4,-7.02,1.83,-8.24,882.1,31.29
4975074,-0.02,-0.01,1.4,-7.08,1.1,-8.06,882.18,31.3
4975112,-0.01,-0.02,1.37,-7.02,2.56,-8.18,882.18,31.3
4975150,-0.0,-0.02,1.35,-7.45,1.65,-8.12,882.14,31.31
4975188,-0.02,-0.02,1.34,-7.2,1.16,-8.18,882.06,31.29
4975226,-0.01,-0.03,1.32,-7.26,1.53,-8.48,882.11,31.31
4975276,-0.02,-0.02,1.35,-7.26,2.44,-8.36,882.12,31.3
4975314,-0.02,-0.03,1.33,-7.39,2.44,-8.3,882.12,31.3
4975352,-0.02,-0.02,1.34,-7.32,3.05,-8.73,882.07,31.31
4975390,-0.01,-0.02,1.33,-7.2,4.21,-8.61,882.07,31.3
4975429,-0.01,-0.01,1.33,-7.39,3.97,-8.91,882.13,31.31
4975467,-0.01,-0.02,1.34,-7.02,4.21,-8.85,882.07,31.3
4975505,-0.01,-0.03,1.32,-6.9,4.03,-9.03,882.08,31.3
4975543,-0.0,-0.02,1.33,-7.2,4.39,-9.03,882.04,31.3
4975581,-0.01,-0.02,1.31,-7.39,4.39,-9.16,882.01,31.29
4975619,-0.02,-0.01,1.33,-7.32,4.15,-9.22,882.04,31.3
4975669,-0.01,-0.03,1.28,-7.63,4.09,-8.91,882.04,31.3
4975707,-0.02,-0.02,1.28,-7.69,4.09,-9.16,882.03,31.29
4975745,-0.03,-0.02,1.25,-7.75,4.46,-9.34,881.94,31.28
4975783,-0.03,-0.02,1.25,-7.87,4.7,-9.22,882.04,31.3
4975822,-0.01,-0.02,1.29,-7.63,5.07,-9.46,881.92,31.29
4975860,-0.03,-0.02,1.27,-7.93,5.13,-9.58,881.91,31.29
4975898,-0.02,-0.01,1.3,-7.75,4.76,-9.46,881.93,31.29
4975936,-0.03,-0.01,1.31,-7.81,4.58,-9.52,881.94,31.3
4975974,-0.03,0.0,1.35,-7.57,4.09,-9.34,881.95,31.29
4976024,-0.04,0.0,1.36,-6.96,3.66,-9.16,881.91,31.29
4976062,-0.02,-0.01,1.4,-6.77,4.21,-9.22,881.85,31.28
4976100,-0.01,0.01,1.39,-6.9,4.33,-9.22,881.9,31.29
4976138,-0.03,0.02,1.47,-6.77,4.03,-8.97,881.9,31.29
4976177,-0.04,-0.02,1.42,-6.71,4.82,-8.97,881.84,31.29
4976215,-0.02,0.01,1.49,-6.41,4.58,-9.4,881.83,31.3
4976253,-0.01,-0.01,1.41,-6.04,6.16,-9.22,881.84,31.3
4976291,-0.03,-0.0,1.37,-6.16,5.68,-9.16,881.88,31.31
4976329,-0.04,0.02,1.43,-5.68,6.04,-9.28,881.8,31.3
4976379,-0.02,-0.01,1.35,-5.62,6.71,-9.52,881.8,31.29
4976417,-0.03,-0.01,1.39,-5.43,6.9,-9.52,881.8,31.29
4976455,-0.02,-0.02,1.33,-5.37,7.45,-9.46,881.82,31.3
4976494,-0.03,-0.01,1.32,-5.37,7.69,-9.34,881.83,31.3
4976532,-0.01,-0.01,1.28,-5.31,7.93,-9.4,881.83,31.29
4976570,-0.0,-0.01,1.31,-5.25,5.92,-9.28,881.77,31.31
4976608,-0.03,-0.01,1.28,-5.55,5.55,-9.16,881.82,31.3
4976646,-0.02,0.0,1.35,-5.98,5.0,-8.97,881.74,31.29
4976684,-0.02,-0.0,1.43,-6.29,5.07,-9.03,881.71,31.3
4976722,-0.01,-0.01,1.45,-6.41,3.54,-8.91,881.73,31.3
4976772,-0.04,-0.02,1.34,-6.71,2.26,-8.48,881.81,31.28
4976810,-0.02,-0.02,1.29,-6.65,0.98,-8.54,881.78,31.29
4976849,-0.03,-0.04,1.21,-6.59,-0.49,-8.54,881.77,31.3
4976887,-0.03,-0.03,1.21,-6.53,-1.4,-8.42,881.71,31.3
4976925,-0.04,-0.03,1.18,-6.1,-1.22,-8.54,881.73,31.3
4976963,-0.03,-0.04,1.18,-6.23,-0.98,-8.91,881.64,31.29
4977001,-0.02,-0.04,1.23,-6.53,-0.79,-9.03,881.65,31.3
4977039,-0.02,-0.03,1.29,-6.77,-0.43,-8.85,881.67,31.31
4977078,-0.06,-0.05,1.29,-6.35,-0.12,-9.03,881.65,31.31
4977127,-0.04,-0.02,1.32,-6.77,0.18,-9.28,881.65,31.3
4977165,-0.04,-0.03,1.35,-6.47,0.98,-9.34,881.65,31.3
4977204,-0.02,-0.04,1.32,-6.59,2.01,-9.34,881.68,31.3
4977242,-0.04,-0.02,1.34,-6.59,3.11,-9.64,881.69,31.3
4977280,-0.04,-0.02,1.34,-6.47,3.78,-9.4,881.62,31.3
4977318,-0.04,-0.02,1.3,-6.77,4.21,-9.46,881.59,31.31
4977356,-0.04,-0.01,1.37,-7.02,4.82,-9.7,881.57,31.3
4977394,-0.04,-0.02,1.38,-7.26,5.37,-9.52,881.53,31.3
4977433,-0.03,-0.02,1.39,-7.32,4.76,-9.77,881.6,31.31
4977508,-0.04,-0.02,1.38,-7.39,4.21,-9.09,881.59,31.27
4977547,-0.03,-0.02,1.36,-7.51,4.21,-9.09,881.51,31.28
4977585,-0.03,-0.01,1.36,-7.2,3.11,-9.22,881.57,31.29
4977674,-0.03,-0.02,1.38,-6.84,2.93,-8.85,881.51,31.26
4977712,-0.04,-0.01,1.44,-6.53,2.14,-8.79,881.49,31.27
4977750,-0.05,-0.02,1.42,-6.29,1.89,-8.54,881.49,31.27
4977788,-0.06,-0.01,1.43,-6.1,2.26,-8.61,881.48,31.27
4977827,-0.05,-0.0,1.42,-6.23,2.81,-8.67,881.46,31.27
4977865,-0.05,-0.01,1.43,-6.23,2.69,-8.3,881.43,31.29
4977915,-0.05,-0.01,1.39,-6.29,2.87,-8.48,881.48,31.29
4977953,-0.05,-0.0,1.44,-6.23,3.17,-8.42,881.42,31.27
4977991,-0.04,-0.02,1.41,-5.8,4.09,-8.3,881.36,31.26
4978029,-0.02,-0.0,1.41,-5.74,3.85,-8.24,881.42,31.27
4978067,-0.04,-0.0,1.44,-5.49,3.54,-8.12,881.36,31.28
4978105,-0.05,-0.02,1.42,-5.37,4.58,-8.18,881.35,31.27
4978143,-0.02,-0.01,1.45,-5.13,3.66,-8.54,881.44,31.28
4978182,-0.03,-0.02,1.4,-4.64,4.15,-8.3,881.39,31.28
4978220,-0.04,-0.03,1.33,-4.7,4.03,-8.06,881.4,31.28
4978258,-0.03,-0.02,1.32,-4.27,3.3,-8.0,881.38,31.29
4978308,-0.01,-0.03,1.27,-4.46,2.81,-8.0,881.35,31.27
4978346,-0.02,-0.03,1.31,-4.82,1.83,-7.93,881.38,31.28
4978384,-0.03,-0.03,1.26,-5.0,1.89,-8.0,881.34,31.28
4978422,-0.05,-0.03,1.28,-5.07,0.85,-7.87,881.32,31.28
4978460,-0.03,-0.03,1.31,-5.19,1.59,-7.93,881.33,31.29
4978499,-0.04,-0.05,1.27,-5.25,1.59,-7.93,881.3,31.28
4978537,-0.05,-0.03,1.3,-5.13,1.71,-7.87,881.3,31.28
4978575,-0.03,-0.05,1.24,-5.31,2.26,-7.93,881.29,31.29
4978613,-0.03,-0.03,1.26,-5.37,2.26,-8.0,881.3,31.3
4978663,-0.03,-0.05,1.22,-5.55,2.81,-8.0,881.3,31.27
4978701,-0.05,-0.03,1.29,-5.8,2.75,-7.93,881.26,31.3
4978739,-0.04,-0.04,1.29,-5.86,3.17,-7.81,881.26,31.29
4978777,-0.04,-0.02,1.31,-6.04,3.42,-8.0,881.23,31.3
4978815,-0.03,-0.03,1.32,-6.35,3.6,-7.75,881.22,31.29
4978854,-0.02,-0.03,1.36,-6.71,2.75,-7.93,881.21,31.29
4978892,-0.03,-0.03,1.36,-6.71,3.36,-7.87,881.25,31.3
4978930,-0.05,-0.01,1.35,-6.65,3.54,-7.87,881.24,31.3
4978968,-0.03,-0.02,1.37,-6.41,3.91,-7.81,881.22,31.29
4979018,-0.04,-0.02,1.37,-6.35,4.03,-8.0,881.23,31.29
4979056,-0.03,-0.02,1.35,-6.23,4.94,-7.93,881.23,31.29
4979094,-0.05,-0.02,1.37,-6.1,4.46,-7.87,881.24,31.3
4979132,-0.04,-0.02,1.37,-5.98,5.8,-7.75,881.18,31.31
4979170,-0.04,-0.02,1.42,-5.74,5.43,-7.63,881.21,31.29
4979208,-0.05,-0.02,1.44,-5.68,6.53,-7.51,881.11,31.29
4979247,-0.04,-0.02,1.39,-5.37,7.69,-7.39,881.14,31.29
4979285,-0.03,-0.01,1.42,-5.43,7.39,-7.39,881.1,31.29
4979323,-0.03,-0.02,1.37,-5.25,8.3,-7.14,881.11,31.3
4979361,-0.02,-0.03,1.34,-5.13,9.16,-7.08,881.14,31.28
4979411,-0.03,-0.04,1.31,-4.64,9.09,-7.14,881.1,31.28
4979449,-0.04,-0.05,1.25,-4.82,10.38,-7.08,881.09,31.29
4979487,-0.01,-0.04,1.26,-4.88,11.05,-6.96,881.09,31.28
4979525,-0.0,-0.05,1.2,-4.94,9.83,-7.02,881.06,31.29
4979564,-0.01,-0.05,1.14,-5.19,8.85,-6.65,881.14,31.29
4979602,-0.01,-0.06,1.06,-5.62,8.06,-6.65,881.1,31.3
4979640,0.0,-0.07,1.04,-5.37,7.57,-6.84,881.02,31.29
4979678,-0.02,-0.07,0.95,-5.8,5.92,-6.71,881.01,31.29
4979716,-0.0,-0.06,0.99,-5.98,5.25,-6.41,881.03,31.3
4979766,-0.0,-0.07,1.0,-6.04,4.39,-6.53,880.94,31.27
4979804,-0.0,-0.06,1.06,-6.29,4.21,-6.65,880.92,31.29
4979842,0.0,-0.07,1.08,-6.59,3.54,-6.65,880.91,31.29
4979880,-0.0,-0.05,1.15,-6.96,3.3,-6.84,880.94,31.29
4979919,0.02,-0.05,1.19,-6.9,3.05,-7.02,880.89,31.3
4979957,0.0,-0.03,1.24,-7.26,3.17,-7.14,880.91,31.29
4979995,-0.0,-0.03,1.26,-7.26,3.11,-7.02,880.87,31.29
4980033,-0.0,-0.03,1.31,-7.51,4.03,-7.26,880.89,31.3
4980071,0.0,-0.03,1.35,-7.14,4.21,-7.63,880.86,31.3
4980121,-0.01,-0.02,1.36,-6.9,4.76,-7.81,880.88,31.28
4980159,-0.0,-0.03,1.39,-6.65,6.41,-7.93,880.86,31.29
4980197,0.0,-0.02,1.4,-6.59,5.8,-8.06,880.91,31.3
4980235,-0.01,-0.02,1.42,-6.47,5.62,-8.12,880.86,31.3
4980274,-0.01,-0.02,1.38,-6.41,6.1,-8.24,880.86,31.29
4980312,0.0,-0.0,1.41,-6.29,6.23,-8.3,880.79,31.3
4980350,-0.01,-0.02,1.39,-6.16,6.16,-8.06,880.78,31.31
4980388,-0.01,-0.02,1.4,-6.04,5.55,-8.24,880.77,31.3
4980426,-0.02,-0.02,1.39,-5.74,5.49,-8.42,880.8,31.3
4980465,-0.0,-0.01,1.38,-5.49,5.07,-8.18,880.81,31.3
4980615,0.01,-0.03,1.32,-5.25,4.21,-8.24,880.74,31.24
4980653,-0.02,-0.03,1.28,-5.37,3.3,-8.18,880.71,31.26
4980691,-0.02,-0.03,1.26,-5.37,3.23,-8.36,880.84,31.28
4980780,-0.0,-0.03,1.24,-5.55,1.77,-7.93,880.65,31.22
4980819,-0.02,-0.04,1.21,-5.49,2.32,-8.24,880.62,31.26
4980857,-0.01,-0.04,1.21,-5.74,1.65,-8.0,880.65,31.27
4980895,-0.01,-0.04,1.22,-5.68,1.22,-8.12,880.66,31.27
4980933,-0.02,-0.05,1.22,-5.92,1.46,-8.18,880.59,31.26
4980971,-0.01,-0.05,1.23,-5.86,1.83,-8.18,880.68,31.28
4981021,0.0,-0.05,1.21,-5.86,1.4,-8.48,880.57,31.28
4981059,-0.01,-0.06,1.14,-5.86,1.71,-8.42,880.63,31.27
4981098,-0.02,-0.06,1.12,-5.55,2.14,-8.54,880.53,31.28
4981136,-0.01,-0.06,1.09,-5.74,2.5,-8.67,880.58,31.27
4981174,0.0,-0.05,1.08,-5.8,2.08,-8.79,880.58,31.3
4981212,-0.01,-0.04,1.09,-6.1,3.17,-8.91,880.55,31.28
4981250,-0.01,-0.06,1.11,-6.04,2.81,-9.16,880.54,31.27
4981288,0.0,-0.06,1.15,-6.53,2.81,-9.28,880.51,31.28
4981327,-0.03,-0.05,1.18,-6.47,3.3,-8.91,880.5,31.29
4981377,-0.01,-0.04,1.21,-6.84,4.46,-9.52,880.58,31.27
4981415,-0.01,-0.03,1.24,-6.96,4.58,-9.58,880.51,31.27
4981453,-0.02,-0.03,1.33,-6.84,4.09,-9.52,880.49,31.29
4981491,-0.01,-0.03,1.33,-7.02,4.94,-9.58,880.48,31.29
4981529,-0.02,0.0,1.44,-6.9,3.66,-9.64,880.44,31.3
4981567,-0.01,0.0,1.5,-6.77,3.66,-9.52,880.46,31.28
4981605,-0.03,-0.0,1.49,-7.02,3.54,-9.4,880.48,31.29
4981644,-0.04,0.01,1.5,-6.71,3.91,-9.34,880.39,31.29
4981682,-0.02,-0.01,1.46,-6.41,4.33,-9.22,880.47,31.3
4981720,-0.01,-0.0,1.45,-6.04,3.66,-9.22,880.47,31.29
4981770,-0.04,-0.03,1.36,-5.31,3.17,-9.22,880.5,31.29
4981808,-0.02,-0.03,1.32,-5.31,4.09,-9.34,880.47,31.29
4981846,-0.03,-0.0,1.35,-4.64,4.46,-9.4,880.41,31.29
4981884,-0.02,-0.03,1.27,-4.7,7.08,-9.46,880.4,31.28
4981922,-0.04,-0.04,1.29,-4.82,6.9,-9.64,880.44,31.29
4981961,-0.03,-0.05,1.25,-4.64,7.75,-9.58,880.4,31.28
4981999,-0.04,-0.04,1.23,-4.7,7.2,-9.4,880.4,31.3
4982037,-0.03,-0.0,1.26,-5.0,6.23,-8.97,880.37,31.3
4982075,-0.02,-0.02,1.26,-4.7,5.43,-8.91,880.3,31.3
4982125,-0.05,-0.04,1.28,-5.31,4.03,-8.3,880.35,31.29
4982163,-0.04,-0.04,1.29,-5.55,2.62,-7.93,880.34,31.28
4982201,-0.03,-0.03,1.27,-5.55,3.36,-8.06,880.38,31.29
4982239,-0.04,-0.02,1.24,-5.31,3.23,-7.93,880.32,31.29
4982277,-0.04,-0.04,1.22,-5.07,4.27,-7.81,880.31,31.3
4982316,-0.03,-0.05,1.19,-5.13,4.27,-7.87,880.33,31.29
4982354,-0.04,-0.04,1.21,-5.37,3.78,-8.0,880.28,31.28
4982392,-0.04,-0.03,1.22,-5.37,4.64,-7.81,880.26,31.29
4982430,-0.03,-0.03,1.27,-5.55,5.07,-8.0,880.31,31.29
4982480,-0.04,-0.04,1.27,-5.62,5.13,-7.93,880.18,31.28
4982518,-0.04,-0.04,1.28,-5.8,4.7,-7.93,880.27,31.3
4982556,-0.03,-0.04,1.28,-5.8,5.43,-7.93,880.24,31.29
4982595,-0.02,-0.02,1.28,-5.98,5.98,-8.0,880.22,31.29
4982633,-0.03,-0.03,1.3,-6.04,5.68,-8.0,880.15,31.29
4982671,-0.04,-0.04,1.3,-5.92,5.98,-7.93,880.15,31.3
4982709,-0.03,-0.03,1.34,-6.1,5.68,-8.06,880.15,31.3
4982747,-0.03,-0.01,1.37,-6.16,5.43,-7.87,880.16,31.3
4982785,-0.04,-0.01,1.35,-5.92,4.82,-7.57,880.11,31.3
4982824,-0.05,-0.02,1.4,-5.68,4.82,-7.45,880.07,31.3
4982873,-0.04,-0.02,1.38,-5.68,4.39,-7.32,880.12,31.3
4982912,-0.04,-0.01,1.38,-5.62,4.15,-7.32,880.12,31.3
4982950,-0.05,-0.01,1.36,-5.49,4.03,-7.2,880.15,31.3
4982988,-0.04,-0.01,1.36,-5.49,3.72,-7.14,880.11,31.32
4983026,-0.03,-0.03,1.37,-5.31,3.48,-6.96,880.04,31.3
4983064,-0.06,-0.03,1.31,-5.43,3.23,-7.08,880.06,31.29
4983102,-0.05,-0.01,1.34,-5.49,3.72,-7.02,880.02,31.3
4983141,-0.02,-0.01,1.33,-5.62,3.48,-6.96,880.06,31.28
4983179,-0.04,-0.02,1.36,-5.68,2.38,-6.84,880.01,31.27
4983229,-0.05,-0.03,1.32,-5.31,2.81,-6.53,879.98,31.26
4983267,-0.05,-0.03,1.32,-5.31,3.11,-6.41,880.02,31.28
4983305,-0.03,-0.02,1.29,-5.19,2.93,-6.41,880.03,31.29
4983343,-0.03,-0.02,1.32,-5.25,2.5,-6.47,880.0,31.29
4983381,-0.03,-0.03,1.27,-5.19,3.05,-6.47,879.96,31.28
4983419,-0.03,-0.03,1.29,-5.25,2.62,-6.35,879.98,31.28
4983458,-0.03,-0.03,1.28,-5.07,2.62,-6.23,879.94,31.28
4983496,-0.04,-0.03,1.27,-5.13,1.83,-6.23,879.96,31.28
4983534,-0.02,-0.02,1.29,-4.94,2.08,-6.1,879.93,31.28
4983610,-0.03,-0.03,1.28,-5.07,1.46,-6.1,879.88,31.26
4983648,-0.01,-0.03,1.26,-5.0,2.38,-6.29,879.97,31.27
4983686,-0.02,-0.02,1.27,-4.94,2.5,-6.35,879.89,31.27
4983776,-0.03,-0.02,1.26,-4.76,3.05,-6.41,879.92,31.26
4983814,-0.03,-0.03,1.27,-4.58,3.05,-6.53,879.88,31.26
4983852,-0.02,-0.04,1.24,-4.76,3.23,-6.47,879.89,31.25
4983890,-0.03,-0.03,1.26,-4.94,3.23,-6.59,879.89,31.27
4983928,-0.03,-0.04,1.24,-4.7,4.21,-6.71,879.77,31.26
4983966,-0.02,-0.04,1.26,-4.76,3.66,-6.77,879.85,31.28
4984005,-0.04,-0.03,1.26,-4.58,3.66,-6.9,879.8,31.27
4984055,-0.04,-0.04,1.22,-4.76,4.09,-6.53,879.79,31.26
4984093,-0.03,-0.03,1.25,-4.76,3.66,-6.53,879.82,31.27
4984131,-0.03,-0.04,1.22,-4.94,3.6,-6.77,879.77,31.27
4984169,-0.04,-0.03,1.21,-5.13,2.93,-6.47,879.77,31.28
4984207,-0.02,-0.03,1.19,-5.0,2.81,-6.35,879.76,31.28
4984246,-0.03,-0.04,1.18,-5.37,2.44,-6.53,879.73,31.28
4984284,-0.04,-0.04,1.2,-5.19,1.65,-6.16,879.73,31.29
4984322,-0.02,-0.04,1.18,-5.31,1.46,-6.29,879.72,31.29
4984360,-0.03,-0.03,1.19,-5.43,1.34,-6.35,879.7,31.28
4984410,-0.03,-0.03,1.18,-5.68,1.34,-6.16,879.72,31.28
4984448,-0.04,-0.03,1.19,-5.74,0.61,-6.16,879.73,31.28
4984486,-0.02,-0.04,1.21,-5.92,0.61,-5.98,879.69,31.28
4984524,-0.03,-0.04,1.23,-5.92,-0.31,-6.04,879.64,31.29
4984563,-0.04,-0.02,1.23,-5.86,-0.43,-5.98,879.69,31.29
4984601,-0.02,-0.02,1.23,-5.92,-0.12,-5.98,879.63,31.29
4984639,-0.02,-0.02,1.28,-5.74,-0.43,-6.04,879.66,31.29
4984677,-0.03,-0.03,1.28,-5.62,-0.24,-5.92,879.61,31.28
4984715,-0.04,-0.02,1.31,-5.55,0.49,-6.04,879.68,31.3
4984765,-0.04,-0.01,1.28,-5.25,2.01,-6.23,879.66,31.27
4984803,-0.02,-0.02,1.29,-5.37,3.36,-6.29,879.68,31.29
4984841,-0.04,-0.04,1.27,-4.94,4.7,-6.53,879.66,31.29
4984880,-0.03,-0.02,1.29,-4.58,5.68,-6.65,879.7,31.29
4984918,-0.02,-0.03,1.28,-4.09,6.84,-6.65,879.65,31.3
4984956,-0.02,-0.04,1.23,-4.03,6.59,-6.35,879.63,31.29
4984994,-0.04,-0.04,1.18,-3.91,6.77,-6.59,879.68,31.29
4985032,-0.03,-0.05,1.11,-3.91,7.63,-6.47,879.66,31.29
4985070,-0.02,-0.04,1.09,-3.85,7.45,-6.47,879.6,31.29
4985120,-0.01,-0.05,1.05,-3.97,7.51,-6.41,879.57,31.29
4985158,-0.02,-0.05,1.07,-4.21,8.24,-6.41,879.6,31.3
4985197,-0.01,-0.05,1.1,-4.58,8.12,-6.41,879.55,31.3
4985235,-0.0,-0.04,1.17,-4.76,7.32,-6.35,879.54,31.31
4985273,-0.0,-0.04,1.14,-5.19,7.39,-6.29,879.51,31.3
4985311,-0.01,-0.03,1.16,-5.8,7.02,-5.98,879.54,31.3
4985349,0.01,-0.04,1.18,-6.04,6.29,-6.41,879.58,31.32
4985387,-0.03,-0.05,1.21,-6.29,4.88,-6.41,879.52,31.32
4985425,-0.01,-0.03,1.24,-6.35,3.72,-6.16,879.51,31.31
4985464,-0.0,-0.03,1.26,-6.23,3.91,-6.35,879.51,31.3
4985513,-0.01,-0.03,1.23,-6.16,3.66,-6.29,879.45,31.29
4985552,-0.01,-0.02,1.27,-6.1,2.93,-6.59,879.42,31.3
4985590,-0.01,-0.03,1.26,-6.04,3.11,-6.59,879.43,31.29
4985628,0.01,-0.02,1.28,-6.1,3.05,-6.47,879.43,31.29
4985666,-0.02,-0.02,1.27,-5.62,3.3,-6.65,879.4,31.3
4985704,-0.01,-0.01,1.28,-5.92,2.99,-6.47,879.41,31.3
4985742,0.0,-0.01,1.32,-5.68,3.72,-6.59,879.4,31.3
4985781,0.0,-0.01,1.33,-5.62,3.6,-6.71,879.38,31.3
4985819,-0.01,-0.0,1.34,-5.62,4.03,-6.71,879.43,31.29
4985868,0.0,-0.0,1.35,-5.37,4.7,-6.71,879.35,31.3
4985907,0.0,-0.0,1.37,-5.43,4.15,-6.35,879.32,31.29
4985945,0.01,-0.01,1.36,-5.31,4.58,-6.53,879.31,31.31
4985983,-0.0,0.0,1.39,-5.37,4.27,-6.53,879.28,31.3
4986021,0.01,0.0,1.37,-5.43,4.39,-6.53,879.32,31.29
4986059,0.0,-0.0,1.36,-5.43,4.58,-6.59,879.29,31.3
4986098,0.01,-0.01,1.37,-5.37,4.52,-6.77,879.26,31.3
4986136,0.01,-0.01,1.33,-5.13,5.55,-6.84,879.25,31.28
4986174,0.01,-0.01,1.32,-4.76,5.55,-6.9,879.23,31.29
4986212,0.01,-0.0,1.32,-4.39,5.25,-7.08,879.19,31.29
4986262,0.01,-0.01,1.31,-4.15,5.62,-7.02,879.18,31.27
4986300,-0.0,-0.01,1.33,-3.85,5.13,-6.96,879.22,31.29
4986338,-0.0,-0.0,1.33,-3.91,5.62,-7.2,879.15,31.27
4986376,0.0,0.0,1.36,-3.72,5.19,-7.14,879.19,31.29
4986415,0.01,-0.01,1.32,-3.97,6.04,-7.14,879.24,31.28
4986453,0.01,-0.01,1.32,-4.09,6.41,-7.2,879.14,31.27
4986491,0.01,-0.02,1.35,-4.03,7.14,-7.45,879.16,31.28
4986529,0.0,-0.01,1.32,-4.03,8.0,-7.51,879.13,31.29
4986567,-0.01,0.01,1.35,-4.03,7.81,-7.69,879.11,31.29
4986643,0.01,-0.02,1.32,-4.03,9.95,-7.75,879.1,31.26
4986682,0.01,-0.03,1.27,-3.85,10.74,-7.81,879.13,31.28
4986720,0.01,-0.03,1.2,-3.85,10.13,-7.87,879.07,31.27
4986809,0.03,-0.05,1.09,-4.52,8.97,-7.93,879.05,31.25
4986847,0.01,-0.04,1.09,-4.76,7.69,-8.12,879.03,31.26
4986886,0.02,-0.05,1.03,-4.82,8.0,-8.12,879.01,31.26
4986924,0.03,-0.05,1.03,-5.62,5.13,-8.06,878.98,31.26
4986962,0.02,-0.04,1.03,-5.62,5.25,-8.18,878.93,31.27
4987000,0.02,-0.06,1.02,-5.98,4.27,-8.3,878.9,31.27
4987050,0.02,-0.05,1.01,-6.59,3.66,-8.48,878.92,31.25
4987088,0.02,-0.03,1.1,-6.84,2.81,-8.42,878.84,31.27
4987126,0.01,-0.05,1.06,-7.14,3.42,-8.61,878.86,31.27
4987165,-0.0,-0.04,1.13,-7.2,2.32,-8.73,878.97,31.28
4987203,0.01,-0.04,1.19,-7.14,2.32,-9.09,878.91,31.28
4987241,0.03,-0.04,1.18,-7.39,2.44,-9.03,878.87,31.28
4987279,0.01,-0.02,1.25,-7.51,1.65,-9.22,878.9,31.29
4987317,-0.0,-0.03,1.22,-7.32,1.77,-9.28,878.92,31.28
4987355,0.02,-0.03,1.23,-7.45,1.71,-9.4,878.91,31.29
4987394,0.01,-0.02,1.31,-7.32,1.16,-9.52,878.87,31.28
4987444,-0.0,-0.04,1.26,-7.32,1.46,-9.83,878.91,31.27
4987482,-0.0,-0.02,1.32,-7.08,2.08,-9.95,878.91,31.28
4987520,0.02,-0.02,1.32,-6.77,2.62,-10.25,878.88,31.28
4987558,-0.01,-0.02,1.3,-6.71,2.69,-10.25,878.93,31.28
4987596,-0.0,-0.03,1.29,-6.35,3.66,-10.62,878.9,31.28
4987635,0.02,-0.02,1.28,-6.35,4.15,-10.62,878.88,31.29
4987673,0.0,-0.02,1.3,-6.16,4.46,-10.86,878.82,31.27
4987711,0.01,-0.02,1.33,-6.04,4.03,-10.99,878.85,31.29
4987749,-0.01,-0.03,1.28,-6.23,5.13,-11.23,878.81,31.28
4987799,0.0,-0.0,1.36,-6.35,4.82,-11.23,878.8,31.26
4987837,0.01,-0.01,1.35,-6.53,5.62,-11.41,878.75,31.27
4987876,-0.01,-0.01,1.35,-6.9,5.25,-11.35,878.75,31.28
4987914,-0.01,0.0,1.37,-6.84,5.92,-11.41,878.74,31.28
4987952,-0.02,0.0,1.38,-7.08,5.43,-11.54,878.71,31.28
4987990,-0.01,0.01,1.4,-7.2,5.43,-11.35,878.74,31.28
4988028,-0.01,-0.0,1.41,-7.2,4.39,-11.05,878.72,31.27
4988066,-0.02,-0.01,1.36,-7.08,4.15,-11.17,878.77,31.29
4988104,-0.02,-0.01,1.34,-7.14,3.78,-11.05,878.71,31.29
4988154,-0.01,-0.0,1.32,-6.96,3.6,-10.68,878.7,31.27
4988192,-0.03,0.0,1.34,-6.65,2.99,-10.62,878.72,31.27
4988231,-0.04,-0.01,1.34,-6.29,3.36,-10.62,878.73,31.29
4988269,-0.02,-0.0,1.36,-6.29,3.48,-10.62,878.71,31.27
4988307,-0.04,0.0,1.4,-5.98,3.91,-10.56,878.68,31.28
4988345,-0.03,-0.02,1.33,-6.1,5.49,-10.31,878.73,31.27
4988383,-0.05,-0.0,1.32,-6.1,4.94,-10.25,878.69,31.28
4988421,-0.05,0.01,1.34,-5.98,5.49,-10.13,878.73,31.28
4988460,-0.05,-0.01,1.28,-5.98,5.68,-9.89,878.73,31.29
4988498,-0.04,0.01,1.31,-6.1,4.88,-9.64,878.7,31.29
4988547,-0.04,-0.01,1.32,-5.92,6.35,-9.28,878.7,31.27
4988586,-0.05,-0.01,1.34,-5.92,6.04,-9.28,878.68,31.29
4988624,-0.04,-0.01,1.39,-5.62,7.02,-9.34,878.68,31.29
4988662,-0.05,-0.01,1.38,-5.74,7.45,-9.22,878.7,31.28
4988700,-0.05,0.01,1.37,-5.8,8.85,-9.09,878.61,31.29
4988738,-0.04,0.02,1.38,-5.92,9.46,-9.09,878.56,31.29
4988776,-0.05,0.02,1.39,-5.92,10.19,-8.97,878.54,31.29
4988814,-0.06,0.01,1.37,-6.1,10.07,-8.42,878.53,31.3
4988853,-0.05,0.02,1.42,-6.1,9.77,-8.18,878.56,31.3
4988902,-0.06,0.01,1.39,-6.1,9.16,-7.75,878.48,31.28
4988941,-0.05,0.02,1.38,-6.29,7.69,-7.2,878.5,31.29
4988979,-0.06,-0.0,1.36,-6.1,8.06,-7.08,878.48,31.29
4989017,-0.05,-0.01,1.33,-6.04,6.59,-6.47,878.49,31.28
4989055,-0.04,-0.01,1.3,-5.8,6.59,-6.53,878.53,31.29
4989093,-0.04,-0.01,1.23,-5.55,5.86,-6.35,878.51,31.3
4989131,-0.04,-0.0,1.24,-5.62,5.74,-6.04,878.46,31.29
4989170,-0.04,-0.03,1.23,-5.49,5.37,-6.04,878.41,31.28
4989208,-0.06,-0.03,1.2,-5.68,4.94,-5.8,878.43,31.29
4989258,-0.05,-0.02,1.24,-5.98,4.21,-5.43,878.42,31.28
4989296,-0.05,-0.02,1.25,-6.29,3.17,-5.37,878.48,31.29
4989334,-0.06,-0.02,1.25,-6.53,3.3,-5.49,878.42,31.29
4989372,-0.03,-0.02,1.26,-6.53,3.78,-5.37,878.5,31.29
4989410,-0.03,-0.01,1.25,-6.47,3.85,-5.25,878.47,31.3
4989448,-0.04,-0.0,1.23,-6.53,4.21,-5.31,878.48,31.29
4989487,-0.03,-0.01,1.26,-6.53,4.76,-5.25,878.42,31.29
4989525,-0.02,-0.03,1.23,-6.47,5.49,-5.31,878.4,31.29
4989563,-0.02,-0.02,1.24,-6.59,5.62,-5.37,878.42,31.29
4989601,-0.03,-0.01,1.23,-6.41,5.8,-5.37,878.38,31.29
4989677,-0.02,-0.01,1.24,-6.1,5.98,-5.25,878.39,31.27
4989715,-0.02,-0.02,1.21,-5.86,5.25,-5.25,878.37,31.27
4989753,-0.02,-0.02,1.22,-5.62,4.39,-5.19,878.43,31.29
4989843,-0.02,-0.01,1.15,-5.13,3.6,-4.94,878.4,31.23
4989881,-0.0,-0.05,1.09,-4.88,3.66,-5.0,878.41,31.26
4989919,-0.01,-0.05,1.08,-4.76,3.05,-5.19,878.36,31.26
4989957,-0.02,-0.04,1.04,-4.7,3.42,-5.25,878.4,31.26
4989995,0.0,-0.03,1.06,-4.52,2.26,-4.94,878.39,31.26
4990033,-0.0,-0.04,1.03,-4.88,2.44,-5.19,878.38,31.27
4990083,-0.02,-0.04,1.05,-5.07,1.46,-5.19,878.36,31.26
4990121,-0.02,-0.05,1.05,-5.0,1.89,-5.13,878.34,31.26
4990160,0.0,-0.03,1.05,-5.37,1.28,-5.55,878.33,31.26
4990198,-0.0,-0.02,1.1,-5.31,1.4,-5.37,878.32,31.26
4990236,-0.0,-0.05,1.05,-5.43,1.53,-5.43,878.33,31.27
4990274,-0.0,-0.04,1.12,-5.8,0.73,-5.43,878.29,31.27
4990312,-0.01,-0.03,1.12,-5.49,1.22,-5.62,878.27,31.27
4990350,-0.02,-0.02,1.19,-5.62,0.61,-5.55,878.29,31.27
4990388,0.01,-0.01,1.22,-5.8,1.59,-5.86,878.24,31.26
4990438,-0.0,-0.01,1.3,-5.25,2.5,-6.1,878.3,31.26
4990477,0.0,-0.02,1.32,-5.19,2.75,-6.16,878.24,31.26
4990515,0.0,-0.01,1.31,-5.13,3.66,-6.35,878.25,31.27
4990553,-0.01,0.01,1.31,-4.7,3.97,-6.53,878.22,31.27
4990591,0.0,-0.01,1.28,-4.7,4.39,-6.59,878.29,31.27
4990629,-0.01,-0.02,1.25,-4.7,4.52,-6.96,878.27,31.27
4990667,-0.0,-0.01,1.27,-4.64,4.52,-6.9,878.26,31.29
4990705,0.01,-0.02,1.26,-4.46,4.03,-7.08,878.27,31.29
4990744,-0.0,-0.01,1.24,-4.82,4.88,-6.96,878.29,31.28
4990782,0.01,-0.02,1.25,-4.82,5.19,-7.02,878.28,31.28
4990832,-0.01,-0.02,1.26,-4.7,5.07,-7.2,878.23,31.26
4990870,0.01,-0.01,1.27,-4.82,5.31,-7.39,878.27,31.28
4990908,0.01,0.0,1.32,-5.13,5.25,-7.51,878.21,31.26
4990946,-0.0,-0.01,1.3,-5.25,4.7,-7.57,878.24,31.27
4990984,-0.0,-0.01,1.38,-5.31,3.78,-7.45,878.23,31.28
4991022,-0.0,-0.01,1.35,-5.43,4.03,-7.51,878.24,31.27
4991060,-0.02,0.01,1.39,-5.68,2.87,-7.32,878.19,31.26
4991099,-0.0,0.01,1.37,-5.55,2.62,-7.2,878.15,31.27
4991137,0.01,0.01,1.38,-5.68,2.56,-7.32,878.14,31.26
4991186,0.01,-0.02,1.34,-6.1,2.01,-7.51,878.17,31.25
4991225,-0.01,0.0,1.4,-5.92,1.65,-7.63,878.2,31.27
4991263,-0.02,-0.01,1.38,-5.62,2.93,-7.57,878.17,31.27
4991301,0.0,-0.01,1.37,-5.37,2.2,-7.63,878.24,31.27
4991339,-0.01,0.0,1.36,-5.25,1.77,-7.81,878.25,31.28
4991377,-0.03,-0.02,1.31,-5.31,2.44,-7.63,878.25,31.27
4991416,-0.01,-0.02,1.32,-5.55,2.5,-7.75,878.18,31.28
4991454,-0.0,0.01,1.36,-5.43,2.2,-7.45,878.19,31.26
4991492,-0.02,-0.0,1.32,-5.62,2.5,-7.57,878.18,31.26
4991530,-0.02,-0.03,1.32,-5.74,3.17,-7.57,878.22,31.26
4991580,-0.0,-0.02,1.32,-5.74,3.85,-7.75,878.15,31.25
4991618,-0.01,-0.01,1.31,-5.62,4.15,-7.81,878.23,31.26
4991656,-0.02,-0.01,1.29,-5.49,3.78,-7.75,878.26,31.27
4991695,-0.02,-0.03,1.27,-5.43,4.76,-7.81,878.16,31.26
4991733,-0.0,-0.04,1.26,-5.55,5.07,-7.87,878.22,31.27
4991771,-0.01,-0.02,1.28,-5.55,5.07,-7.93,878.21,31.26
4991809,-0.01,-0.02,1.25,-5.74,4.76,-8.0,878.18,31.26
4991847,-0.01,-0.02,1.28,-5.86,4.82,-8.12,878.25,31.27
4991886,-0.01,-0.03,1.27,-5.92,5.25,-8.06,878.19,31.27
4991935,-0.02,-0.02,1.3,-6.1,5.13,-8.12,878.14,31.25
4991974,-0.01,-0.02,1.29,-6.23,5.8,-8.18,878.14,31.28
4992012,-0.01,-0.01,1.32,-6.35,5.43,-8.06,878.12,31.27
4992050,-0.01,-0.02,1.31,-6.47,5.8,-8.18,878.15,31.27
4992088,-0.02,-0.02,1.31,-6.53,6.1,-8.18,878.13,31.26
4992126,-0.01,-0.02,1.29,-6.53,6.35,-8.12,878.21,31.27
4992164,-0.02,-0.01,1.3,-6.59,5.68,-8.12,878.19,31.28
4992202,-0.01,-0.02,1.3,-6.41,5.92,-8.18,878.14,31.28
4992240,-0.01,-0.02,1.28,-6.35,5.25,-8.18,878.16,31.28
4992290,-0.02,-0.02,1.27,-6.16,5.62,-8.06,878.13,31.26
4992328,-0.01,-0.01,1.26,-6.29,5.13,-7.93,878.09,31.26
4992367,-0.01,-0.02,1.29,-6.23,5.0,-8.06,878.05,31.28
4992405,-0.02,-0.03,1.25,-6.35,5.13,-8.18,878.19,31.29
4992443,-0.01,-0.02,1.31,-6.35,4.15,-8.06,878.15,31.28
4992481,-0.01,-0.02,1.29,-6.23,4.58,-8.12,878.08,31.28
4992519,-0.01,-0.02,1.27,-6.29,3.91,-8.0,878.13,31.28
4992557,-0.01,-0.01,1.29,-6.23,4.03,-8.18,878.08,31.28
4992596,-0.01,-0.02,1.26,-6.35,3.97,-8.24,878.06,31.28
4992634,-0.02,-0.02,1.3,-6.29,4.27,-8.3,878.04,31.29
4992710,-0.01,-0.01,1.33,-6.29,4.52,-8.18,878.07,31.25
4992748,-0.01,-0.01,1.32,-6.53,4.46,-8.36,878.03,31.27
4992786,-0.02,-0.0,1.35,-6.41,5.31,-8.67,878.07,31.27
4992875,-0.02,-0.0,1.34,-6.47,5.62,-8.67,878.12,31.24
4992914,-0.0,-0.01,1.3,-6.23,6.53,-8.73,878.1,31.26
4992952,0.0,-0.01,1.27,-6.41,6.59,-8.67,878.09,31.28
4992990,-0.0,-0.01,1.29,-6.47,5.98,-8.54,878.04,31.27
4993028,0.0,-0.02,1.27,-6.47,5.68,-8.54,878.06,31.27
4993066,-0.01,-0.02,1.26,-6.59,4.64,-8.48,878.01,31.28
4993116,-0.0,-0.02,1.22,-6.9,4.58,-8.36,877.98,31.28
4993154,-0.0,-0.03,1.24,-7.14,3.3,-8.54,878.01,31.27
4993193,-0.0,-0.03,1.23,-7.2,2.93,-8.73,878.03,31.28
4993231,0.0,-0.03,1.22,-7.57,3.36,-8.79,878.03,31.29
4993269,0.0,-0.02,1.27,-7.45,3.11,-8.85,878.0,31.29
4993307,0.01,-0.02,1.25,-8.0,3.54,-8.97,877.98,31.29
4993345,0.01,-0.0,1.3,-7.81,2.87,-9.03,877.94,31.29
4993383,-0.0,-0.01,1.32,-7.87,2.75,-9.28,877.98,31.29
4993421,-0.01,-0.03,1.35,-7.87,2.62,-9.28,877.99,31.29
4993471,0.0,-0.0,1.35,-8.06,1.65,-9.58,877.97,31.29
4993509,-0.03,-0.01,1.3,-7.63,2.44,-9.34,878.01,31.3
4993548,0.0,-0.03,1.27,-7.32,1.77,-9.28,877.98,31.3
4993586,-0.02,-0.01,1.29,-7.2,1.4,-9.52,878.01,31.3
4993624,-0.03,-0.02,1.27,-7.08,1.28,-9.4,878.01,31.29
4993662,-0.01,-0.03,1.29,-7.08,1.59,-9.52,877.99,31.29
4993700,-0.01,-0.02,1.25,-7.32,1.77,-9.7,878.02,31.3
4993738,-0.01,-0.01,1.3,-6.9,1.59,-9.58,877.96,31.3
4993777,-0.02,-0.03,1.23,-7.02,2.14,-9.58,878.02,31.29
4993815,-0.02,-0.02,1.28,-7.14,2.08,-9.7,877.96,31.29
4993865,-0.02,-0.03,1.21,-7.2,2.87,-9.77,878.03,31.28
4993903,-0.01,-0.02,1.24,-7.08,1.83,-9.58,877.98,31.28
4993941,-0.01,-0.01,1.22,-7.02,2.26,-9.7,877.92,31.28
4993979,-0.02,-0.02,1.27,-7.26,1.77,-9.77,877.96,31.27
4994017,-0.02,-0.03,1.29,-7.26,1.89,-9.58,877.92,31.27
4994056,-0.02,-0.03,1.3,-7.45,1.46,-9.52,877.97,31.27
4994094,-0.02,-0.02,1.29,-7.51,2.01,-9.7,878.0,31.28
4994132,-0.01,-0.01,1.28,-7.63,1.83,-9.58,877.95,31.27
4994170,-0.03,-0.02,1.28,-7.51,1.83,-9.7,877.99,31.27
4994220,-0.02,-0.02,1.27,-7.51,2.44,-9.77,878.0,31.26
4994258,-0.02,-0.01,1.25,-7.45,2.38,-9.83,878.04,31.27
4994296,-0.04,-0.01,1.28,-7.26,2.44,-9.89,878.03,31.28
4994335,-0.03,-0.01,1.3,-7.2,2.81,-9.89,878.0,31.26
4994373,-0.02,-0.02,1.31,-7.14,3.05,-9.89,877.96,31.26
4994411,-0.04,-0.02,1.29,-7.32,2.44,-9.58,877.94,31.27
4994449,-0.04,-0.02,1.32,-7.2,2.75,-9.58,877.97,31.27
4994487,-0.04,-0.0,1.3,-7.08,3.11,-9.52,877.94,31.27
4994525,-0.04,0.0,1.35,-6.9,3.17,-9.22,878.0,31.26
4994575,-0.05,-0.01,1.34,-6.84,4.27,-9.03,877.99,31.27
4994613,-0.05,0.0,1.38,-6.59,4.27,-8.91,877.97,31.26
4994652,-0.04,0.0,1.41,-6.53,3.85,-8.67,877.91,31.26
4994690,-0.03,0.0,1.38,-6.77,4.88,-8.48,877.96,31.26
4994728,-0.04,0.01,1.41,-6.53,5.13,-8.61,878.02,31.27
4994766,-0.03,-0.02,1.36,-6.23,5.62,-8.36,877.95,31.27
4994804,-0.04,0.01,1.37,-6.23,4.52,-8.0,877.98,31.27
4994843,-0.03,0.01,1.37,-5.86,5.31,-7.87,878.01,31.27
4994881,-0.03,-0.0,1.35,-5.92,5.43,-7.75,877.97,31.27
4994919,-0.03,-0.0,1.37,-5.8,5.92,-7.32,877.93,31.26
4994969,-0.02,0.0,1.36,-5.55,5.74,-7.32,877.96,31.26
4995007,-0.04,-0.0,1.37,-5.55,7.02,-7.14,877.9,31.26
4995045,0.0,0.01,1.43,-5.49,6.96,-7.14,877.91,31.27
4995083,-0.03,0.0,1.41,-5.43,7.2,-6.96,877.8,31.26
4995121,-0.03,0.01,1.44,-5.62,7.81,-6.84,877.91,31.27
4995160,-0.01,0.02,1.43,-5.62,8.73,-6.96,877.96,31.27
4995198,-0.0,0.02,1.47,-5.43,8.24,-6.77,877.93,31.27
4995236,-0.01,-0.01,1.43,-5.13,8.73,-6.47,877.94,31.27
4995274,-0.01,-0.0,1.41,-5.31,8.3,-6.53,877.88,31.27
4995324,0.0,0.0,1.39,-5.07,8.0,-6.65,877.9,31.26
4995362,0.0,0.0,1.39,-5.07,7.39,-6.41,877.9,31.27
4995400,0.0,-0.01,1.41,-5.0,7.32,-6.53,877.88,31.26
4995438,-0.0,-0.03,1.37,-4.88,6.65,-6.41,877.87,31.26
4995476,-0.0,-0.01,1.38,-5.19,6.29,-6.35,877.89,31.28
4995515,0.0,-0.01,1.36,-5.13,5.92,-6.41,877.95,31.28
4995553,-0.02,-0.01,1.33,-5.43,5.43,-6.35,877.84,31.26
4995591,-0.0,-0.02,1.33,-5.49,5.74,-6.47,877.93,31.27
4995629,0.01,-0.03,1.34,-5.49,5.31,-6.53,877.86,31.27
4995667,-0.01,-0.02,1.32,-5.74,4.58,-6.65,877.85,31.27
4995743,-0.01,-0.02,1.32,-6.1,5.13,-6.65,877.84,31.24
4995781,-0.03,-0.03,1.36,-6.04,4.33,-6.59,877.79,31.25
4995819,-0.01,-0.04,1.31,-6.23,5.25,-6.65,877.86,31.27
4995909,0.01,0.0,1.39,-6.04,5.49,-6.84,877.8,31.23
4995947,0.01,-0.02,1.43,-5.98,5.49,-6.77,877.79,31.25
4995985,-0.02,-0.01,1.42,-5.98,5.31,-6.77,877.71,31.24
4996023,-0.01,-0.01,1.42,-6.23,6.04,-7.02,877.67,31.26
4996061,0.01,-0.01,1.39,-7.02,5.43,-6.77,877.68,31.25
4996100,-0.0,0.03,1.46,-7.14,4.94,-6.53,877.74,31.27
4996149,0.01,-0.01,1.45,-6.96,5.19,-6.71,877.75,31.25
4996187,0.0,-0.0,1.48,-6.84,4.33,-6.59,877.69,31.26
4996226,0.01,0.0,1.47,-6.35,2.75,-6.53,877.68,31.27
4996264,-0.0,0.01,1.44,-6.29,1.95,-6.59,877.73,31.27
4996302,0.01,0.01,1.41,-6.41,2.75,-6.53,877.69,31.28
4996340,0.02,-0.01,1.42,-5.92,1.34,-6.59,877.69,31.27
4996378,0.02,-0.02,1.37,-5.92,1.28,-6.71,877.67,31.29
4996416,-0.0,0.0,1.37,-6.35,0.98,-6.71,877.71,31.27
4996455,0.0,0.0,1.35,-5.86,1.34,-6.9,877.73,31.29
4996505,-0.01,-0.0,1.34,-5.92,1.1,-7.14,877.71,31.27
4996543,-0.01,-0.01,1.31,-5.92,1.4,-6.9,877.7,31.28
4996581,-0.01,-0.01,1.33,-5.55,0.98,-7.26,877.7,31.29
4996619,0.0,-0.01,1.34,-5.25,1.77,-7.32,877.72,31.29
4996657,0.01,-0.02,1.28,-5.37,2.26,-7.39,877.67,31.27
4996695,-0.02,-0.02,1.27,-5.68,2.93,-7.69,877.73,31.29
4996733,-0.01,-0.04,1.19,-5.62,4.64,-7.87,877.63,31.28
4996771,-0.0,-0.02,1.19,-5.98,4.94,-8.0,877.68,31.29
4996810,0.0,-0.01,1.26,-5.86,4.82,-7.93,877.67,31.29
4996848,-0.02,-0.03,1.18,-5.92,5.31,-8.18,877.66,31.29
4996897,-0.01,-0.02,1.25,-5.98,5.0,-8.36,877.65,31.28
4996936,0.0,-0.04,1.21,-6.04,6.35,-8.36,877.64,31.28
4996974,-0.01,-0.02,1.24,-6.1,6.53,-8.36,877.65,31.29
4997012,-0.0,-0.03,1.2,-5.98,7.69,-8.73,877.61,31.29
4997050,-0.02,-0.01,1.21,-6.04,7.69,-8.61,877.65,31.29
4997088,0.02,-0.01,1.27,-6.47,8.97,-8.85,877.63,31.3
4997126,-0.02,-0.01,1.27,-6.53,8.79,-9.03,877.58,31.29
4997164,-0.02,-0.0,1.36,-6.04,8.67,-9.09,877.56,31.29
4997202,-0.02,-0.01,1.36,-6.1,8.67,-8.85,877.59,31.29
4997252,-0.03,0.01,1.41,-6.04,7.63,-8.79,877.58,31.28
4997290,-0.03,-0.01,1.36,-5.92,8.18,-8.61,877.53,31.28
4997328,-0.02,-0.01,1.36,-5.68,7.02,-8.42,877.57,31.27
4997367,-0.01,-0.01,1.36,-5.62,6.65,-8.48,877.48,31.27
4997405,-0.02,-0.01,1.32,-5.8,5.55,-8.24,877.54,31.28
4997443,-0.02,-0.0,1.33,-5.8,5.92,-8.18,877.56,31.3
4997481,-0.04,-0.01,1.29,-5.86,5.13,-8.0,877.51,31.29
4997519,-0.01,-0.02,1.32,-5.74,4.33,-8.06,877.46,31.28
4997557,-0.02,-0.02,1.29,-5.62,4.15,-8.18,877.48,31.28
4997595,-0.02,-0.01,1.29,-5.68,4.46,-8.0,877.43,31.28
4997645,-0.02,-0.03,1.27,-5.55,4.33,-8.12,877.45,31.26
4997683,-0.02,-0.02,1.26,-5.68,3.36,-7.93,877.44,31.28
4997721,-0.02,-0.02,1.26,-5.49,3.72,-7.93,877.49,31.28
4997760,-0.02,-0.03,1.24,-5.62,2.81,-8.06,877.46,31.27
4997798,-0.02,-0.02,1.24,-5.8,2.99,-7.81,877.43,31.28
4997836,-0.01,-0.02,1.26,-5.98,2.08,-8.0,877.43,31.3
4997874,-0.03,-0.03,1.27,-5.8,1.89,-7.75,877.43,31.28
4997912,-0.03,-0.03,1.27,-5.8,2.01,-8.06,877.4,31.26
4997950,-0.02,-0.02,1.28,-5.92,2.14,-8.0,877.43,31.27
4998000,-0.03,-0.03,1.27,-5.98,2.01,-7.87,877.42,31.26
4998038,-0.03,-0.03,1.25,-5.98,2.81,-8.06,877.48,31.27
4998076,-0.01,-0.03,1.25,-5.98,3.05,-8.0,877.4,31.28
4998114,-0.02,-0.02,1.28,-5.98,2.69,-7.93,877.43,31.28
4998153,-0.03,-0.03,1.29,-6.23,2.69,-7.75,877.42,31.28
4998191,-0.03,-0.02,1.33,-6.23,2.81,-7.81,877.32,31.26
4998229,-0.03,-0.01,1.34,-6.41,3.42,-7.87,877.41,31.28
4998267,-0.03,-0.02,1.35,-6.53,3.11,-8.0,877.41,31.29
4998305,-0.04,-0.01,1.4,-6.53,4.39,-8.18,877.36,31.29
4998355,-0.01,-0.03,1.41,-6.35,5.37,-7.93,877.34,31.27
4998393,-0.02,-0.02,1.45,-6.29,4.94,-8.06,877.4,31.28
4998432,-0.05,-0.01,1.4,-6.29,5.98,-8.0,877.26,31.29
4998470,-0.02,-0.01,1.43,-6.41,6.16,-7.93,877.35,31.26
4998508,-0.01,-0.02,1.39,-6.59,5.86,-8.06,877.37,31.28
4998546,-0.04,-0.01,1.41,-6.65,4.46,-7.57,877.34,31.27
4998584,-0.03,-0.02,1.39,-6.35,5.13,-7.51,877.37,31.27
4998622,-0.03,-0.01,1.38,-6.47,3.97,-7.57,877.35,31.27
4998660,-0.02,-0.01,1.45,-6.16,4.88,-7.39,877.29,31.27
4998736,-0.03,-0.0,1.45,-6.59,4.7,-7.39,877.33,31.25
4998774,-0.03,0.0,1.45,-6.41,4.64,-7.45,877.31,31.26
4998813,-0.03,-0.0,1.47,-6.71,3.54,-7.2,877.29,31.25
4998902,-0.04,-0.03,1.47,-6.47,3.23,-6.9,877.24,31.24
4998940,-0.03,-0.01,1.47,-6.59,2.62,-6.77,877.31,31.26
4998978,-0.03,0.0,1.45,-6.35,2.69,-6.53,877.22,31.25
4999016,-0.03,-0.02,1.41,-6.23,2.87,-6.47,877.29,31.25
4999055,-0.04,-0.01,1.4,-6.47,2.44,-6.53,877.24,31.27
4999093,-0.04,-0.02,1.44,-6.35,2.75,-6.35,877.26,31.26
4999131,-0.02,-0.03,1.41,-6.59,2.08,-6.29,877.22,31.26
4999181,-0.04,-0.01,1.42,-6.35,2.62,-6.16,877.27,31.25
4999219,-0.04,-0.02,1.41,-6.16,2.56,-6.23,877.19,31.26
4999257,-0.02,-0.02,1.44,-6.04,3.3,-6.35,877.23,31.26
4999295,-0.03,-0.02,1.41,-5.8,3.66,-6.29,877.19,31.26
4999333,-0.04,-0.02,1.42,-5.86,4.27,-6.1,877.16,31.26
4999371,-0.02,-0.02,1.39,-5.74,5.13,-6.41,877.24,31.26
4999410,-0.03,-0.02,1.4,-5.74,5.25,-6.23,877.2,31.27
4999448,-0.04,-0.03,1.36,-5.68,6.41,-6.16,877.14,31.26
4999486,-0.02,-0.02,1.36,-5.74,6.16,-6.1,877.24,31.27
4999536,-0.03,-0.02,1.33,-5.74,6.71,-6.23,877.24,31.26
4999574,-0.01,-0.03,1.35,-5.8,6.77,-5.98,877.11,31.27
4999612,-0.01,-0.03,1.37,-5.8,6.71,-6.16,877.2,31.27
4999650,-0.02,-0.04,1.31,-5.92,6.84,-6.16,877.18,31.27
4999688,-0.01,-0.02,1.37,-5.86,6.35,-5.98,877.18,31.26
4999726,-0.02,-0.04,1.33,-5.92,6.29,-6.04,877.09,31.26
4999765,-0.03,-0.04,1.3,-5.98,6.65,-5.98,877.14,31.26
4999803,-0.02,-0.03,1.31,-6.04,6.16,-5.8,877.11,31.27
4999841,-0.02,-0.03,1.32,-6.1,5.8,-5.62,877.06,31.27
4999891,-0.01,-0.04,1.33,-6.29,5.13,-5.74,877.08,31.26
4999929,-0.02,-0.04,1.37,-6.29,5.37,-5.43,877.12,31.27
4999967,-0.0,-0.05,1.34,-6.35,5.31,-5.37,877.09,31.27
5000005,-0.02,-0.03,1.31,-6.16,4.27,-5.31,877.1,31.27
5000043,-0.04,-0.04,1.23,-6.29,4.27,-5.25,877.07,31.29
5000081,-0.0,-0.05,1.22,-6.23,3.66,-5.13,877.06,31.27
5000120,-0.0,-0.05,1.23,-6.23,3.17,-5.19,877.05,31.27
5000158,-0.02,-0.06,1.16,-6.29,3.11,-5.19,877.05,31.27
5000196,-0.0,-0.05,1.16,-6.84,3.3,-5.13,876.96,31.27
5000234,-0.01,-0.04,1.21,-6.9,3.11,-5.13,876.97,31.27
5000284,-0.01,-0.06,1.19,-6.9,3.05,-5.07,876.91,31.27
5000322,0.0,-0.06,1.22,-6.96,4.39,-5.37,876.9,31.27
5000360,0.01,-0.04,1.23,-7.14,4.03,-5.55,876.93,31.28
5000398,0.01,-0.03,1.3,-7.08,3.72,-5.43,876.99,31.28
5000436,0.0,-0.04,1.25,-7.39,4.27,-5.49,876.96,31.28
5000474,-0.01,-0.03,1.33,-7.63,3.78,-5.55,876.94,31.28
5000513,0.0,-0.04,1.29,-7.63,3.42,-5.68,876.93,31.29
5000551,0.0,-0.03,1.29,-7.81,2.26,-5.68,876.88,31.28
5000589,0.01,-0.04,1.28,-7.32,3.42,-5.74,876.89,31.29
5000639,0.01,-0.04,1.31,-7.08,3.17,-5.86,876.85,31.27
5000677,0.01,-0.02,1.38,-6.77,3.54,-5.98,876.92,31.27
5000715,-0.01,-0.03,1.36,-6.84,4.27,-6.1,876.89,31.27
5000753,-0.01,-0.01,1.44,-6.9,5.25,-6.41,876.88,31.26
5000791,-0.0,-0.03,1.42,-6.71,5.92,-6.47,876.84,31.27
5000829,0.01,-0.02,1.44,-6.71,5.0,-6.59,876.8,31.26
5000868,-0.0,-0.02,1.39,-6.53,5.43,-6.41,876.89,31.28
5000906,0.01,-0.02,1.38,-6.29,4.82,-6.53,876.84,31.27
5000944,0.01,-0.03,1.35,-5.86,4.46,-6.23,876.78,31.27
5000982,-0.01,-0.03,1.3,-5.86,4.39,-6.53,876.82,31.27
5001032,-0.01,-0.04,1.31,-5.74,4.27,-6.77,876.86,31.25
5001070,-0.0,-0.04,1.29,-5.74,3.91,-6.65,876.82,31.27
5001108,0.01,-0.04,1.29,-5.74,4.03,-6.84,876.79,31.27
5001146,0.0,-0.04,1.26,-5.8,3.97,-7.08,876.79,31.27
5001185,-0.02,-0.05,1.22,-5.8,3.85,-6.84,876.77,31.28
5001223,-0.0,-0.04,1.25,-5.92,3.54,-6.84,876.75,31.28
5001261,-0.01,-0.03,1.26,-6.04,3.72,-6.96,876.75,31.27
5001299,-0.01,-0.04,1.27,-6.04,5.13,-7.2,876.71,31.28
5001337,0.01,-0.03,1.27,-6.23,5.31,-7.2,876.7,31.28
5001387,-0.0,-0.03,1.32,-6.1,5.92,-7.32,876.71,31.26
5001425,0.0,-0.04,1.31,-6.04,5.49,-7.32,876.7,31.28
5001463,0.01,-0.02,1.32,-6.29,5.49,-7.39,876.74,31.27
5001501,0.0,-0.03,1.28,-6.1,5.37,-7.2,876.73,31.27
5001540,0.0,-0.04,1.26,-5.98,4.82,-7.26,876.7,31.27
5001578,0.0,-0.03,1.31,-5.68,4.15,-7.51,876.59,31.27
5001616,0.01,-0.04,1.29,-5.55,4.46,-7.39,876.68,31.28
5001654,0.02,-0.04,1.33,-5.55,4.76,-7.51,876.66,31.28
5001692,0.01,-0.03,1.33,-5.62,5.07,-7.45,876.6,31.28
5001769,-0.01,-0.03,1.34,-5.49,5.07,-7.81,876.61,31.26
5001807,-0.0,-0.03,1.35,-5.25,5.19,-7.93,876.66,31.27
5001845,0.01,-0.04,1.32,-5.25,4.88,-8.12,876.6,31.27
5001935,0.02,-0.04,1.31,-5.13,5.68,-8.3,876.59,31.23
5001973,0.02,-0.04,1.26,-5.49,4.7,-8.36,876.56,31.27
5002011,0.01,-0.03,1.3,-5.31,3.66,-8.48,876.56,31.26
5002049,0.0,-0.05,1.22,-5.43,4.09,-8.67,876.54,31.26
5002088,0.0,-0.03,1.29,-5.62,2.81,-8.54,876.58,31.26
5002126,0.01,-0.05,1.26,-5.43,3.11,-8.48,876.52,31.26
5002164,0.0,-0.03,1.31,-5.68,1.53,-8.42,876.53,31.26
5002214,0.0,-0.02,1.4,-5.68,2.26,-8.48,876.46,31.25
5002252,0.0,-0.02,1.42,-5.92,2.14,-8.48,876.49,31.24
5002290,0.02,-0.01,1.49,-5.98,2.62,-8.85,876.47,31.26
5002328,0.01,-0.05,1.38,-5.8,3.78,-8.97,876.56,31.26
5002367,-0.0,-0.03,1.37,-5.98,4.58,-9.03,876.44,31.26
5002405,0.03,-0.03,1.34,-5.62,5.55,-9.4,876.49,31.26
5002443,0.02,-0.03,1.28,-5.62,4.33,-9.52,876.54,31.26
5002481,-0.01,-0.03,1.28,-5.68,4.64,-9.28,876.55,31.26
5002519,0.0,-0.06,1.23,-5.55,5.37,-9.58,876.5,31.26
5002569,-0.0,-0.04,1.24,-5.68,5.43,-9.83,876.48,31.25
5002607,-0.02,-0.04,1.2,-5.55,5.0,-9.89,876.51,31.26
5002645,-0.01,-0.05,1.18,-5.8,6.1,-10.13,876.51,31.26
5002683,-0.0,-0.04,1.15,-6.04,6.41,-10.13,876.5,31.26
5002721,-0.01,-0.05,1.18,-5.86,6.16,-10.13,876.39,31.27
5002760,0.01,-0.06,1.09,-6.29,7.02,-10.19,876.44,31.25
5002798,-0.01,-0.04,1.16,-6.23,6.16,-10.25,876.47,31.25
5002836,-0.01,-0.05,1.13,-6.47,7.26,-10.07,876.43,31.25
5002874,-0.01,-0.06,1.14,-6.77,5.98,-10.19,876.43,31.26
5002924,-0.0,-0.05,1.16,-6.71,6.1,-9.95,876.32,31.24
5002962,0.01,-0.05,1.17,-6.9,5.07,-9.95,876.39,31.26
5003000,0.0,-0.05,1.17,-6.9,4.27,-9.83,876.35,31.26
5003039,0.0,-0.06,1.17,-6.96,3.11,-9.89,876.36,31.26
5003077,0.01,-0.05,1.17,-7.2,2.69,-9.89,876.34,31.25
5003115,0.02,-0.05,1.19,-7.51,1.34,-9.83,876.31,31.26
5003153,0.03,-0.04,1.24,-7.69,0.98,-9.95,876.28,31.25
5003191,0.01,-0.05,1.24,-8.0,0.37,-10.13,876.27,31.26
5003229,-0.01,-0.05,1.25,-7.87,-0.43,-10.13,876.28,31.25
5003268,-0.0,-0.04,1.25,-8.0,-0.61,-10.19,876.29,31.27
5003317,-0.0,-0.04,1.28,-8.06,-1.04,-10.25,876.3,31.24
5003356,-0.0,-0.04,1.3,-8.12,-0.98,-10.07,876.28,31.26
5003394,-0.01,-0.04,1.34,-8.12,-0.67,-10.31,876.24,31.24
5003432,-0.0,-0.04,1.35,-7.87,-0.24,-10.31,876.32,31.26
5003470,-0.0,-0.03,1.37,-7.81,-0.06,-10.38,876.29,31.25
5003508,-0.01,-0.03,1.37,-7.57,0.18,-10.38,876.32,31.25
5003546,-0.02,-0.04,1.37,-7.51,0.61,-10.5,876.36,31.25
5003584,-0.01,-0.04,1.37,-7.75,0.12,-10.44,876.36,31.26
5003623,-0.01,-0.03,1.39,-7.45,0.61,-10.5,876.36,31.24
5003673,-0.0,-0.03,1.35,-7.39,0.55,-10.38,876.31,31.24
5003711,-0.01,-0.03,1.37,-7.08,0.79,-10.5,876.36,31.26
5003749,-0.01,-0.04,1.4,-6.9,1.1,-10.44,876.34,31.25
5003787,-0.01,-0.04,1.38,-6.84,0.85,-10.25,876.31,31.26
5003825,-0.03,-0.02,1.42,-6.77,1.16,-10.25,876.35,31.27
5003863,-0.01,-0.03,1.37,-6.59,2.01,-10.01,876.36,31.27
5003902,0.0,-0.03,1.41,-6.65,1.22,-10.19,876.31,31.27
5003940,-0.01,-0.04,1.4,-6.9,0.73,-10.07,876.32,31.26
5003978,-0.02,-0.04,1.38,-6.84,1.1,-10.19,876.37,31.27
5004028,-0.02,-0.04,1.34,-6.53,2.32,-10.07,876.36,31.26
5004066,-0.02,-0.05,1.32,-6.35,3.48,-10.13,876.37,31.25
5004104,-0.01,-0.06,1.33,-6.1,5.07,-10.44,876.33,31.27
5004142,-0.03,-0.04,1.33,-5.98,5.55,-10.25,876.35,31.27
5004180,-0.02,-0.04,1.29,-5.62,6.59,-10.19,876.34,31.26
5004219,-0.03,-0.05,1.32,-5.86,6.23,-10.01,876.35,31.27
5004257,-0.01,-0.06,1.32,-6.04,6.84,-9.95,876.38,31.28
5004295,-0.04,-0.05,1.35,-6.23,6.9,-10.01,876.31,31.27
5004333,-0.02,-0.05,1.35,-6.35,6.84,-9.58,876.3,31.28
5004383,-0.03,-0.04,1.29,-6.47,7.51,-9.52,876.3,31.26
5004421,-0.04,-0.05,1.25,-6.59,7.81,-9.46,876.3,31.26
5004459,-0.0,-0.05,1.26,-6.9,7.2,-9.22,876.3,31.28
5004497,0.0,-0.06,1.25,-7.32,6.47,-9.28,876.32,31.27
5004535,-0.04,-0.06,1.22,-7.45,6.71,-8.85,876.33,31.28
5004574,-0.03,-0.06,1.23,-7.26,6.04,-8.79,876.32,31.27
5004612,-0.01,-0.07,1.24,-7.2,5.0,-8.67,876.3,31.27
5004650,-0.03,-0.07,1.21,-7.45,4.7,-8.48,876.27,31.26
5004688,-0.02,-0.06,1.21,-7.32,4.58,-8.36,876.32,31.27
5004726,0.01,-0.05,1.24,-7.45,4.52,-8.54,876.36,31.27
5004802,-0.03,-0.05,1.31,-7.81,2.75,-7.87,876.39,31.25
5004840,-0.02,-0.05,1.34,-7.75,2.5,-8.0,876.25,31.24
5004878,-0.01,-0.04,1.41,-7.81,1.1,-8.06,876.31,31.25
5004968,-0.04,-0.02,1.46,-7.63,-0.06,-7.75,876.34,31.22
5005006,-0.03,-0.02,1.51,-7.51,1.65,-7.57,876.32,31.23
5005044,-0.03,-0.01,1.57,-7.57,1.46,-7.39,876.3,31.24
5005082,-0.06,-0.01,1.58,-7.39,2.56,-7.57,876.32,31.24
5005120,-0.04,-0.01,1.61,-7.14,3.42,-7.45,876.26,31.24
5005158,-0.05,-0.0,1.68,-6.71,3.6,-7.45,876.3,31.25
5005208,-0.05,-0.0,1.65,-6.04,4.82,-6.96,876.3,31.23
5005246,-0.05,-0.01,1.68,-5.55,5.0,-7.02,876.25,31.24
5005284,-0.03,-0.01,1.62,-5.19,5.92,-6.59,876.33,31.26
5005323,-0.02,-0.01,1.59,-5.13,6.47,-6.47,876.27,31.25
5005361,-0.05,-0.03,1.49,-4.58,7.02,-6.29,876.32,31.25
5005399,-0.04,-0.05,1.42,-4.46,7.08,-6.1,876.34,31.27
5005437,-0.0,-0.05,1.37,-4.33,6.96,-5.8,876.34,31.27
5005475,-0.04,-0.06,1.26,-4.33,5.13,-5.31,876.28,31.26
5005513,-0.04,-0.05,1.23,-4.64,3.11,-5.13,876.34,31.26
5005563,-0.01,-0.07,1.15,-4.39,3.05,-5.19,876.35,31.25
5005601,-0.02,-0.07,1.15,-4.64,1.1,-4.82,876.29,31.26
5005640,-0.03,-0.08,1.1,-5.13,1.95,-4.64,876.23,31.26
5005678,-0.02,-0.08,1.13,-5.37,1.28,-4.7,876.22,31.25
5005716,-0.02,-0.07,1.16,-5.92,1.89,-4.7,876.28,31.27
5005754,-0.01,-0.06,1.2,-6.29,1.71,-4.46,876.25,31.25
5005792,-0.02,-0.05,1.3,-6.35,0.61,-4.52,876.2,31.24
5005830,-0.03,-0.06,1.3,-6.71,0.12,-4.33,876.22,31.24
5005868,-0.03,-0.05,1.38,-7.02,0.06,-4.15,876.22,31.25
5005918,-0.03,-0.06,1.41,-6.59,0.31,-4.33,876.23,31.24
5005956,-0.02,-0.05,1.42,-6.04,0.18,-4.09,876.29,31.26
5005995,-0.01,-0.04,1.4,-5.8,0.31,-4.21,876.25,31.25
5006033,-0.04,-0.05,1.37,-5.37,1.1,-4.09,876.27,31.28
5006071,-0.01,-0.05,1.38,-5.43,1.65,-3.91,876.27,31.27
5006109,-0.02,-0.05,1.38,-5.13,1.89,-3.97,876.25,31.26
5006147,-0.03,-0.05,1.38,-4.7,2.08,-4.09,876.25,31.27
5006185,-0.02,-0.04,1.4,-4.64,2.01,-4.03,876.21,31.26
5006223,-0.01,-0.05,1.41,-4.21,2.62,-3.97,876.28,31.27
5006262,-0.01,-0.06,1.39,-4.09,2.26,-3.91,876.22,31.28
5006311,-0.03,-0.05,1.36,-3.72,2.56,-3.78,876.2,31.26
5006350,-0.03,-0.05,1.34,-3.91,3.05,-4.03,876.21,31.28
5006388,-0.01,-0.05,1.29,-3.48,4.09,-3.85,876.18,31.27
5006426,-0.01,-0.06,1.28,-3.42,2.99,-4.03,876.2,31.29
5006464,-0.02,-0.07,1.35,-3.11,3.05,-3.85,876.15,31.28
5006502,-0.01,-0.07,1.21,-3.36,3.85,-3.78,876.18,31.29
5006540,-0.02,-0.03,1.34,-3.05,2.5,-3.72,876.09,31.27
5006579,-0.0,-0.07,1.21,-3.05,3.42,-3.54,876.09,31.28
5006617,-0.0,-0.07,1.24,-3.6,3.48,-3.66,876.07,31.29
5006666,0.0,-0.08,1.19,-3.6,4.76,-3.78,876.11,31.27
5006705,0.01,-0.07,1.18,-3.85,4.15,-3.85,876.14,31.25
5006743,0.01,-0.05,1.22,-4.09,3.23,-3.6,876.06,31.26
5006781,0.0,-0.08,1.16,-4.58,3.78,-3.72,876.12,31.28
5006819,0.0,-0.07,1.18,-4.88,3.78,-3.85,876.03,31.26
5006857,0.02,-0.07,1.16,-5.13,3.3,-3.91,876.01,31.26
5006895,0.01,-0.06,1.23,-5.19,2.81,-3.97,876.01,31.26
5006933,0.01,-0.07,1.23,-5.07,3.78,-3.85,876.04,31.27
5006972,0.0,-0.05,1.28,-5.55,2.26,-3.97,875.95,31.26
5007010,0.01,-0.06,1.31,-5.62,2.62,-3.91,875.98,31.26
5007059,0.02,-0.06,1.33,-5.86,0.92,-4.09,876.05,31.26
5007098,0.01,-0.05,1.35,-5.68,2.2,-4.03,875.93,31.25
5007136,0.02,-0.07,1.3,-5.31,1.89,-4.27,876.11,31.26
5007174,0.0,-0.06,1.34,-4.94,1.77,-4.46,876.02,31.24
5007212,0.01,-0.07,1.29,-4.88,1.95,-4.58,875.98,31.24
5007250,0.02,-0.06,1.29,-4.88,2.01,-4.7,875.96,31.25
5007288,0.02,-0.06,1.25,-4.76,2.69,-4.94,875.93,31.26
5007326,0.01,-0.06,1.25,-4.88,2.26,-4.94,875.92,31.25
5007365,0.02,-0.07,1.26,-4.82,3.72,-5.19,875.93,31.26
5007414,0.02,-0.06,1.28,-4.88,4.09,-5.43,875.92,31.24
5007453,0.01,-0.05,1.29,-4.82,3.78,-5.43,875.95,31.26
5007491,0.03,-0.06,1.29,-4.88,3.66,-5.55,875.92,31.27
5007529,0.03,-0.06,1.31,-5.07,4.03,-5.68,875.81,31.26
5007567,0.02,-0.06,1.31,-5.0,4.33,-5.86,875.8,31.26
5007605,0.03,-0.06,1.29,-5.13,4.94,-5.92,875.85,31.27
5007643,0.0,-0.04,1.31,-5.19,5.07,-6.16,875.87,31.27
5007681,0.02,-0.06,1.31,-5.19,5.62,-6.16,875.78,31.26
5007720,0.01,-0.06,1.33,-5.31,5.19,-6.23,875.84,31.27
5007758,0.02,-0.05,1.35,-5.31,5.13,-6.41,875.84,31.27
5007833,0.02,-0.05,1.33,-5.25,4.82,-6.71,875.84,31.26
5007872,0.03,-0.06,1.3,-5.31,5.0,-6.71,875.83,31.26
5007910,0.03,-0.07,1.25,-5.25,5.0,-6.71,875.76,31.26
5007999,0.02,-0.05,1.25,-5.37,5.74,-7.08,875.82,31.24
5008037,0.03,-0.06,1.26,-5.25,5.37,-7.32,875.74,31.24
5008075,0.01,-0.06,1.26,-5.31,5.62,-7.32,875.69,31.24
5008114,0.03,-0.06,1.27,-5.13,6.23,-7.57,875.76,31.26
5008152,0.03,-0.06,1.26,-5.19,6.16,-7.75,875.75,31.26
5008190,0.03,-0.05,1.25,-5.19,6.23,-7.69,875.73,31.26
5008240,0.03,-0.05,1.25,-4.64,6.47,-7.93,875.64,31.24
5008278,0.02,-0.06,1.24,-4.58,6.29,-8.06,875.7,31.26
5008316,0.02,-0.05,1.23,-4.52,5.13,-8.12,875.71,31.25
5008354,0.03,-0.06,1.23,-4.46,4.88,-8.3,875.73,31.26
5008392,0.04,-0.05,1.22,-4.7,4.09,-8.42,875.67,31.27
5008430,0.03,-0.05,1.23,-4.52,3.11,-8.42,875.61,31.26
5008468,0.02,-0.06,1.19,-4.82,2.75,-8.61,875.6,31.25
5008506,0.03,-0.05,1.23,-5.0,2.56,-8.54,875.64,31.25
5008545,0.03,-0.05,1.22,-5.0,2.56,-8.61,875.59,31.25
5008594,0.03,-0.04,1.24,-5.25,1.77,-8.91,875.56,31.24
5008633,0.03,-0.05,1.24,-5.31,1.95,-9.03,875.63,31.25
5008671,0.02,-0.06,1.24,-5.31,1.95,-9.16,875.53,31.26
5008709,0.03,-0.05,1.28,-4.88,1.95,-9.28,875.5,31.25
5008747,0.02,-0.05,1.26,-4.88,1.95,-9.4,875.52,31.25
5008785,0.04,-0.05,1.29,-4.76,1.89,-9.7,875.53,31.27
5008823,0.03,-0.05,1.25,-4.82,2.2,-9.77,875.52,31.25
5008861,0.02,-0.05,1.26,-4.76,1.83,-9.95,875.56,31.26
5008899,0.02,-0.05,1.24,-4.82,2.44,-10.13,875.51,31.26
5008938,0.01,-0.04,1.26,-5.19,2.5,-10.13,875.52,31.27
5008987,0.02,-0.05,1.25,-5.0,2.75,-10.19,875.48,31.24
5009026,0.01,-0.04,1.26,-5.25,2.81,-10.38,875.43,31.24
5009064,0.0,-0.05,1.27,-5.55,3.11,-10.44,875.53,31.26
5009102,0.01,-0.05,1.26,-5.49,3.36,-10.38,875.51,31.26
5009140,0.0,-0.05,1.28,-5.49,3.17,-10.56,875.48,31.25
5009178,0.01,-0.06,1.24,-5.55,3.78,-10.62,875.49,31.25
5009216,0.0,-0.05,1.25,-5.86,3.05,-10.68,875.53,31.26
5009254,0.0,-0.04,1.23,-5.92,3.6,-10.62,875.52,31.27
5009293,0.01,-0.05,1.24,-6.16,2.99,-10.8,875.45,31.24
5009342,-0.01,-0.04,1.26,-6.41,2.75,-10.62,875.46,31.24
5009380,-0.0,-0.05,1.26,-6.65,2.81,-10.74,875.46,31.27
5009419,-0.01,-0.05,1.24,-6.9,3.3,-10.5,875.46,31.27
5009457,0.01,-0.04,1.26,-7.2,2.62,-10.62,875.47,31.26
5009495,-0.02,-0.04,1.25,-6.96,1.4,-10.38,875.46,31.25
5009533,-0.02,-0.04,1.27,-7.02,1.28,-10.38,875.47,31.27
5009571,-0.01,-0.05,1.29,-7.14,1.4,-10.38,875.48,31.26
5009609,-0.03,-0.03,1.33,-7.32,0.79,-10.13,875.4,31.25
5009647,-0.03,-0.04,1.31,-7.2,1.1,-10.01,875.36,31.26
5009697,-0.03,-0.03,1.36,-7.26,1.04,-10.07,875.37,31.24
5009735,-0.01,-0.03,1.41,-6.9,0.92,-9.83,875.4,31.26
5009774,-0.03,-0.03,1.38,-6.84,0.85,-9.89,875.43,31.24
5009812,-0.04,-0.02,1.43,-6.35,1.1,-9.83,875.36,31.27
5009850,-0.02,-0.02,1.44,-6.1,0.98,-9.58,875.37,31.25
5009888,-0.03,-0.03,1.47,-5.86,0.37,-9.46,875.43,31.26
5009926,-0.05,-0.02,1.47,-5.8,0.61,-9.46,875.34,31.27
5009964,-0.02,-0.01,1.5,-5.86,0.18,-9.16,875.37,31.26
5010002,-0.03,-0.01,1.5,-5.68,0.55,-8.97,875.29,31.26
5010040,-0.05,-0.02,1.47,-5.68,1.65,-8.85,875.29,31.25
5010090,-0.03,-0.02,1.48,-5.43,2.81,-8.91,875.27,31.24
5010128,-0.03,-0.02,1.46,-5.07,3.36,-8.79,875.29,31.25
5010167,-0.05,-0.01,1.46,-4.39,4.76,-8.67,875.25,31.26
5010205,-0.04,-0.06,1.4,-3.78,6.41,-8.61,875.27,31.26
5010243,-0.03,-0.03,1.42,-3.97,6.29,-8.67,875.3,31.26
5010281,-0.03,-0.04,1.37,-3.36,7.93,-8.48,875.28,31.26
5010319,-0.04,-0.04,1.34,-3.23,8.0,-8.36,875.34,31.26
5010357,-0.02,-0.03,1.31,-3.36,8.54,-8.24,875.3,31.27
5010395,-0.02,-0.04,1.27,-3.17,8.06,-8.24,875.21,31.26
5010445,-0.03,-0.05,1.23,-3.54,8.12,-8.0,875.22,31.25
5010483,-0.02,-0.05,1.24,-3.54,8.18,-7.81,875.26,31.27
5010521,-0.01,-0.06,1.2,-3.91,8.06,-7.81,875.19,31.26
5010560,-0.02,-0.05,1.23,-4.15,7.08,-7.69,875.17,31.25
5010598,-0.01,-0.06,1.24,-4.52,7.63,-7.75,875.18,31.26
5010636,-0.01,-0.05,1.23,-4.88,7.02,-7.81,875.22,31.28
5010674,-0.0,-0.05,1.24,-5.43,7.08,-7.75,875.2,31.27
5010712,-0.02,-0.06,1.19,-5.43,6.96,-7.75,875.15,31.27
5010750,-0.02,-0.06,1.2,-5.68,7.14,-7.75,875.17,31.26
5010826,-0.02,-0.05,1.23,-5.92,6.41,-7.69,875.11,31.23
5010864,-0.02,-0.06,1.19,-5.98,6.41,-7.75,875.13,31.25
5010902,-0.01,-0.06,1.21,-6.16,6.84,-7.81,875.07,31.24
5010992,-0.01,-0.06,1.17,-6.16,7.63,-7.81,875.07,31.23
5011030,-0.02,-0.07,1.09,-6.23,8.73,-7.81,875.04,31.23
5011068,0.0,-0.07,1.08,-6.23,9.16,-8.06,874.98,31.23
5011106,-0.0,-0.06,1.13,-6.16,8.73,-8.42,875.02,31.25
5011144,-0.01,-0.07,1.11,-6.16,8.61,-8.24,875.02,31.26
5011182,-0.02,-0.06,1.18,-6.35,8.67,-8.18,874.94,31.25
5011220,-0.0,-0.05,1.2,-6.53,9.28,-8.36,874.95,31.25
5011270,-0.02,-0.06,1.27,-7.26,6.77,-8.3,874.92,31.24
5011308,-0.03,-0.05,1.33,-7.57,6.29,-8.36,874.87,31.25
5011347,-0.02,-0.03,1.34,-7.45,6.47,-8.3,874.84,31.25
5011385,-0.05,-0.03,1.36,-7.14,5.98,-8.0,874.89,31.26
5011423,-0.05,-0.02,1.38,-6.9,5.55,-7.75,874.85,31.25
5011461,-0.03,-0.04,1.43,-6.47,6.53,-8.12,874.82,31.26
5011499,-0.03,-0.03,1.44,-6.23,4.94,-7.57,874.86,31.26
5011537,-0.02,-0.03,1.51,-5.68,4.09,-7.45,874.87,31.26
5011575,-0.04,-0.05,1.38,-5.92,4.64,-6.96,874.87,31.26
5011625,-0.04,-0.01,1.46,-5.98,3.48,-6.77,874.82,31.25
5011663,-0.03,-0.05,1.37,-6.04,3.05,-6.53,874.79,31.24
5011702,-0.04,-0.04,1.37,-6.53,3.36,-6.59,874.77,31.25
5011740,-0.02,-0.03,1.36,-6.59,4.09,-6.47,874.72,31.26
5011778,-0.03,-0.02,1.38,-6.84,3.23,-6.41,874.75,31.25
5011816,-0.04,-0.02,1.41,-6.71,4.39,-6.35,874.71,31.26
5011854,-0.03,-0.01,1.42,-7.14,3.85,-6.1,874.72,31.25
5011892,-0.03,-0.02,1.48,-6.9,4.58,-6.16,874.66,31.25
5011930,-0.05,-0.03,1.42,-7.02,4.64,-6.1,874.63,31.26
5011980,-0.03,-0.02,1.43,-6.65,5.13,-6.1,874.65,31.24
5012018,-0.02,-0.04,1.38,-6.35,5.43,-5.86,874.72,31.25
5012056,-0.02,-0.03,1.4,-6.04,5.0,-5.8,874.62,31.26
5012094,-0.0,-0.03,1.32,-5.98,6.16,-5.8,874.62,31.27
5012133,-0.03,-0.02,1.33,-6.1,5.25,-5.74,874.59,31.26
5012171,-0.03,-0.04,1.3,-6.23,5.68,-5.55,874.52,31.26
5012209,-0.03,-0.05,1.28,-6.23,5.0,-5.55,874.61,31.26
5012247,-0.02,-0.05,1.28,-6.59,4.88,-5.49,874.56,31.26
5012285,-0.03,-0.04,1.25,-6.53,4.15,-5.31,874.54,31.26
5012323,-0.03,-0.03,1.28,-6.71,4.39,-5.13,874.54,31.26
5012373,-0.02,-0.04,1.3,-6.9,4.03,-5.13,874.49,31.25
5012411,-0.02,-0.06,1.28,-7.26,4.15,-4.94,874.5,31.27
5012449,-0.01,-0.04,1.29,-7.45,3.36,-5.13,874.54,31.27
5012487,-0.01,-0.04,1.25,-7.57,4.27,-5.13,874.51,31.25
5012526,-0.0,-0.02,1.24,-7.69,2.75,-5.13,874.49,31.24
5012564,-0.02,-0.04,1.26,-7.32,3.91,-5.31,874.52,31.25
5012602,-0.02,-0.05,1.28,-6.77,3.23,-5.31,874.42,31.24
5012640,-0.02,-0.03,1.3,-6.23,2.81,-5.25,874.47,31.26
5012678,-0.04,-0.05,1.22,-6.16,4.03,-5.37,874.39,31.24
5012728,-0.03,-0.03,1.24,-6.47,4.82,-5.68,874.38,31.24
5012766,-0.03,-0.03,1.19,-6.47,6.53,-5.43,874.4,31.26
5012804,-0.02,-0.06,1.18,-6.53,6.47,-5.55,874.43,31.25
5012842,-0.04,-0.04,1.21,-6.16,6.96,-5.74,874.41,31.23
5012880,-0.03,-0.04,1.14,-6.1,7.63,-5.31,874.38,31.25
5012919,-0.0,-0.05,1.13,-5.98,7.02,-5.55,874.36,31.26
5012957,-0.02,-0.06,1.09,-5.92,6.9,-5.49,874.29,31.24
5012995,-0.01,-0.06,1.09,-5.98,6.47,-5.37,874.31,31.25
5013033,-0.02,-0.06,1.08,-5.8,7.02,-5.31,874.35,31.26
5013083,-0.01,-0.04,1.1,-5.98,5.86,-5.0,874.2,31.23
5013121,-0.01,-0.05,1.11,-6.47,6.53,-5.31,874.17,31.24
5013159,0.01,-0.03,1.23,-6.9,5.49,-5.43,874.15,31.25
5013197,0.04,-0.03,1.31,-6.96,7.87,-5.25,874.16,31.24
5013235,0.01,-0.01,1.36,-6.71,6.59,-5.43,874.04,31.24
5013273,-0.02,0.01,1.48,-6.29,5.37,-5.25,874.07,31.24
5013312,0.01,-0.01,1.39,-5.98,5.62,-5.19,874.11,31.26
5013350,0.0,0.02,1.49,-5.92,4.88,-5.07,874.1,31.24
5013388,-0.03,-0.01,1.42,-5.0,5.49,-4.94,874.05,31.24
5013426,0.03,0.0,1.41,-4.94,4.15,-5.19,874.0,31.23
5013476,0.03,0.02,1.4,-4.76,4.82,-4.94,874.01,31.24
5013514,0.04,-0.0,1.44,-4.58,3.91,-5.37,874.03,31.24
5013552,0.02,-0.04,1.38,-4.21,5.0,-5.62,874.0,31.24
5013590,0.0,-0.01,1.38,-4.09,3.48,-5.55,874.06,31.25
5013628,0.01,-0.01,1.37,-3.78,2.81,-5.62,874.03,31.26
5013666,0.03,-0.04,1.24,-3.72,2.01,-6.1,873.98,31.25
5013705,0.01,-0.02,1.23,-4.09,2.38,-6.04,874.05,31.26
5013743,0.04,-0.05,1.15,-4.21,2.69,-6.04,874.0,31.26
5013781,0.03,-0.05,1.12,-4.21,0.73,-6.29,874.02,31.26
5013857,-0.0,-0.05,1.08,-4.58,-0.18,-6.16,873.9,31.22
5013895,0.01,-0.05,1.06,-4.94,-0.61,-6.59,873.88,31.24
5013933,0.01,-0.04,1.08,-5.31,-1.16,-6.65,873.85,31.24
5014022,0.01,-0.04,1.16,-5.98,0.06,-7.02,873.91,31.21
5014061,0.01,-0.03,1.19,-6.16,0.67,-7.08,873.91,31.22
5014099,0.01,-0.04,1.19,-6.1,0.92,-7.26,873.9,31.22
5014137,0.01,-0.04,1.17,-5.86,1.59,-7.75,873.93,31.22
5014175,0.02,-0.04,1.14,-5.8,2.44,-7.87,873.81,31.23
5014213,0.02,-0.03,1.16,-5.49,2.56,-8.0,873.84,31.22
5014251,0.01,-0.04,1.14,-5.55,3.05,-8.24,873.83,31.23
5014301,0.0,-0.03,1.16,-5.49,3.05,-8.61,873.83,31.22
5014339,0.01,-0.04,1.17,-5.43,3.85,-8.73,873.83,31.24
5014377,0.02,-0.05,1.16,-5.62,3.48,-8.79,873.83,31.23
5014415,0.01,-0.03,1.18,-5.55,3.6,-8.91,873.78,31.24
5014453,0.02,-0.04,1.16,-5.68,3.23,-9.03,873.81,31.22
5014492,0.02,-0.03,1.18,-5.8,3.11,-8.97,873.82,31.24
5014530,0.01,-0.03,1.16,-5.98,3.11,-9.16,873.8,31.23
5014568,0.01,-0.03,1.17,-5.92,3.05,-9.16,873.78,31.24
5014606,0.01,-0.03,1.18,-6.04,2.62,-9.46,873.77,31.24
5014656,0.01,-0.03,1.2,-5.98,2.5,-9.52,873.75,31.22
5014694,0.02,-0.02,1.25,-6.04,2.08,-9.64,873.76,31.23
5014732,-0.0,-0.01,1.26,-6.04,2.08,-9.52,873.69,31.23
5014770,-0.0,-0.02,1.28,-6.23,2.26,-9.58,873.73,31.24
5014808,0.01,-0.02,1.29,-6.29,1.95,-9.7,873.78,31.24
5014846,0.0,-0.03,1.29,-6.1,2.26,-9.89,873.75,31.23
5014885,-0.0,-0.02,1.3,-5.98,2.26,-9.83,873.7,31.24
5014923,0.01,-0.01,1.31,-5.86,3.05,-10.13,873.68,31.24
5014961,0.0,-0.01,1.29,-5.74,3.91,-10.31,873.68,31.23
5015011,-0.01,-0.01,1.32,-5.8,4.03,-10.19,873.71,31.23
5015049,-0.01,-0.01,1.31,-5.92,4.39,-10.25,873.68,31.24
5015087,-0.0,-0.01,1.31,-5.92,4.46,-10.56,873.77,31.26
5015125,-0.01,-0.0,1.33,-6.04,3.48,-10.25,873.68,31.24
5015163,0.01,-0.01,1.35,-5.92,3.66,-10.19,873.69,31.23
5015201,0.0,-0.02,1.34,-5.86,3.66,-10.38,873.66,31.24
5015240,-0.01,-0.01,1.35,-5.98,3.6,-10.31,873.67,31.25
5015278,-0.01,-0.02,1.32,-5.68,3.42,-10.19,873.7,31.24
5015316,-0.0,-0.02,1.29,-5.86,2.99,-10.31,873.71,31.25
5015354,-0.02,-0.02,1.26,-5.74,3.11,-10.25,873.64,31.25
5015404,-0.0,-0.03,1.26,-5.8,3.17,-10.25,873.63,31.23
5015442,0.0,-0.02,1.26,-6.04,2.93,-10.31,873.61,31.23
5015480,-0.02,-0.02,1.26,-5.92,3.05,-10.13,873.61,31.24
5015518,-0.02,-0.03,1.25,-5.8,2.87,-10.01,873.65,31.23
5015556,-0.02,-0.02,1.25,-5.98,2.5,-10.13,873.61,31.23
5015595,-0.02,-0.02,1.26,-5.92,2.69,-10.07,873.6,31.24
5015633,-0.01,-0.03,1.25,-5.98,2.87,-10.07,873.57,31.23
5015671,-0.01,-0.02,1.27,-6.04,3.05,-10.19,873.61,31.23
5015709,-0.01,-0.02,1.28,-6.04,3.17,-10.25,873.56,31.23
5015759,-0.02,-0.01,1.31,-6.1,3.48,-10.07,873.61,31.22
5015797,-0.02,-0.0,1.34,-6.16,3.78,-9.95,873.57,31.23
5015835,-0.01,-0.01,1.36,-6.29,3.48,-10.07,873.56,31.22
5015873,-0.02,-0.0,1.36,-6.53,3.66,-9.95,873.56,31.24
5015911,-0.02,0.0,1.35,-6.59,3.48,-9.64,873.57,31.23
5015949,-0.02,0.0,1.33,-6.65,3.17,-9.83,873.55,31.24
5015988,-0.01,0.01,1.33,-6.84,3.23,-9.64,873.54,31.23
5016026,-0.02,-0.01,1.33,-6.9,3.42,-9.46,873.54,31.23
5016064,-0.03,-0.01,1.31,-7.02,4.09,-9.64,873.55,31.23
5016114,-0.0,0.0,1.37,-6.9,4.52,-9.64,873.52,31.21
5016152,-0.02,-0.0,1.33,-6.77,4.82,-9.58,873.57,31.22
5016190,-0.04,0.0,1.36,-6.53,4.7,-9.52,873.51,31.22
5016228,-0.03,-0.01,1.33,-6.29,5.74,-9.46,873.55,31.22
5016266,-0.02,-0.0,1.33,-6.47,5.55,-9.52,873.51,31.22
5016304,-0.03,0.01,1.35,-6.65,5.68,-9.52,873.57,31.23
5016342,-0.03,-0.0,1.34,-6.77,6.04,-9.34,873.54,31.23
5016381,-0.02,0.0,1.38,-6.65,6.47,-9.52,873.44,31.22
5016419,-0.01,0.01,1.4,-6.65,6.35,-9.28,873.47,31.23
5016468,-0.02,0.01,1.41,-6.59,5.92,-9.16,873.36,31.21
5016507,-0.03,0.02,1.42,-6.84,5.74,-9.16,873.41,31.22
5016545,-0.03,0.01,1.43,-6.77,4.82,-9.03,873.39,31.23
5016583,-0.02,0.01,1.42,-6.84,4.58,-8.97,873.43,31.22
5016621,-0.02,0.02,1.39,-6.65,3.85,-8.85,873.4,31.22
5016659,-0.02,0.02,1.4,-6.47,3.6,-8.61,873.41,31.22
5016698,-0.02,0.01,1.4,-6.23,3.3,-8.67,873.38,31.23
5016736,-0.03,0.02,1.4,-6.29,3.66,-8.42,873.44,31.22
5016774,-0.03,0.01,1.4,-6.04,3.42,-8.61,873.36,31.24
5016812,-0.04,0.0,1.41,-5.98,3.54,-8.3,873.42,31.23
5016888,-0.03,0.01,1.38,-5.92,3.97,-8.24,873.38,31.2
5016926,-0.02,0.01,1.34,-6.1,3.97,-8.0,873.36,31.21
5016964,-0.02,0.01,1.34,-6.04,3.97,-8.0,873.4,31.23
5017053,-0.03,0.0,1.34,-6.29,4.33,-7.87,873.4,31.19
5017092,-0.03,0.0,1.35,-6.23,4.58,-7.81,873.3,31.2
5017130,-0.03,-0.0,1.35,-6.16,3.91,-7.69,873.38,31.23
5017168,-0.02,-0.0,1.36,-6.16,3.6,-7.63,873.33,31.22
5017206,-0.02,0.0,1.35,-6.41,4.09,-7.57,873.34,31.22
5017244,-0.02,0.01,1.35,-6.47,4.09,-7.57,873.36,31.22
5017294,-0.01,-0.0,1.34,-6.1,4.15,-7.39,873.3,31.2
5017332,-0.03,-0.01,1.33,-6.16,3.66,-7.45,873.32,31.22
5017370,-0.03,0.0,1.32,-6.1,3.72,-7.45,873.29,31.22
5017408,-0.01,0.0,1.31,-6.1,3.91,-7.32,873.25,31.21
5017446,-0.02,-0.0,1.31,-6.04,3.66,-7.39,873.31,31.22
5017484,-0.03,-0.01,1.28,-6.1,3.91,-7.26,873.28,31.22
5017523,-0.02,-0.0,1.3,-5.98,4.03,-7.32,873.26,31.23
5017561,-0.01,-0.0,1.28,-6.16,3.97,-7.45,873.3,31.22
5017599,-0.02,-0.0,1.3,-6.04,3.97,-7.02,873.28,31.23
5017637,-0.02,-0.01,1.28,-5.92,4.21,-7.32,873.27,31.22
5017687,-0.02,-0.01,1.28,-6.1,4.21,-7.14,873.33,31.22
5017725,-0.02,-0.01,1.26,-6.04,4.15,-7.08,873.25,31.22
5017763,-0.02,-0.01,1.26,-6.23,4.15,-7.14,873.28,31.23
5017801,-0.02,-0.01,1.26,-6.29,4.15,-7.32,873.24,31.23
5017839,-0.01,-0.02,1.23,-6.35,4.15,-7.26,873.26,31.23
5017877,-0.02,-0.01,1.24,-6.16,4.09,-7.26,873.21,31.23
5017916,-0.02,-0.01,1.24,-6.41,4.33,-7.39,873.23,31.23
5017954,-0.01,-0.01,1.25,-6.35,4.39,-7.32,873.26,31.23
5017992,-0.02,-0.01,1.24,-6.41,4.52,-7.39,873.24,31.22
5018042,-0.02,-0.02,1.22,-6.35,4.58,-7.51,873.25,31.24
5018080,-0.0,-0.02,1.23,-6.65,4.52,-7.32,873.15,31.22
5018118,-0.01,-0.01,1.19,-6.59,4.15,-7.57,873.16,31.23
5018156,-0.01,-0.01,1.2,-6.47,4.27,-7.63,873.21,31.23
5018194,-0.0,-0.02,1.19,-6.65,4.88,-7.57,873.21,31.24
5018233,-0.01,-0.02,1.21,-6.71,5.49,-7.81,873.23,31.23
5018271,-0.0,-0.01,1.24,-6.65,5.8,-8.0,873.16,31.24
5018309,-0.0,-0.01,1.24,-6.59,6.35,-8.12,873.1,31.22
5018347,-0.02,-0.01,1.24,-6.84,5.8,-8.18,873.11,31.22
5018397,-0.01,-0.01,1.24,-6.71,6.23,-8.24,873.15,31.24
5018435,-0.02,-0.01,1.27,-6.35,6.23,-8.3,873.13,31.23
5018473,-0.01,-0.01,1.24,-6.47,6.77,-8.24,873.15,31.24
5018511,-0.0,-0.01,1.26,-6.23,5.98,-8.36,873.12,31.23
5018549,-0.01,-0.0,1.28,-6.04,6.65,-8.42,873.05,31.24
5018587,-0.01,-0.01,1.25,-6.1,7.14,-8.36,873.14,31.23
5018626,-0.0,0.0,1.31,-6.04,6.77,-8.3,873.09,31.23
5018664,-0.01,-0.01,1.28,-5.92,6.84,-8.36,873.13,31.24
5018702,-0.02,0.01,1.31,-5.92,6.29,-8.12,873.08,31.22
5018740,-0.01,-0.0,1.29,-5.74,6.84,-8.18,873.1,31.24
5018790,-0.0,0.01,1.31,-5.74,5.86,-8.06,873.09,31.22
5018828,-0.01,0.0,1.3,-5.8,6.53,-8.0,873.06,31.23
5018866,-0.01,-0.01,1.29,-5.8,5.98,-7.93,873.05,31.23
5018904,-0.01,0.0,1.3,-5.74,5.86,-7.93,873.11,31.22
5018942,-0.01,-0.01,1.29,-5.62,5.13,-7.81,873.05,31.23
5018980,-0.0,-0.02,1.27,-5.68,4.64,-7.87,873.06,31.23
5019019,-0.02,-0.01,1.24,-5.55,4.88,-7.81,873.12,31.24
5019057,0.0,-0.01,1.23,-5.43,4.39,-7.87,873.06,31.24
5019095,-0.01,-0.02,1.19,-5.62,4.15,-7.87,873.04,31.24
5019145,-0.0,-0.02,1.21,-5.62,3.72,-7.87,873.09,31.22
5019183,-0.0,-0.03,1.19,-5.55,3.54,-7.93,873.03,31.22
5019221,-0.01,-0.02,1.18,-5.98,3.23,-8.06,873.05,31.23
5019259,-0.01,-0.02,1.22,-5.86,3.05,-8.12,872.99,31.23
5019297,-0.0,-0.02,1.21,-5.92,2.87,-8.12,873.0,31.23
5019335,-0.01,-0.02,1.21,-6.23,2.5,-8.18,872.98,31.22
5019374,-0.01,-0.02,1.21,-6.29,2.62,-8.18,873.03,31.23
5019412,-0.01,-0.02,1.2,-6.1,2.38,-8.12,872.97,31.22
5019450,-0.01,-0.01,1.23,-6.23,1.95,-8.3,872.97,31.23
5019500,-0.02,-0.02,1.23,-6.04,1.89,-8.24,873.04,31.22
5019538,-0.01,-0.02,1.24,-6.23,1.71,-8.3,873.0,31.22
5019576,-0.01,-0.02,1.25,-6.16,1.4,-8.42,873.02,31.22
5019614,-0.01,-0.01,1.25,-6.35,0.98,-8.3,873.05,31.23
5019652,-0.02,-0.01,1.23,-6.23,1.1,-8.36,873.03,31.23
5019690,-0.0,-0.02,1.22,-6.1,0.43,-8.3,873.01,31.23
5019728,0.0,-0.04,1.11,-6.16,1.22,-8.42,873.04,31.22
5019767,-0.01,-0.04,1.09,-6.04,1.65,-8.42,873.06,31.22
5019805,-0.01,-0.04,1.07,-5.68,1.71,-8.48,872.99,31.23
5019843,-0.01,-0.04,1.03,-5.86,1.89,-8.67,872.97,31.23
5019919,-0.02,-0.05,1.0,-5.92,2.08,-8.67,873.05,31.21
5019957,0.01,-0.04,1.07,-6.65,0.18,-8.61,872.97,31.21
5019995,-0.0,-0.04,1.11,-6.47,1.34,-8.48,873.02,31.23
5020159,-0.02,-0.02,1.22,-7.26,0.49,-8.42,872.96,31.16
5020197,-0.0,-0.04,1.19,-7.26,1.89,-8.67,873.01,31.16
5020235,0.01,-0.01,1.29,-7.26,1.95,-8.67,873.0,31.2
5020274,0.01,-0.0,1.33,-6.71,2.32,-8.42,872.93,31.2
5020312,-0.0,-0.0,1.29,-6.53,2.93,-8.67,872.98,31.19
5020350,-0.0,-0.0,1.35,-6.29,3.42,-9.03,873.05,31.21
5020400,-0.0,-0.01,1.38,-6.04,3.3,-9.03,872.98,31.19
5020438,-0.0,0.0,1.4,-5.86,3.6,-9.46,873.03,31.18
5020476,-0.0,0.01,1.39,-5.62,6.04,-9.64,873.03,31.21
5020514,0.0,0.01,1.4,-5.68,5.74,-9.7,872.99,31.2
5020552,-0.01,0.01,1.38,-5.68,5.74,-9.7,873.03,31.21
5020590,-0.01,0.0,1.4,-5.49,5.74,-9.95,873.01,31.2
5020629,-0.01,0.01,1.39,-5.55,5.92,-9.89,872.97,31.2
5020667,0.0,0.01,1.38,-5.43,5.49,-9.83,873.06,31.23
5020705,-0.01,-0.0,1.35,-5.37,3.91,-9.52,873.06,31.24
5020743,-0.01,-0.01,1.33,-5.43,3.17,-9.28,873.01,31.22
5020793,-0.0,-0.01,1.29,-5.0,2.69,-9.34,873.03,31.22
5020831,-0.0,-0.01,1.26,-5.13,2.01,-9.22,873.05,31.22
5020869,-0.01,-0.02,1.23,-4.82,2.14,-9.28,873.15,31.22
5020907,-0.02,-0.04,1.19,-4.94,2.32,-9.16,873.09,31.22
5020945,-0.01,-0.03,1.21,-4.7,2.26,-9.28,873.03,31.23
5020983,-0.0,-0.03,1.19,-4.52,1.71,-9.4,873.07,31.22
5021022,-0.02,-0.03,1.14,-4.7,2.08,-9.28,873.06,31.23
5021060,-0.01,-0.03,1.16,-4.76,2.26,-9.46,873.09,31.23
5021098,-0.0,-0.05,1.14,-4.94,2.5,-9.77,873.13,31.23
5021148,-0.02,-0.03,1.16,-5.13,2.26,-9.46,873.08,31.21
5021186,-0.01,-0.04,1.16,-5.31,2.56,-9.7,873.09,31.22
5021224,-0.01,-0.03,1.2,-5.49,2.14,-9.89,873.05,31.23
5021262,-0.02,-0.04,1.2,-5.74,2.99,-9.7,873.11,31.22
5021300,-0.03,-0.04,1.21,-5.86,2.69,-9.7,873.12,31.22
5021338,-0.01,-0.03,1.23,-5.98,3.05,-9.64,873.15,31.22
5021377,-0.01,-0.04,1.23,-6.1,2.87,-9.77,873.14,31.23
5021415,-0.01,-0.03,1.28,-6.16,2.44,-9.64,873.18,31.24
5021453,-0.01,-0.03,1.28,-6.59,2.87,-9.46,873.05,31.23
5021503,-0.02,-0.0,1.38,-6.65,1.89,-9.4,873.12,31.22
5021541,-0.01,-0.02,1.37,-6.77,1.28,-9.46,873.16,31.23
5021579,-0.02,-0.02,1.41,-7.2,0.49,-9.16,873.11,31.22
5021617,-0.03,-0.01,1.43,-6.84,2.14,-9.22,873.07,31.21
5021655,-0.0,-0.02,1.43,-6.96,1.59,-9.28,873.08,31.22
5021693,-0.02,-0.0,1.45,-6.77,1.59,-9.09,873.15,31.24
5021732,-0.03,-0.0,1.42,-6.65,2.5,-9.22,873.17,31.24
5021770,-0.01,-0.01,1.47,-6.47,2.75,-9.09,873.15,31.23
5021808,-0.01,-0.01,1.48,-6.16,2.87,-9.16,873.12,31.23
5021858,-0.02,-0.0,1.46,-6.23,2.75,-9.22,873.14,31.22
5021896,-0.02,0.0,1.48,-6.1,2.99,-9.03,873.16,31.22
5021934,-0.02,-0.01,1.45,-5.98,3.48,-9.03,873.06,31.23
5021972,-0.03,0.01,1.47,-6.16,3.05,-9.22,873.09,31.23
5022010,-0.03,0.0,1.5,-6.04,3.48,-8.91,873.03,31.23
5022048,-0.01,-0.01,1.47,-5.8,4.39,-8.73,873.08,31.22
5022086,-0.03,0.01,1.54,-5.55,3.05,-8.61,873.1,31.23
5022125,-0.03,0.0,1.53,-5.31,3.11,-8.67,873.13,31.23
5022163,-0.03,0.01,1.54,-5.62,3.17,-8.48,873.06,31.21
5022201,-0.01,0.02,1.58,-5.43,2.93,-8.3,873.07,31.22
5022251,-0.03,0.01,1.56,-5.37,2.81,-8.3,873.06,31.22
5022289,-0.02,0.01,1.59,-5.37,2.81,-8.18,873.07,31.21
5022327,-0.02,0.01,1.59,-5.25,2.87,-8.18,873.04,31.21
5022365,-0.03,0.02,1.59,-5.07,1.34,-8.12,873.1,31.2
5022403,-0.04,0.01,1.56,-4.82,1.46,-7.93,873.02,31.22
5022441,-0.03,0.0,1.55,-4.46,1.04,-8.06,873.08,31.22
5022480,-0.02,-0.01,1.52,-4.09,2.08,-8.0,873.13,31.23
5022518,-0.03,-0.01,1.41,-3.91,0.73,-7.69,873.13,31.22
5022556,-0.07,-0.01,1.4,-3.36,-0.31,-7.26,873.14,31.22
5022606,-0.03,-0.05,1.3,-3.48,0.55,-7.26,873.15,31.21
5022644,-0.04,-0.04,1.26,-3.72,-0.98,-6.84,873.15,31.2
5022682,-0.04,-0.05,1.26,-3.54,-0.85,-6.9,873.09,31.2
5022720,-0.04,-0.07,1.11,-4.21,-0.06,-6.71,873.16,31.22
5022758,-0.05,-0.03,1.15,-4.27,-2.62,-6.35,873.11,31.21
5022796,-0.07,-0.08,1.11,-4.03,-0.24,-6.35,873.15,31.21
5022834,-0.05,-0.09,1.0,-4.88,-15.32,-6.47,873.17,31.22
5022873,-0.07,-0.03,1.16,-4.46,0.55,-6.29,873.15,31.21
5022911,-0.06,-0.07,1.07,-5.07,3.42,-5.86,873.12,31.21
5022949,-0.05,-0.06,1.13,-5.37,4.39,-5.92,873.16,31.21
5023025,-0.05,-0.06,1.2,-5.37,8.3,-5.55,873.08,31.2
5023063,-0.05,-0.03,1.3,-5.86,8.91,-5.62,873.14,31.22
5023101,-0.04,-0.03,1.27,-5.8,9.7,-5.37,873.11,31.2
5023190,-0.04,-0.03,1.32,-5.62,12.57,-5.13,873.12,31.17
5023229,-0.03,-0.03,1.36,-5.31,12.94,-4.88,873.11,31.2
5023267,-0.04,-0.04,1.33,-5.25,14.1,-4.7,873.07,31.2
5023305,-0.04,-0.02,1.38,-4.94,13.98,-4.52,873.06,31.19
5023343,-0.03,-0.03,1.35,-4.88,13.98,-4.33,873.02,31.21
5023381,-0.02,-0.02,1.36,-5.25,12.63,-3.91,873.02,31.2
5023431,-0.01,-0.03,1.37,-4.82,12.45,-3.6,873.05,31.21
5023469,-0.02,-0.02,1.38,-4.82,10.62,-3.42,873.07,31.21
5023507,-0.03,-0.02,1.38,-4.94,9.83,-3.17,873.05,31.23
5023545,-0.03,-0.03,1.37,-4.64,8.42,-2.87,872.96,31.22
5023584,-0.03,-0.03,1.39,-4.52,7.81,-2.87,872.93,31.22
5023622,-0.01,-0.03,1.34,-4.82,8.24,-2.69,872.97,31.22
5023660,-0.02,-0.02,1.39,-4.52,7.69,-2.69,873.0,31.22
5023698,-0.03,-0.03,1.4,-4.09,8.24,-2.62,873.01,31.22
5023736,-0.03,-0.02,1.38,-4.21,8.42,-2.62,872.93,31.22
5023786,-0.03,-0.02,1.41,-4.03,8.97,-2.38,872.94,31.22
5023824,-0.01,-0.03,1.37,-4.39,9.4,-2.56,872.92,31.21
5023862,-0.0,-0.01,1.42,-4.33,9.4,-2.5,872.93,31.22
5023901,-0.0,-0.03,1.37,-4.15,9.89,-2.5,872.86,31.22
5023939,-0.0,-0.03,1.39,-4.33,9.4,-2.5,872.89,31.23
5023977,-0.01,-0.03,1.39,-4.27,9.52,-2.44,872.88,31.21
5024015,-0.02,-0.02,1.38,-4.58,8.79,-2.44,872.84,31.22
5024053,-0.01,-0.02,1.39,-4.64,9.22,-2.5,872.88,31.23
5024091,-0.01,-0.03,1.36,-4.64,8.3,-2.5,872.82,31.23
5024141,-0.02,-0.03,1.37,-4.58,8.18,-2.32,872.94,31.23
5024179,-0.0,-0.03,1.32,-4.58,7.32,-2.56,872.83,31.21
5024217,-0.0,-0.03,1.35,-4.46,7.02,-2.38,872.86,31.22
5024255,-0.0,-0.04,1.31,-4.33,6.53,-2.32,872.84,31.22
5024294,0.01,-0.04,1.32,-4.58,6.59,-2.5,872.78,31.22
5024332,0.01,-0.04,1.3,-4.39,6.29,-2.69,872.84,31.23
5024370,-0.0,-0.04,1.31,-4.46,5.07,-2.87,872.76,31.22
5024408,0.01,-0.04,1.28,-4.7,5.55,-2.93,872.77,31.23
5024446,0.02,-0.04,1.28,-4.7,5.74,-2.99,872.77,31.22
5024484,0.01,-0.04,1.27,-4.82,5.43,-2.99,872.72,31.22
5024534,0.01,-0.05,1.24,-5.07,4.82,-3.23,872.73,31.21
5024572,0.02,-0.04,1.24,-4.88,4.88,-3.48,872.72,31.22
5024610,0.02,-0.05,1.23,-4.94,4.94,-3.48,872.71,31.23
5024648,0.02,-0.05,1.22,-4.76,4.88,-3.66,872.73,31.22
5024687,0.01,-0.05,1.22,-4.82,5.13,-3.72,872.69,31.22
5024725,0.01,-0.05,1.23,-5.07,5.07,-4.21,872.66,31.22
5024763,0.01,-0.05,1.23,-5.07,4.88,-4.09,872.66,31.23
5024801,0.03,-0.05,1.24,-5.19,5.62,-4.46,872.65,31.22
5024839,0.02,-0.05,1.25,-5.55,5.25,-4.33,872.61,31.22
5024889,0.01,-0.05,1.23,-5.49,5.13,-4.7,872.62,31.2
5024927,0.01,-0.04,1.22,-5.49,4.7,-4.88,872.56,31.21
5024965,0.01,-0.04,1.22,-5.68,4.88,-5.07,872.6,31.21
5025003,0.02,-0.04,1.25,-5.55,4.21,-5.19,872.53,31.21
5025041,0.03,-0.05,1.24,-5.68,4.46,-5.31,872.57,31.21
5025080,0.01,-0.04,1.25,-5.86,3.66,-5.25,872.52,31.22
5025118,0.01,-0.04,1.24,-5.74,3.66,-5.37,872.52,31.21
5025156,0.01,-0.04,1.21,-5.86,3.85,-5.55,872.47,31.2
5025194,0.01,-0.03,1.25,-6.04,3.42,-5.86,872.5,31.2
5025232,0.02,-0.05,1.22,-6.04,3.05,-5.92,872.49,31.22
5025282,0.0,-0.04,1.24,-6.29,4.03,-6.04,872.48,31.21
5025320,0.02,-0.04,1.26,-6.41,4.09,-6.29,872.39,31.2
5025358,0.0,-0.04,1.26,-6.59,4.15,-6.35,872.47,31.2
5025396,0.0,-0.04,1.24,-6.41,3.97,-6.35,872.44,31.23
5025434,0.0,-0.03,1.24,-6.29,4.33,-6.53,872.45,31.22
5025472,0.02,-0.04,1.23,-6.35,3.85,-6.59,872.4,31.21
5025511,0.01,-0.03,1.28,-6.41,3.6,-6.59,872.42,31.22
5025549,-0.0,-0.04,1.25,-6.29,4.21,-6.65,872.5,31.22
5025587,0.0,-0.04,1.3,-6.35,4.15,-6.65,872.41,31.21
5025637,0.0,-0.03,1.31,-6.04,4.21,-6.77,872.42,31.21
5025675,0.0,-0.02,1.32,-6.23,4.76,-7.02,872.43,31.22
5025713,-0.0,-0.03,1.34,-5.98,4.88,-6.9,872.4,31.22
5025751,-0.01,-0.05,1.29,-6.04,4.52,-6.9,872.41,31.21
5025789,-0.01,-0.03,1.31,-6.29,3.78,-6.84,872.38,31.2
5025828,-0.0,-0.03,1.29,-6.04,4.21,-6.77,872.4,31.22
5025866,0.01,-0.04,1.25,-6.29,4.15,-6.71,872.39,31.2
5025904,-0.0,-0.03,1.27,-6.1,3.36,-6.53,872.32,31.21
5025942,-0.0,-0.05,1.24,-5.92,3.36,-6.65,872.3,31.21
5026018,0.01,-0.03,1.27,-6.35,1.53,-6.65,872.27,31.18
5026056,-0.0,-0.04,1.27,-6.53,0.61,-6.77,872.25,31.2
5026094,0.0,-0.03,1.32,-6.84,0.98,-6.9,872.26,31.19
5026184,-0.0,-0.04,1.37,-6.53,1.53,-7.08,872.31,31.16
5026222,0.0,-0.01,1.4,-6.65,1.22,-7.45,872.2,31.18
5026260,0.01,-0.01,1.38,-6.65,2.75,-7.75,872.21,31.17
5026298,0.0,-0.01,1.35,-6.9,2.81,-7.81,872.19,31.18
5026336,0.01,-0.01,1.46,-7.08,3.05,-7.81,872.17,31.18
5026374,0.02,-0.03,1.43,-6.65,4.94,-8.18,872.2,31.19
5026412,-0.01,-0.0,1.48,-6.53,4.82,-8.18,872.2,31.2
5026462,0.02,-0.01,1.45,-6.16,4.52,-8.12,872.15,31.18
5026500,0.02,-0.0,1.45,-6.1,3.42,-8.36,872.19,31.2
5026539,0.01,-0.0,1.44,-6.04,2.93,-8.24,872.16,31.19
5026577,0.02,-0.02,1.43,-5.98,2.44,-8.12,872.21,31.2
5026615,0.02,-0.02,1.39,-5.74,1.53,-8.0,872.16,31.2
5026653,-0.0,-0.02,1.36,-5.74,0.98,-7.87,872.14,31.21
5026691,0.02,-0.04,1.32,-5.62,0.92,-8.0,872.1,31.2
5026729,0.02,-0.05,1.26,-5.49,-0.73,-8.12,872.09,31.21
5026767,0.0,-0.05,1.22,-5.31,-2.2,-8.0,872.12,31.21
5026817,0.02,-0.06,1.09,-5.55,-1.95,-8.06,872.02,31.19
5026855,0.02,-0.04,1.13,-5.74,-2.93,-8.18,872.05,31.2
5026893,0.02,-0.06,1.11,-5.49,-2.26,-8.24,872.0,31.21
5026932,0.01,-0.06,1.13,-5.68,-2.75,-8.24,872.01,31.21
5026970,0.02,-0.06,1.15,-5.62,-1.22,-8.67,872.01,31.2
5027008,0.02,-0.06,1.14,-5.49,-1.59,-8.85,871.97,31.21
5027046,0.02,-0.04,1.21,-5.49,-1.22,-8.91,872.01,31.21
5027084,0.01,-0.06,1.16,-5.55,-0.43,-9.09,871.99,31.21
5027122,0.03,-0.02,1.27,-5.74,-0.79,-9.28,871.95,31.22
5027160,0.03,-0.03,1.29,-5.68,-0.06,-9.4,872.0,31.22
5027210,0.01,-0.03,1.3,-5.68,-1.16,-9.4,871.96,31.21
5027248,0.02,-0.03,1.34,-5.62,-0.06,-9.46,871.95,31.21
5027287,0.02,-0.05,1.38,-5.68,-0.55,-9.77,871.96,31.23
5027325,0.02,-0.02,1.38,-5.74,-0.12,-9.58,872.01,31.22
5027363,0.0,-0.02,1.39,-5.55,0.0,-9.77,871.98,31.23
5027401,0.01,-0.02,1.38,-5.49,0.55,-10.25,871.99,31.22
5027439,0.01,-0.02,1.4,-5.19,0.37,-10.07,871.96,31.23
5027477,0.02,-0.03,1.43,-4.88,1.28,-10.13,871.91,31.22
5027516,0.02,-0.04,1.36,-4.76,2.14,-10.5,871.94,31.22
5027565,-0.01,-0.03,1.39,-4.33,2.01,-10.5,872.0,31.21
5027603,0.01,-0.06,1.28,-4.46,3.23,-10.74,872.0,31.21
5027642,0.01,-0.03,1.31,-4.82,2.69,-10.99,871.94,31.2
5027680,0.01,-0.04,1.25,-4.82,3.48,-10.99,871.96,31.21
5027718,-0.01,-0.05,1.21,-5.31,2.75,-10.93,871.95,31.22
5027756,0.0,-0.05,1.22,-5.49,3.05,-11.05,871.96,31.22
5027794,0.0,-0.05,1.21,-5.55,2.62,-11.05,871.98,31.21
5027832,0.0,-0.05,1.21,-5.86,1.77,-11.05,871.93,31.22
5027870,-0.01,-0.06,1.15,-5.8,1.53,-10.93,871.92,31.23
5027920,-0.01,-0.05,1.13,-5.8,1.59,-11.05,871.89,31.21
5027958,-0.01,-0.06,1.1,-5.92,1.04,-10.86,871.86,31.21
5027996,-0.01,-0.06,1.05,-6.16,0.55,-11.05,871.92,31.23
5028035,-0.01,-0.09,1.04,-6.23,1.4,-11.11,871.84,31.21
5028073,-0.01,-0.07,1.03,-6.1,1.16,-10.99,871.88,31.2
5028111,-0.01,-0.07,1.1,-6.1,2.2,-11.17,871.87,31.21
5028149,-0.02,-0.07,1.08,-6.04,2.87,-11.11,871.85,31.2
5028187,-0.04,-0.05,1.15,-6.04,3.3,-11.17,871.88,31.21
5028225,-0.03,-0.06,1.12,-6.35,4.09,-10.93,871.86,31.21
5028275,-0.03,-0.06,1.14,-6.41,3.97,-11.11,871.9,31.2
5028313,-0.04,-0.06,1.14,-6.53,3.66,-10.99,871.86,31.2
5028351,-0.02,-0.05,1.18,-6.77,4.21,-10.8,871.86,31.2
5028390,-0.02,-0.05,1.25,-6.84,5.31,-10.86,871.84,31.2
5028428,-0.04,-0.03,1.34,-6.9,6.1,-10.44,871.8,31.2
5028466,-0.06,-0.03,1.43,-6.65,6.71,-10.25,871.9,31.21
5028504,-0.05,-0.03,1.44,-6.35,7.14,-10.13,871.88,31.2
5028542,-0.03,-0.02,1.49,-6.35,7.32,-9.95,871.86,31.21
5028580,-0.03,-0.03,1.39,-6.16,7.32,-9.77,871.85,31.2
5028619,-0.01,-0.02,1.41,-5.92,6.77,-9.7,871.85,31.21
5028669,-0.04,-0.03,1.36,-5.62,6.77,-9.16,871.87,31.19
5028707,-0.04,-0.03,1.37,-5.55,6.41,-8.97,871.8,31.21
5028745,-0.05,-0.04,1.35,-5.49,5.37,-8.73,871.8,31.21
5028783,-0.05,-0.02,1.43,-5.37,4.33,-8.73,871.73,31.2
5028821,-0.03,-0.02,1.46,-5.43,4.88,-8.67,871.74,31.2
5028859,-0.02,-0.03,1.51,-5.62,4.39,-8.36,871.74,31.2
5028897,-0.03,-0.01,1.6,-5.62,4.46,-8.67,871.72,31.21
5028936,-0.04,-0.02,1.58,-5.86,5.8,-8.24,871.7,31.22
5028974,-0.04,-0.0,1.62,-5.62,5.25,-8.0,871.7,31.22
5029049,-0.05,-0.0,1.62,-5.55,4.52,-8.12,871.65,31.17
5029088,-0.02,-0.01,1.61,-5.07,4.46,-8.0,871.68,31.2
5029126,-0.04,-0.02,1.56,-4.64,3.23,-7.75,871.67,31.2
5029215,-0.04,-0.03,1.47,-4.58,2.5,-7.02,871.69,31.17
5029254,-0.06,-0.02,1.42,-4.27,1.04,-7.02,871.65,31.18
5029292,-0.05,-0.04,1.33,-4.27,0.92,-6.84,871.62,31.2
5029330,-0.03,-0.04,1.37,-4.46,-0.43,-6.53,871.63,31.21
5029368,-0.04,-0.06,1.32,-4.39,-0.18,-6.29,871.57,31.21
5029406,-0.05,-0.04,1.29,-4.52,-1.22,-6.29,871.64,31.21
5029456,-0.05,-0.05,1.25,-4.39,-0.18,-6.23,871.65,31.2
5029494,-0.04,-0.05,1.24,-4.46,-1.16,-6.35,871.6,31.19
5029532,-0.04,-0.06,1.23,-4.33,-0.92,-6.1,871.59,31.2
5029570,-0.03,-0.07,1.19,-4.76,-1.4,-6.1,871.52,31.19
5029609,-0.04,-0.04,1.24,-4.88,-1.28,-5.86,871.54,31.21
5029647,-0.04,-0.04,1.26,-5.0,-1.04,-5.8,871.5,31.21
5029685,-0.04,-0.04,1.3,-5.68,-1.22,-5.68,871.49,31.19
5029723,-0.04,-0.04,1.36,-5.8,-1.16,-5.8,871.46,31.19
5029761,-0.05,-0.04,1.36,-6.16,-0.37,-5.8,871.45,31.2
5029811,-0.03,-0.03,1.36,-6.35,0.37,-5.62,871.47,31.19
5029849,-0.02,-0.03,1.46,-6.1,0.06,-5.62,871.51,31.21
5029888,-0.03,-0.04,1.35,-5.98,0.79,-5.55,871.49,31.2
5029926,-0.03,-0.03,1.41,-5.62,0.06,-5.49,871.48,31.2
5029964,-0.02,-0.06,1.33,-4.94,-0.67,-5.43,871.43,31.21
5030002,-0.03,-0.05,1.35,-4.88,-3.6,-5.31,871.43,31.21
5030040,-0.03,-0.05,1.34,-4.52,-3.17,-5.31,871.43,31.2
5030078,-0.03,-0.05,1.21,-4.33,-3.97,-5.25,871.45,31.21
5030117,-0.01,-0.05,1.23,-4.09,-4.52,-5.31,871.44,31.2
5030166,-0.05,-0.06,1.13,-4.03,-4.76,-5.0,871.4,31.18
5030205,-0.03,-0.07,1.13,-3.54,-3.05,-5.07,871.31,31.19
5030243,-0.03,-0.07,1.1,-3.54,-3.11,-5.13,871.38,31.2
5030281,-0.06,-0.06,1.12,-3.3,-2.44,-5.31,871.4,31.2
5030319,-0.05,-0.06,1.14,-3.05,-0.92,-5.19,871.36,31.19
5030357,-0.04,-0.05,1.16,-2.62,0.24,-5.31,871.37,31.19
5030395,-0.05,-0.05,1.15,-2.44,1.4,-5.37,871.35,31.19
5030433,-0.06,-0.05,1.16,-2.32,2.01,-5.31,871.41,31.19
5030472,-0.04,-0.07,1.14,-1.77,3.17,-5.13,871.36,31.2
5030510,-0.05,-0.06,1.15,-1.71,3.91,-5.25,871.35,31.2
5030560,-0.05,-0.05,1.1,-1.59,5.19,-5.19,871.35,31.18
5030598,-0.04,-0.05,1.1,-1.59,5.0,-5.07,871.26,31.19
5030636,-0.03,-0.06,1.09,-1.65,5.49,-4.94,871.3,31.2
5030674,-0.05,-0.07,1.07,-1.28,5.49,-4.88,871.28,31.2
5030712,-0.04,-0.06,1.07,-1.34,5.19,-4.76,871.26,31.19
5030750,-0.03,-0.06,1.05,-0.85,6.04,-4.64,871.24,31.2
5030789,-0.03,-0.05,1.05,-0.73,5.74,-4.46,871.26,31.2
5030827,-0.04,-0.06,1.05,-0.67,5.31,-4.39,871.25,31.2
5030865,-0.04,-0.06,1.02,-0.61,5.62,-4.39,871.21,31.2
5030915,-0.03,-0.05,1.04,-0.79,5.25,-4.21,871.19,31.19
5030953,-0.04,-0.05,1.02,-0.67,5.25,-4.09,871.11,31.19
5030991,-0.04,-0.07,1.03,-0.61,5.55,-4.09,871.18,31.19
5031029,-0.05,-0.06,1.04,-0.31,5.25,-3.85,871.16,31.19
5031068,-0.02,-0.06,1.03,-0.55,4.94,-3.78,871.12,31.19
5031106,-0.02,-0.05,1.02,-0.43,4.7,-3.66,871.14,31.19
5031144,-0.03,-0.05,1.0,-0.49,4.21,-3.42,871.12,31.19
5031182,-0.03,-0.06,0.98,-0.37,3.66,-3.3,871.01,31.19
5031220,-0.01,-0.07,0.98,-0.55,3.91,-3.3,871.03,31.19
5031270,-0.02,-0.07,0.96,-0.31,3.11,-3.17,871.04,31.18
5031308,-0.01,-0.08,0.93,-0.43,2.99,-3.17,871.04,31.19
5031347,0.01,-0.07,0.97,-0.37,2.26,-3.11,870.98,31.19
5031385,-0.01,-0.08,0.89,-0.55,2.08,-3.05,871.03,31.19
5031423,-0.01,-0.06,0.95,-0.55,0.79,-3.11,871.02,31.2
5031461,0.0,-0.07,0.9,-0.31,1.89,-3.23,871.03,31.2
5031499,-0.0,-0.08,0.91,-0.06,0.67,-3.17,871.01,31.19
5031537,-0.01,-0.07,0.95,0.18,0.79,-3.36,870.97,31.18
5031575,-0.01,-0.08,0.88,0.37,0.73,-3.42,870.91,31.19
5031614,-0.0,-0.06,0.93,0.31,0.49,-3.42,870.88,31.19
5031663,0.02,-0.06,0.98,0.18,-0.43,-3.48,870.9,31.19
5031702,-0.03,-0.07,1.01,0.12,-0.18,-3.42,870.83,31.19
5031740,0.03,-0.07,0.98,-0.73,-0.73,-3.42,870.84,31.18
5031778,0.02,-0.04,1.16,-0.92,-1.89,-3.6,870.83,31.19
5031816,0.03,-0.06,1.06,-1.16,-0.24,-3.72,870.84,31.19
5031854,0.02,-0.03,1.2,-1.28,-1.65,-3.72,870.87,31.19
5031892,0.02,-0.05,1.2,-1.1,0.73,-3.97,870.83,31.19
5031931,0.02,-0.04,1.22,-1.1,-1.71,-4.09,870.84,31.19
5031969,0.02,-0.05,1.24,-0.98,-0.73,-4.21,870.85,31.2
5032044,0.03,-0.04,1.2,-0.43,-0.49,-4.7,870.79,31.17
5032083,0.04,-0.05,1.16,-0.37,-1.04,-4.82,870.84,31.17
5032121,0.01,-0.05,1.19,-0.24,-0.55,-5.0,870.84,31.18
5032210,0.02,-0.04,1.17,0.12,0.55,-5.43,870.75,31.14
5032249,0.01,-0.05,1.1,0.43,1.4,-5.68,870.8,31.17
5032287,0.0,-0.05,1.12,0.49,0.43,-5.98,870.76,31.17
5032325,0.02,-0.06,1.11,0.67,1.65,-6.1,870.77,31.18
5032363,0.01,-0.06,1.08,0.73,1.83,-6.29,870.76,31.17
5032401,0.0,-0.04,1.08,0.98,1.95,-6.23,870.67,31.17
5032439,0.02,-0.05,1.02,1.1,2.26,-6.53,870.72,31.18
5032489,0.0,-0.04,1.07,1.04,1.65,-6.77,870.7,31.18
5032527,0.01,-0.06,1.03,0.73,1.71,-6.77,870.69,31.18
5032565,0.01,-0.04,1.1,0.37,1.16,-7.08,870.72,31.18
5032603,0.02,-0.04,1.07,0.37,1.83,-7.14,870.74,31.19
5032642,0.0,-0.04,1.09,0.37,0.61,-7.2,870.77,31.19
5032680,0.0,-0.06,1.1,0.43,1.04,-7.14,870.71,31.19
5032718,0.0,-0.05,1.08,0.37,1.1,-7.45,870.74,31.2
5032756,-0.02,-0.05,1.07,0.43,1.28,-7.51,870.76,31.19
5032794,0.01,-0.05,1.03,0.43,1.34,-7.39,870.69,31.2
5032844,-0.0,-0.05,1.03,0.49,1.65,-7.75,870.74,31.2
5032882,-0.02,-0.06,0.99,0.55,1.65,-7.69,870.69,31.2
5032920,-0.02,-0.06,1.01,0.67,2.32,-7.75,870.68,31.2
5032958,-0.0,-0.06,0.98,0.31,2.93,-7.87,870.67,31.2
5032996,-0.02,-0.05,1.03,0.12,2.38,-7.87,870.68,31.19
5033035,-0.02,-0.07,0.95,0.43,2.69,-7.93,870.66,31.21
5033073,-0.01,-0.06,0.97,0.24,2.75,-7.93,870.68,31.2
5033111,-0.01,-0.05,0.92,0.12,2.87,-7.81,870.7,31.2
5033149,-0.02,-0.05,0.91,0.12,2.01,-7.75,870.69,31.2
5033187,-0.02,-0.06,0.92,0.31,2.38,-7.81,870.67,31.2
5033237,-0.01,-0.06,0.92,-0.18,2.62,-7.57,870.64,31.19
5033275,-0.02,-0.06,0.93,-0.31,2.75,-7.69,870.62,31.19
5033313,-0.01,-0.06,0.94,-0.31,2.26,-7.63,870.55,31.18
5033351,-0.02,-0.07,0.96,-0.24,2.87,-7.51,870.56,31.19
5033390,-0.03,-0.07,0.92,-0.31,2.93,-7.63,870.58,31.18
5033428,-0.02,-0.06,0.93,-0.79,2.99,-7.39,870.64,31.19
5033466,-0.03,-0.06,0.89,-1.28,3.6,-7.51,870.6,31.19
5033504,-0.01,-0.05,0.94,-1.53,3.23,-7.39,870.63,31.2
5033542,-0.03,-0.06,0.96,-1.46,4.09,-7.45,870.59,31.2
5033592,-0.02,-0.05,1.01,-1.77,3.54,-7.26,870.61,31.17
5033630,-0.04,-0.05,1.04,-1.59,3.78,-7.14,870.58,31.17
5033669,-0.03,-0.04,1.05,-1.53,3.78,-7.2,870.59,31.19
5033707,-0.03,-0.04,1.11,-1.04,4.15,-6.9,870.61,31.18
5033745,-0.03,-0.05,1.08,-1.22,2.99,-6.9,870.57,31.19
5033783,-0.03,-0.04,1.16,-1.34,3.11,-6.71,870.61,31.2
5033821,-0.03,-0.05,1.13,-1.22,4.03,-6.65,870.67,31.21
5033860,-0.03,-0.04,1.15,-1.28,4.21,-6.41,870.62,31.2
5033898,-0.04,-0.04,1.15,-0.98,3.48,-6.35,870.57,31.19
5033948,-0.04,-0.05,1.1,-0.79,4.03,-6.16,870.57,31.19
5033986,-0.03,-0.04,1.13,-0.92,2.99,-6.04,870.55,31.19
5034024,-0.05,-0.04,1.12,-0.98,2.81,-5.8,870.58,31.2
5034062,-0.04,-0.05,1.13,-1.16,3.72,-5.49,870.61,31.2
5034100,-0.05,-0.06,1.12,-1.04,4.33,-5.55,870.61,31.22
5034139,-0.04,-0.05,1.12,-1.16,3.85,-5.25,870.55,31.2
5034177,-0.03,-0.05,1.12,-1.04,3.78,-5.19,870.58,31.21
5034215,-0.04,-0.05,1.09,-1.04,3.72,-5.0,870.51,31.2
5034253,-0.04,-0.05,1.1,-0.73,4.21,-4.88,870.56,31.2
5034291,-0.03,-0.06,1.12,-0.55,4.15,-4.88,870.56,31.19
5034341,-0.06,-0.05,1.11,-0.37,4.82,-4.7,870.56,31.18
5034379,-0.06,-0.05,1.07,-0.55,4.46,-4.82,870.54,31.18
5034417,-0.04,-0.04,1.07,-0.85,5.13,-4.33,870.52,31.19
5034456,-0.02,-0.05,1.1,-0.92,4.7,-4.39,870.5,31.2
5034494,-0.04,-0.06,1.05,-1.28,4.7,-4.39,870.51,31.2
5034532,-0.05,-0.04,1.1,-1.22,4.33,-4.21,870.47,31.18
5034570,-0.04,-0.06,1.05,-1.04,4.88,-3.91,870.5,31.17
5034608,-0.04,-0.05,1.06,-0.98,4.03,-4.09,870.49,31.19
5034646,-0.03,-0.05,1.07,-1.22,3.97,-3.85,870.51,31.19
5034696,-0.05,-0.06,1.07,-1.28,4.39,-3.66,870.51,31.18
5034734,-0.03,-0.06,1.05,-1.22,5.55,-3.6,870.53,31.17
5034773,-0.04,-0.06,1.05,-1.28,5.31,-3.48,870.46,31.19
5034811,-0.04,-0.05,1.06,-1.28,4.64,-3.42,870.49,31.19
5034849,-0.02,-0.06,1.07,-1.16,4.39,-3.48,870.46,31.19
5034887,-0.02,-0.06,1.04,-1.22,4.33,-3.54,870.52,31.19
5034925,-0.01,-0.06,1.08,-0.67,4.21,-3.42,870.49,31.2
5034963,-0.03,-0.06,1.05,-0.61,3.6,-3.3,870.45,31.18
5035002,-0.02,-0.06,1.04,-0.55,3.23,-3.17,870.53,31.19
5035077,-0.03,-0.06,0.97,-0.55,2.62,-3.11,870.45,31.15
5035116,-0.03,-0.06,0.99,-0.55,3.05,-3.11,870.49,31.17
5035154,-0.03,-0.06,1.01,-0.67,3.11,-2.99,870.42,31.16
5035243,-0.03,-0.07,1.03,-0.37,3.85,-3.05,870.46,31.14
5035282,-0.02,-0.07,1.02,-0.67,3.91,-3.05,870.45,31.16
5035320,-0.03,-0.04,1.04,-0.06,3.48,-3.11,870.42,31.17
5035358,-0.04,-0.06,1.0,0.49,4.03,-3.11,870.43,31.16
5035396,-0.02,-0.08,0.96,0.55,3.97,-3.17,870.46,31.18
5035434,-0.01,-0.07,0.95,0.73,3.97,-3.36,870.37,31.17
5035472,-0.02,-0.07,0.9,0.85,4.27,-3.05,870.42,31.18
5035522,-0.02,-0.06,0.94,0.85,3.97,-3.36,870.48,31.18
5035560,0.01,-0.07,0.93,1.04,3.54,-3.23,870.45,31.17
5035598,-0.0,-0.07,0.89,0.79,3.36,-3.42,870.49,31.18
5035637,-0.01,-0.06,0.89,0.85,2.2,-3.42,870.51,31.18
5035675,-0.0,-0.09,0.83,0.79,2.99,-3.54,870.53,31.19
5035713,-0.0,-0.07,0.82,0.55,1.34,-3.54,870.5,31.18
5035751,-0.02,-0.07,0.82,0.67,1.16,-3.66,870.43,31.19
5035789,-0.01,-0.07,0.74,0.31,0.73,-3.66,870.48,31.19
5035827,-0.02,-0.07,0.8,0.24,1.1,-3.97,870.35,31.19
5035877,-0.01,-0.08,0.78,0.55,0.24,-3.97,870.4,31.18
5035915,-0.02,-0.08,0.85,0.31,0.06,-4.09,870.35,31.19
5035953,-0.01,-0.09,0.79,-0.06,0.98,-4.27,870.37,31.19
5035992,-0.02,-0.06,0.89,0.0,-0.37,-4.21,870.41,31.19
5036030,-0.02,-0.07,0.87,-0.18,0.0,-4.27,870.34,31.18
5036068,-0.02,-0.08,0.88,-0.37,-1.04,-4.21,870.42,31.2
5036106,-0.02,-0.07,0.9,-0.24,-0.55,-4.52,870.35,31.2
5036144,-0.03,-0.06,0.92,-0.06,-1.59,-4.58,870.44,31.19
5036182,-0.04,-0.06,0.95,0.12,-1.71,-4.39,870.42,31.2
5036232,-0.05,-0.07,0.96,0.24,-1.77,-4.64,870.39,31.19
5036270,-0.04,-0.07,0.97,0.18,-1.53,-4.46,870.44,31.19
5036308,-0.05,-0.07,0.96,0.31,-2.08,-4.58,870.4,31.19
5036347,-0.05,-0.06,0.96,0.18,-1.95,-4.52,870.41,31.19
5036385,-0.04,-0.07,0.92,0.18,-1.95,-4.46,870.38,31.19
5036423,-0.04,-0.07,0.91,0.18,-2.56,-4.21,870.41,31.19
5036461,-0.06,-0.07,0.9,0.06,-3.3,-4.15,870.33,31.17
5036499,-0.05,-0.08,0.89,0.0,-3.48,-4.27,870.39,31.19
5036538,-0.05,-0.07,0.91,-0.31,-3.72,-4.03,870.39,31.18
5036576,-0.05,-0.06,0.9,-0.18,-4.15,-3.91,870.45,31.18
5036626,-0.06,-0.08,0.92,-0.55,-3.3,-3.85,870.42,31.17
5036664,-0.06,-0.07,0.94,-0.37,-4.03,-3.91,870.41,31.18
5036702,-0.05,-0.06,0.97,-0.37,-3.54,-3.54,870.42,31.19
5036740,-0.04,-0.07,0.95,-0.43,-3.3,-3.6,870.4,31.2
5036779,-0.05,-0.05,1.0,-0.31,-3.66,-3.78,870.42,31.19
5036817,-0.06,-0.06,0.96,-0.31,-3.11,-3.66,870.48,31.2
5036855,-0.05,-0.06,0.98,-0.67,-3.78,-3.48,870.43,31.19
5036893,-0.05,-0.06,1.02,-0.06,-3.66,-3.48,870.45,31.19
5036931,-0.06,-0.06,1.02,-0.24,-3.6,-3.54,870.47,31.19
5036981,-0.06,-0.06,1.05,-0.06,-3.42,-3.23,870.44,31.17
5037019,-0.06,-0.06,1.08,0.06,-3.05,-3.48,870.48,31.19
5037058,-0.06,-0.06,1.11,0.31,-2.75,-3.3,870.45,31.19
5037096,-0.05,-0.05,1.11,0.55,-3.36,-3.11,870.4,31.19
5037134,-0.08,-0.06,1.09,0.73,-3.05,-3.11,870.5,31.19
5037172,-0.06,-0.06,1.08,0.61,-3.42,-3.11,870.47,31.18
5037210,-0.05,-0.06,1.06,0.92,-4.21,-2.87,870.51,31.19
5037248,-0.08,-0.07,1.0,1.04,-4.46,-2.93,870.51,31.19
5037287,-0.06,-0.06,1.02,1.22,-4.46,-2.75,870.51,31.19
5037337,-0.06,-0.07,0.91,1.16,-4.64,-2.62,870.52,31.18
5037375,-0.08,-0.07,0.91,1.34,-5.43,-2.44,870.51,31.19
5037413,-0.08,-0.08,0.82,1.34,-5.19,-2.26,870.49,31.18
5037451,-0.08,-0.07,0.87,1.04,-6.96,-2.26,870.52,31.19
5037489,-0.07,-0.07,0.82,0.73,-5.62,-1.89,870.5,31.18
5037527,-0.08,-0.06,0.85,0.49,-6.96,-1.77,870.52,31.19
5037566,-0.09,-0.06,0.86,0.06,-5.98,-1.65,870.52,31.18
5037604,-0.08,-0.06,0.88,0.0,-6.23,-1.46,870.48,31.17
5037642,-0.07,-0.06,0.94,-0.18,-4.09,-1.4,870.56,31.19
5037692,-0.07,-0.06,0.93,0.18,-3.17,-1.28,870.65,31.17
5037730,-0.08,-0.05,0.99,0.43,-2.38,-1.16,870.68,31.18
5037768,-0.08,-0.07,0.98,0.98,-1.28,-1.1,870.68,31.17
5037806,-0.06,-0.06,1.04,1.1,-0.85,-0.92,870.67,31.17
5037844,-0.07,-0.06,1.04,1.46,0.31,-0.67,870.7,31.16
5037883,-0.06,-0.07,1.08,1.34,0.67,-0.49,870.75,31.17
5037921,-0.07,-0.06,1.07,1.59,1.83,-0.31,870.77,31.17
5037959,-0.06,-0.06,1.08,1.65,2.26,-0.31,870.77,31.16
5037997,-0.06,-0.06,1.07,1.77,2.32,0.06,870.78,31.17
5038035,-0.07,-0.06,1.09,2.08,1.46,0.06,870.81,31.17
5038111,-0.05,-0.07,1.04,2.56,1.83,0.98,870.87,31.15
5038149,-0.06,-0.06,1.07,2.62,1.1,0.92,870.78,31.14
5038188,-0.07,-0.07,1.03,2.69,1.22,0.98,870.83,31.17
5038277,-0.04,-0.07,0.99,2.93,0.92,1.4,870.81,31.13
5038315,-0.05,-0.06,1.02,3.36,1.34,1.4,870.85,31.15
5038354,-0.04,-0.08,0.93,3.6,1.89,1.34,870.84,31.15
5038392,-0.08,-0.07,0.93,3.78,0.37,1.59,870.85,31.14
5038430,-0.05,-0.08,0.87,3.85,1.95,1.95,870.91,31.16
5038468,-0.06,-0.08,0.86,3.66,0.49,2.14,870.86,31.15
5038506,-0.05,-0.07,0.83,3.6,1.59,2.14,870.95,31.16
5038556,-0.04,-0.09,0.82,3.54,0.18,2.14,870.85,31.14
5038594,-0.04,-0.08,0.8,3.17,1.46,2.44,870.92,31.17
5038632,-0.04,-0.07,0.73,3.23,1.16,2.56,870.95,31.17
5038670,-0.06,-0.08,0.74,3.17,2.01,2.69,870.89,31.16
5038709,-0.06,-0.08,0.74,3.05,1.22,2.81,870.96,31.17
5038747,-0.05,-0.08,0.8,3.11,1.89,2.81,870.98,31.16
5038785,-0.03,-0.09,0.76,2.75,1.04,3.05,870.95,31.17
5038823,-0.01,-0.07,0.81,2.5,0.85,3.05,870.95,31.16
5038861,-0.03,-0.1,0.77,2.44,2.01,3.17,871.01,31.17
5038911,-0.05,-0.08,0.82,2.01,0.12,3.36,871.02,31.17
5038949,-0.04,-0.08,0.8,2.01,0.18,3.3,871.01,31.16
5038988,-0.03,-0.09,0.8,1.89,1.65,3.11,871.05,31.17
5039026,-0.0,-0.09,0.81,2.14,1.4,3.23,871.03,31.18
5039064,-0.02,-0.08,0.86,2.08,1.46,3.23,871.01,31.16
5039102,-0.04,-0.08,0.86,2.32,2.01,3.23,871.01,31.16
5039140,-0.05,-0.08,0.94,2.44,1.83,3.3,871.03,31.17
5039178,-0.02,-0.1,0.94,2.44,2.62,3.23,871.04,31.16
5039216,-0.0,-0.09,0.91,1.95,1.83,2.99,870.99,31.16
5039255,-0.01,-0.08,0.97,2.08,2.32,2.99,870.96,31.16
5039304,-0.0,-0.09,0.94,1.95,2.01,2.99,871.02,31.15
5039343,-0.02,-0.08,1.0,1.89,2.32,2.87,871.07,31.17
5039381,-0.02,-0.09,1.0,2.2,1.77,3.11,871.1,31.17
5039419,-0.01,-0.09,1.01,2.14,0.61,2.81,871.12,31.17
5039457,-0.02,-0.09,0.95,2.5,0.92,2.75,871.16,31.18
5039495,-0.01,-0.09,0.93,2.62,-0.24,2.81,871.15,31.18
5039533,-0.01,-0.08,0.94,2.62,-0.85,2.75,871.19,31.17
5039572,-0.01,-0.1,0.91,2.81,-0.37,2.69,871.18,31.18
5039610,-0.03,-0.08,0.96,2.81,-1.65,2.75,871.19,31.17
5039660,-0.04,-0.1,0.95,2.81,-0.55,2.62,871.25,31.17
5039698,-0.02,-0.09,1.0,2.69,-0.43,2.56,871.25,31.19
5039736,-0.03,-0.08,0.99,2.87,1.1,2.5,871.25,31.17
5039774,-0.02,-0.08,0.99,2.87,0.55,2.62,871.21,31.17
5039812,-0.03,-0.08,0.98,2.75,2.5,2.44,871.29,31.19
5039850,-0.05,-0.08,0.96,2.56,3.42,2.38,871.32,31.18
5039889,-0.04,-0.08,0.99,2.56,3.91,2.56,871.3,31.18
5039927,-0.04,-0.08,0.99,3.3,4.52,2.32,871.34,31.17
5039965,-0.02,-0.08,0.97,3.42,5.86,2.38,871.36,31.19
5040003,-0.02,-0.08,0.91,3.78,6.84,2.44,871.35,31.17
5040053,-0.03,-0.08,0.92,4.15,6.41,2.56,871.35,31.18
5040091,-0.04,-0.09,0.89,4.33,6.35,2.69,871.32,31.16
5040129,-0.02,-0.09,0.87,4.03,5.8,2.62,871.41,31.17
5040167,-0.02,-0.09,0.87,3.85,6.35,2.44,871.41,31.17
5040206,0.0,-0.1,0.78,3.66,6.16,2.44,871.44,31.17
5040244,-0.01,-0.08,0.75,3.36,6.16,2.56,871.4,31.17
5040282,0.0,-0.1,0.7,3.42,7.02,2.5,871.41,31.16
5040320,-0.02,-0.1,0.65,3.17,6.35,2.32,871.48,31.17
5040358,-0.03,-0.09,0.64,2.75,7.2,2.08,871.5,31.16
5040396,0.0,-0.09,0.63,2.01,6.84,1.89,871.47,31.16
5040446,0.0,-0.09,0.72,1.16,6.1,1.71,871.5,31.14
5040484,0.01,-0.1,0.71,0.61,5.8,1.65,871.49,31.17
5040523,0.0,-0.09,0.81,0.55,4.27,1.65,871.54,31.17
5040561,-0.01,-0.1,0.78,0.18,4.88,1.53,871.55,31.17
5040599,-0.02,-0.1,0.82,-0.06,3.23,1.34,871.56,31.17
5040637,0.0,-0.09,0.82,-0.43,3.85,1.16,871.52,31.15
5040675,-0.01,-0.09,0.81,-0.49,2.5,1.16,871.59,31.17
5040714,-0.01,-0.09,0.89,-0.31,2.14,1.1,871.58,31.17
5040752,-0.01,-0.11,0.93,-0.55,2.2,0.85,871.64,31.17
5040802,-0.02,-0.08,1.05,-0.67,2.69,0.92,871.68,31.16
5040840,-0.01,-0.09,1.03,-0.31,3.05,0.67,871.69,31.17
5040878,-0.01,-0.09,1.12,-0.06,2.69,0.49,871.66,31.16
5040916,-0.01,-0.09,1.07,-0.12,3.6,0.43,871.78,31.18
5040954,-0.03,-0.08,1.1,0.12,2.75,0.43,871.73,31.17
5040993,-0.02,-0.08,1.08,0.55,3.36,0.37,871.72,31.17
5041031,-0.01,-0.07,1.09,0.61,2.99,0.18,871.74,31.17
5041069,-0.02,-0.08,1.11,0.49,3.36,0.24,871.72,31.19
5041107,-0.01,-0.09,1.1,0.85,3.17,0.12,871.77,31.17
5041145,-0.01,-0.08,1.17,0.85,3.3,0.0,871.81,31.19
5041222,-0.01,-0.08,1.19,0.98,3.36,-0.06,871.81,31.14
5041261,-0.02,-0.08,1.16,1.22,3.66,-0.24,871.75,31.16
5041299,-0.01,-0.08,1.17,1.34,3.3,-0.18,871.8,31.17
5041388,-0.0,-0.08,1.13,1.59,3.42,-0.31,871.76,31.13
5041426,-0.01,-0.08,1.12,1.77,3.6,-0.43,871.77,31.15
5041465,-0.02,-0.09,1.09,1.71,3.42,-0.43,871.87,31.15
5041503,-0.02,-0.08,1.1,1.71,3.23,-0.73,871.81,31.14
5041541,-0.01,-0.08,1.09,1.59,3.85,-0.67,871.77,31.14
5041579,-0.01,-0.08,1.07,1.59,3.85,-0.67,871.86,31.17
5041629,-0.02,-0.08,1.09,1.77,3.85,-0.92,871.89,31.15
5041667,-0.02,-0.09,1.08,2.14,4.03,-0.92,871.9,31.16
5041705,-0.02,-0.09,1.08,2.26,3.85,-0.98,871.87,31.15
5041743,-0.02,-0.08,1.06,2.38,3.78,-1.1,871.93,31.16
5041782,-0.02,-0.09,1.04,2.32,3.48,-1.04,871.92,31.15
5041820,-0.01,-0.08,1.03,2.44,3.42,-1.04,871.99,31.16
5041858,-0.02,-0.08,1.03,2.69,3.36,-1.1,871.95,31.17
5041896,-0.02,-0.09,0.97,2.56,3.05,-0.98,872.0,31.16
5041934,-0.03,-0.08,0.97,2.5,2.87,-1.1,871.96,31.16
5041973,-0.03,-0.09,0.94,2.2,3.05,-0.92,871.95,31.16
5042022,-0.03,-0.09,0.93,1.89,2.99,-0.92,872.03,31.16
5042061,-0.02,-0.09,0.93,1.77,3.66,-1.1,872.0,31.17
5042099,-0.03,-0.09,0.93,1.65,3.54,-0.98,872.04,31.17
5042137,-0.04,-0.09,0.96,1.77,3.78,-0.98,872.01,31.17
5042175,-0.04,-0.1,0.96,1.65,4.09,-1.04,872.01,31.17
5042213,-0.04,-0.09,0.97,1.59,4.39,-0.92,872.07,31.17
5042252,-0.04,-0.09,0.97,1.59,5.0,-0.98,872.11,31.19
5042290,-0.05,-0.09,0.95,1.46,4.82,-0.85,872.09,31.17
5042328,-0.04,-0.08,0.97,1.4,5.31,-0.85,872.12,31.19
5042378,-0.04,-0.09,0.97,1.22,5.49,-0.79,872.16,31.17
5042416,-0.03,-0.08,0.99,1.46,5.31,-0.79,872.14,31.17
5042454,-0.03,-0.07,1.0,1.65,5.07,-0.73,872.13,31.18
5042492,-0.03,-0.09,1.02,1.83,5.43,-0.49,872.16,31.18
5042530,-0.08,-0.09,0.99,1.71,5.13,-0.61,872.23,31.17
5042569,-0.05,-0.09,1.01,1.71,5.07,-0.49,872.23,31.17
5042607,-0.04,-0.08,1.01,1.53,5.37,-0.43,872.23,31.18
5042645,-0.04,-0.08,1.03,1.34,5.07,-0.49,872.27,31.16
5042683,-0.03,-0.09,1.0,1.1,4.46,-0.37,872.24,31.19
5042721,-0.04,-0.08,1.01,1.16,3.78,-0.24,872.23,31.18
5042771,-0.05,-0.09,0.96,1.04,2.87,-0.18,872.21,31.16
5042809,-0.06,-0.07,1.02,0.79,1.28,-0.06,872.33,31.18
5042847,-0.05,-0.09,0.97,0.73,2.01,0.0,872.26,31.16
5042886,-0.04,-0.08,1.01,0.67,1.95,0.0,872.24,31.18
5042924,-0.04,-0.09,0.99,0.55,2.5,0.12,872.28,31.18
5042962,-0.04,-0.09,1.01,0.61,1.4,0.31,872.3,31.18
5043000,-0.06,-0.09,1.01,0.73,1.59,0.12,872.25,31.16
5043038,-0.05,-0.09,1.0,0.55,1.59,0.31,872.32,31.2
5043076,-0.04,-0.09,1.04,0.79,1.53,0.12,872.4,31.18
5043115,-0.03,-0.09,1.03,0.73,2.26,0.18,872.38,31.18
5043164,-0.05,-0.08,1.08,1.04,0.92,0.31,872.38,31.17
5043203,-0.05,-0.1,1.02,1.04,1.59,0.12,872.33,31.17
5043241,-0.05,-0.08,1.08,0.85,0.24,0.31,872.38,31.17
5043279,-0.04,-0.09,1.05,1.1,0.98,0.31,872.36,31.17
5043317,-0.03,-0.1,0.99,0.85,1.16,0.37,872.38,31.17
5043355,-0.04,-0.07,1.07,0.79,1.1,0.12,872.47,31.17
5043393,-0.06,-0.09,1.02,0.98,1.22,0.31,872.44,31.18
5043432,-0.05,-0.09,1.05,0.79,1.1,0.43,872.46,31.18
5043470,-0.05,-0.09,1.01,0.92,2.26,0.24,872.53,31.17
5043519,-0.05,-0.08,1.0,0.85,2.01,0.31,872.51,31.17
5043558,-0.03,-0.09,0.95,0.85,3.72,0.31,872.59,31.17
5043596,-0.04,-0.09,0.97,0.85,2.56,0.43,872.55,31.17
5043634,-0.05,-0.09,1.0,0.98,3.36,0.49,872.52,31.15
5043672,-0.04,-0.1,0.99,0.98,2.56,0.37,872.56,31.16
5043710,-0.04,-0.09,1.02,0.79,3.23,0.43,872.6,31.17
5043749,-0.04,-0.09,1.04,0.92,2.75,0.67,872.63,31.17
5043787,-0.05,-0.09,1.02,1.04,2.38,0.67,872.55,31.18
5043825,-0.04,-0.08,1.04,0.85,2.08,0.73,872.6,31.18
5043863,-0.04,-0.09,1.02,0.73,2.62,0.79,872.67,31.18
5043913,-0.04,-0.08,1.09,0.85,1.4,0.73,872.63,31.16
5043951,-0.06,-0.09,1.11,0.79,1.1,0.92,872.61,31.16
5043989,-0.04,-0.09,1.11,0.61,1.34,1.1,872.67,31.16
5044027,-0.03,-0.09,1.09,0.73,1.22,0.98,872.63,31.16
5044065,-0.03,-0.08,1.12,0.61,0.92,1.04,872.68,31.17
5044104,-0.04,-0.09,1.07,0.61,1.22,1.04,872.7,31.16
5044142,-0.04,-0.09,1.08,0.67,1.4,1.22,872.73,31.16
5044180,-0.03,-0.09,1.05,0.92,1.16,1.04,872.74,31.17
5044218,-0.04,-0.08,1.07,0.85,0.73,1.28,872.79,31.17
5044256,-0.06,-0.09,1.04,0.85,0.98,1.22,872.73,31.15
5044332,-0.04,-0.08,1.05,0.73,1.46,1.28,872.81,31.13
5044370,-0.05,-0.09,1.07,1.04,1.77,1.28,872.82,31.17
5044408,-0.05,-0.08,1.06,1.28,2.2,1.28,872.83,31.17
5044498,-0.05,-0.08,1.06,2.14,3.3,1.46,872.87,31.12
5044536,-0.05,-0.09,1.0,2.26,4.82,1.53,872.84,31.13
5044574,-0.04,-0.08,1.03,2.56,4.88,1.71,872.9,31.13
5044612,-0.05,-0.08,1.04,2.93,5.0,1.71,872.85,31.14
5044651,-0.05,-0.08,1.02,2.99,5.13,1.77,872.83,31.15
5044689,-0.04,-0.08,1.0,2.93,5.49,2.01,872.86,31.16
5044738,-0.05,-0.09,0.96,2.99,4.94,2.14,872.91,31.15
5044777,-0.04,-0.08,0.96,2.99,4.82,2.26,872.93,31.15
5044815,-0.05,-0.08,0.94,2.81,4.7,2.32,872.9,31.15
5044853,-0.04,-0.09,0.93,2.44,4.52,2.56,872.94,31.16
5044891,-0.04,-0.09,0.95,2.44,4.33,2.44,872.98,31.16
5044929,-0.05,-0.09,0.94,2.2,4.09,2.5,872.97,31.17
5044968,-0.03,-0.09,0.95,2.08,4.03,2.5,872.94,31.15
5045006,-0.04,-0.08,0.95,1.95,3.91,2.56,872.95,31.16
5045044,-0.03,-0.09,0.96,1.95,3.6,2.69,872.95,31.15
5045082,-0.04,-0.09,0.96,1.83,3.54,2.75,872.99,31.16
5045132,-0.03,-0.09,0.96,1.77,3.48,2.62,873.04,31.16
5045170,-0.04,-0.09,0.99,1.46,3.42,2.56,873.0,31.16
5045208,-0.03,-0.09,0.99,1.53,3.3,2.5,873.05,31.15
5045246,-0.02,-0.09,1.02,1.16,3.48,2.56,873.03,31.16
5045285,-0.04,-0.08,1.02,1.34,3.78,2.56,873.12,31.16
5045323,-0.04,-0.08,1.04,1.22,4.03,2.69,873.03,31.17
5045361,-0.04,-0.09,1.05,1.28,3.78,2.56,873.03,31.15
5045399,-0.04,-0.08,1.06,1.22,3.48,2.62,873.12,31.18
5045437,-0.02,-0.09,1.06,1.4,3.23,2.5,873.14,31.18
5045475,-0.01,-0.09,1.07,0.98,3.42,2.62,873.16,31.17
