timestamp,acc_x,acc_y,acc_z,rot_x,rot_y,rot_z,qfe,temp,Unnamed: 10
6355515,-0.02,-0.07,1.01,1.53,3.17,1.89,939.76,20.93,
6355553,-0.03,-0.07,1.02,1.71,2.81,1.95,939.75,20.92,
6355591,-0.03,-0.07,1.03,1.65,2.75,2.08,939.76,20.92,
6355630,-0.03,-0.07,1.05,1.28,2.69,2.01,939.8,20.93,
6355668,-0.02,-0.07,1.04,1.28,2.75,2.01,939.79,20.92,
6355706,-0.02,-0.07,1.05,1.1,2.38,1.95,939.82,20.92,
6355756,-0.02,-0.07,1.06,0.85,2.93,2.2,939.76,20.9,
6355795,-0.03,-0.07,1.06,0.79,2.87,2.2,939.83,20.91,
6355833,-0.02,-0.07,1.07,0.61,2.75,2.38,939.87,20.93,
6355871,-0.02,-0.07,1.04,0.43,2.75,2.26,939.89,20.9,
6355910,-0.02,-0.06,1.02,0.37,4.15,2.26,939.86,20.92,
6355948,-0.02,-0.07,1.04,0.67,3.66,2.5,939.84,20.92,
6355986,-0.03,-0.07,1.06,1.04,3.72,2.5,939.89,20.92,
6356025,-0.03,-0.07,1.07,0.61,3.48,2.56,939.92,20.92,
6356063,-0.02,-0.06,1.13,0.85,3.3,2.5,939.92,20.93,
6356101,-0.01,-0.07,1.12,0.92,2.87,2.62,939.94,20.93,
6356151,-0.03,-0.06,1.14,0.98,2.14,2.69,939.96,20.91,
6356189,-0.02,-0.07,1.15,1.04,2.2,2.69,939.97,20.93,
6356228,-0.01,-0.06,1.13,1.22,1.95,2.81,939.94,20.93,
6356266,-0.02,-0.06,1.14,1.4,1.83,2.69,940.06,20.93,
6356304,-0.03,-0.07,1.09,1.4,2.14,2.81,940.03,20.92,
6356343,-0.02,-0.06,1.12,1.77,1.89,2.87,940.07,20.92,
6356381,-0.01,-0.07,1.03,1.16,1.59,2.75,940.01,20.92,
6356419,-0.03,-0.06,1.09,1.65,0.73,2.81,940.07,20.93,
6356457,-0.02,-0.08,1.07,1.65,2.08,2.99,940.03,20.92,
6356507,-0.03,-0.07,1.11,1.95,2.2,3.17,940.06,20.92,
6356546,-0.01,-0.07,1.07,1.04,2.99,2.75,940.05,20.92,
6356584,-0.02,-0.07,1.1,0.98,2.56,2.99,940.07,20.92,
6356622,-0.02,-0.07,1.12,0.55,3.6,2.87,940.07,20.92,
6356661,-0.03,-0.07,1.13,0.85,2.87,2.75,940.12,20.92,
6356699,-0.01,-0.07,1.15,0.92,3.05,2.81,940.11,20.92,
6356737,0.0,-0.07,1.1,0.67,3.42,2.69,940.11,20.93,
6356775,-0.02,-0.06,1.13,0.92,2.75,2.75,940.15,20.93,
6356814,-0.01,-0.07,1.12,0.92,2.81,2.87,940.11,20.92,
6356852,-0.0,-0.07,1.14,1.1,1.4,2.69,940.07,20.93,
6356928,-0.01,-0.06,1.15,0.98,0.79,3.11,940.21,20.9,
6356966,0.0,-0.07,1.16,0.67,0.85,2.69,940.14,20.9,
6357005,-0.02,-0.07,1.16,0.98,0.73,2.62,940.19,20.89,
6357094,-0.02,-0.07,1.1,0.55,2.26,2.62,940.14,20.88,
6357133,0.0,-0.07,1.1,0.61,2.5,2.62,940.18,20.9,
6357171,-0.01,-0.08,1.09,0.55,2.44,2.44,940.18,20.89,
6357209,-0.01,-0.07,1.07,0.67,2.87,2.32,940.19,20.91,
6357248,0.02,-0.07,1.1,1.1,3.11,2.08,940.22,20.9,
6357286,-0.01,-0.08,1.0,0.79,4.52,2.14,940.27,20.91,
6357324,-0.01,-0.07,1.03,1.4,4.33,1.95,940.21,20.9,
6357374,-0.0,-0.08,0.93,0.98,6.77,1.59,940.22,20.9,
6357413,-0.01,-0.06,0.99,1.59,5.37,1.46,940.22,20.91,
6357451,0.01,-0.09,0.88,1.4,8.18,1.46,940.23,20.91,
6357489,0.01,-0.07,0.9,1.4,8.3,0.98,940.24,20.92,
6357527,0.01,-0.08,0.88,2.01,8.24,0.98,940.24,20.91,
6357566,-0.0,-0.08,0.85,1.16,7.93,0.61,940.23,20.92,
6357604,0.01,-0.08,0.86,1.28,9.09,0.49,940.24,20.92,
6357642,-0.01,-0.09,0.85,0.67,9.16,0.43,940.23,20.92,
6357681,0.01,-0.09,0.97,1.4,7.26,0.18,940.22,20.92,
6357719,-0.01,-0.09,0.99,0.37,8.48,0.24,940.26,20.92,
6357769,0.01,-0.06,1.14,0.61,6.53,0.12,940.29,20.91,
6357807,0.01,-0.08,1.05,-0.12,6.77,0.12,940.31,20.92,
6357845,-0.04,-0.05,1.12,-0.18,4.03,0.12,940.29,20.91,
6357884,-0.02,-0.09,1.11,-0.24,4.27,0.12,940.27,20.92,
6357922,-0.01,-0.07,1.1,-0.67,2.75,-0.06,940.29,20.91,
6357960,-0.01,-0.06,1.12,0.31,1.95,0.0,940.32,20.92,
6357998,-0.03,-0.08,1.0,-0.61,2.93,0.0,940.26,20.92,
6358037,-0.01,-0.06,1.09,0.0,1.71,-0.12,940.32,20.92,
6358075,-0.02,-0.08,1.03,-0.37,2.56,-0.31,940.35,20.92,
6358125,-0.04,-0.06,1.09,0.49,1.83,-0.37,940.31,20.9,
6358163,-0.01,-0.08,1.08,0.31,3.48,-0.43,940.35,20.92,
6358201,-0.01,-0.07,1.11,0.67,2.44,-0.61,940.36,20.92,
6358240,-0.02,-0.08,1.06,0.73,2.38,-0.55,940.34,20.92,
6358278,-0.04,-0.06,1.08,0.92,1.71,-0.61,940.35,20.92,
6358316,-0.02,-0.07,1.06,1.16,2.75,-0.79,940.38,20.92,
6358355,-0.03,-0.07,0.98,0.92,1.89,-0.73,940.36,20.92,
6358393,-0.04,-0.07,1.05,1.65,1.28,-0.85,940.47,20.92,
6358431,-0.02,-0.08,0.98,1.34,2.62,-0.85,940.42,20.92,
6358469,-0.02,-0.08,1.03,2.01,1.89,-1.1,940.44,20.93,
6358519,-0.02,-0.08,0.95,2.2,1.95,-1.04,940.42,20.91,
6358558,-0.05,-0.07,0.98,2.75,1.46,-1.04,940.37,20.92,
6358596,-0.03,-0.07,0.94,2.44,2.01,-1.1,940.44,20.92,
6358634,-0.03,-0.08,0.97,2.81,0.55,-1.22,940.42,20.93,
6358673,-0.04,-0.08,0.97,2.75,0.24,-0.92,940.42,20.92,
6358711,-0.03,-0.08,0.98,2.87,-0.49,-1.04,940.44,20.92,
6358749,-0.03,-0.08,1.01,2.75,-0.43,-1.1,940.4,20.92,
6358787,-0.03,-0.07,1.01,2.62,-1.34,-0.92,940.4,20.93,
6358826,-0.05,-0.08,1.01,3.05,-2.14,-0.85,940.42,20.93,
6358876,-0.03,-0.07,1.01,2.93,-2.38,-0.98,940.38,20.91,
6358914,-0.03,-0.07,1.03,2.87,-2.62,-0.85,940.41,20.93,
6358952,-0.04,-0.08,1.03,2.87,-3.42,-0.73,940.4,20.92,
6358990,-0.04,-0.09,1.06,2.69,-3.05,-0.79,940.35,20.93,
6359029,-0.06,-0.08,1.13,2.5,-3.17,-0.92,940.39,20.93,
6359067,-0.05,-0.08,1.07,2.08,-1.59,-0.85,940.4,20.93,
6359105,-0.05,-0.06,1.11,2.08,-1.46,-0.92,940.42,20.92,
6359144,-0.06,-0.08,1.06,2.14,0.55,-0.61,940.44,20.92,
6359182,-0.06,-0.08,1.04,2.14,1.34,-0.73,940.45,20.92,
6359232,-0.05,-0.08,1.08,2.38,3.36,-0.55,940.38,20.9,
6359270,-0.06,-0.07,1.06,2.62,3.3,-0.43,940.41,20.92,
6359308,-0.06,-0.07,1.05,2.56,4.7,-0.18,940.52,20.93,
6359347,-0.03,-0.09,1.06,2.69,5.13,-0.12,940.46,20.92,
6359385,-0.04,-0.09,0.99,2.5,5.62,0.0,940.49,20.93,
6359423,-0.04,-0.08,0.95,2.38,4.7,0.06,940.52,20.92,
6359462,-0.02,-0.07,0.92,2.14,4.58,0.06,940.45,20.93,
6359500,-0.03,-0.09,0.89,1.89,4.33,0.06,940.5,20.93,
6359538,-0.04,-0.09,0.9,1.95,4.03,0.37,940.49,20.92,
6359576,-0.05,-0.09,0.89,1.4,4.15,0.24,940.51,20.93,
6359627,-0.04,-0.08,0.93,1.46,3.97,0.31,940.47,20.92,
6359665,-0.03,-0.09,0.91,1.04,3.54,0.31,940.54,20.93,
6359703,-0.04,-0.09,0.95,1.46,3.23,0.37,940.48,20.92,
6359741,-0.03,-0.1,0.88,0.73,4.21,0.43,940.5,20.93,
6359780,-0.02,-0.07,0.94,0.92,1.89,0.43,940.48,20.92,
6359818,-0.06,-0.08,0.95,0.85,2.5,0.55,940.51,20.93,
6359856,-0.03,-0.09,0.96,0.49,2.62,0.49,940.48,20.93,
6359895,-0.03,-0.09,1.0,0.43,2.75,0.61,940.51,20.92,
6359933,-0.05,-0.09,0.99,0.0,2.99,0.73,940.52,20.93,
6359971,-0.03,-0.07,1.03,0.06,2.08,0.61,940.5,20.92,
6360047,-0.04,-0.08,1.05,-0.06,2.87,0.85,940.51,20.9,
6360085,-0.04,-0.09,1.16,-0.18,3.17,0.79,940.49,20.92,
6360124,-0.05,-0.09,1.12,-0.49,4.03,0.79,940.58,20.91,
6360214,-0.05,-0.07,1.24,-0.55,5.31,0.98,940.57,20.89,
6360252,-0.07,-0.08,1.23,0.0,4.94,1.28,940.55,20.9,
6360290,-0.03,-0.07,1.18,0.12,5.49,1.04,940.63,20.9,
6360329,-0.04,-0.07,1.13,0.49,5.68,1.22,940.61,20.9,
6360367,-0.04,-0.08,1.01,0.43,5.49,1.59,940.61,20.91,
6360405,-0.03,-0.06,0.95,1.59,4.09,1.59,940.64,20.91,
6360455,-0.05,-0.08,0.85,2.38,1.89,1.89,940.66,20.9,
6360494,-0.01,-0.07,0.92,3.23,0.37,1.77,940.62,20.92,
6360532,-0.01,-0.08,0.9,2.69,-0.24,1.89,940.6,20.92,
6360570,-0.02,-0.09,0.98,3.23,-2.69,1.95,940.58,20.91,
6360608,-0.05,-0.08,1.0,2.69,-2.26,1.83,940.61,20.94,
6360647,-0.04,-0.09,1.0,2.44,-0.67,1.89,940.62,20.92,
6360685,-0.02,-0.08,1.0,1.83,-0.31,1.53,940.69,20.93,
6360723,-0.05,-0.07,0.97,1.77,0.37,1.59,940.67,20.93,
6360762,-0.02,-0.06,1.0,1.77,1.71,1.46,940.68,20.93,
6360800,0.0,-0.09,1.0,2.01,2.81,1.1,940.66,20.92,
6360850,-0.04,-0.07,1.0,2.38,2.75,1.22,940.62,20.91,
6360888,-0.03,-0.09,1.02,2.5,2.81,1.46,940.71,20.92,
6360926,-0.05,-0.09,0.96,2.44,4.03,1.16,940.64,20.92,
6360965,-0.02,-0.08,1.0,2.32,3.54,1.04,940.58,20.92,
6361003,-0.01,-0.08,0.99,2.26,3.85,1.34,940.65,20.93,
6361041,-0.03,-0.09,0.91,1.95,3.42,1.1,940.65,20.93,
6361079,-0.04,-0.08,0.95,2.38,3.6,1.1,940.64,20.92,
6361118,-0.02,-0.09,0.94,1.89,5.13,1.16,940.64,20.92,
6361156,-0.03,-0.09,0.98,2.5,4.64,0.92,940.68,20.93,
6361206,-0.03,-0.08,0.9,1.59,4.64,0.85,940.64,20.92,
6361244,-0.04,-0.08,0.97,2.08,4.27,0.98,940.62,20.92,
6361283,-0.04,-0.09,0.89,1.28,4.82,1.1,940.65,20.92,
6361321,-0.01,-0.07,0.98,2.26,3.48,0.98,940.69,20.92,
6361359,-0.05,-0.09,0.83,1.65,4.76,1.22,940.71,20.93,
6361397,-0.04,-0.07,0.83,2.26,2.56,1.28,940.7,20.93,
6361436,-0.0,-0.08,0.81,2.75,1.28,1.04,940.69,20.93,
6361474,-0.0,-0.08,0.78,2.08,0.98,1.04,940.67,20.92,
6361512,-0.02,-0.09,0.84,2.56,0.37,1.34,940.7,20.94,
6361551,-0.0,-0.09,0.82,1.77,-0.06,1.1,940.74,20.93,
6361601,-0.06,-0.08,0.9,1.89,-0.55,1.16,940.77,20.93,
6361639,-0.02,-0.08,0.95,1.59,-0.79,1.1,940.72,20.92,
6361677,0.0,-0.08,1.0,2.2,-1.28,0.61,940.7,20.92,
6361715,-0.03,-0.08,0.98,1.71,-0.43,0.67,940.73,20.93,
6361754,-0.02,-0.08,0.98,1.89,-0.24,0.73,940.78,20.93,
6361792,-0.02,-0.07,0.99,1.46,0.43,0.55,940.81,20.93,
6361830,-0.02,-0.08,0.99,1.4,0.43,0.73,940.72,20.92,
6361869,-0.03,-0.09,0.99,1.22,0.73,0.55,940.78,20.93,
6361907,-0.04,-0.07,1.0,1.4,0.67,0.43,940.82,20.93,
6361945,-0.03,-0.07,1.01,1.22,1.22,0.61,940.8,20.93,
6361995,-0.0,-0.08,1.02,1.28,1.89,0.31,940.79,20.92,
6362033,-0.02,-0.08,1.01,1.4,3.11,0.37,940.86,20.93,
6362072,-0.01,-0.09,1.01,1.65,3.36,0.31,940.8,20.92,
6362110,-0.01,-0.07,0.98,1.53,3.05,0.24,940.84,20.93,
6362148,-0.02,-0.07,0.97,1.71,3.72,0.18,940.79,20.92,
6362187,-0.02,-0.08,0.95,1.71,3.91,0.31,940.83,20.93,
6362225,-0.01,-0.09,0.96,2.01,3.85,0.06,940.83,20.92,
6362263,0.0,-0.07,0.95,1.83,3.3,0.06,940.88,20.93,
6362301,-0.01,-0.08,0.97,2.08,2.62,0.18,940.89,20.94,
6362351,0.0,-0.08,0.98,1.89,1.53,0.06,940.84,20.92,
6362390,-0.02,-0.08,1.0,1.89,1.1,-0.12,940.87,20.92,
6362428,-0.01,-0.08,0.98,1.4,0.98,0.0,940.82,20.92,
6362466,-0.01,-0.07,1.02,1.4,-0.06,0.0,940.89,20.93,
6362504,-0.01,-0.08,1.04,1.22,-0.37,0.12,940.87,20.93,
6362543,-0.02,-0.08,1.1,1.53,-1.1,-0.24,940.84,20.92,
6362581,-0.03,-0.07,1.15,1.28,-1.22,-0.12,940.85,20.93,
6362619,-0.01,-0.06,1.19,1.53,-1.28,-0.18,940.91,20.93,
6362658,-0.02,-0.07,1.15,1.28,-0.24,-0.37,940.88,20.93,
6362696,-0.04,-0.07,1.16,1.46,-0.55,-0.31,940.91,20.93,
6362746,-0.03,-0.08,1.15,1.34,0.24,-0.55,940.91,20.92,
6362784,-0.03,-0.07,1.16,1.4,-15.5,-0.43,940.89,20.92,
6362822,-0.04,-0.07,1.14,1.53,0.31,-0.49,940.86,20.93,
6362861,-0.05,-0.07,1.14,1.95,0.43,-0.31,940.9,20.94,
6362899,-0.05,-0.09,1.1,2.08,0.12,-0.31,940.94,20.93,
6362937,-0.05,-0.07,1.09,2.01,-0.24,-0.24,940.9,20.93,
6362976,-0.06,-0.07,1.08,2.14,0.37,-0.18,940.99,20.94,
6363014,-0.05,-0.07,1.06,2.14,1.46,0.0,940.87,20.92,
6363052,-0.05,-0.07,1.06,2.38,2.08,0.06,940.92,20.93,
6363128,-0.06,-0.07,1.03,2.75,2.99,0.18,940.92,20.91,
6363167,-0.06,-0.08,1.0,2.99,4.27,0.37,940.92,20.92,
6363205,-0.05,-0.08,0.95,3.05,4.88,0.37,940.91,20.92,
6363295,-0.06,-0.08,0.86,3.17,5.92,0.61,940.92,20.89,
6363333,-0.06,-0.07,0.86,3.36,5.86,0.92,940.87,20.9,
6363371,-0.05,-0.08,0.84,3.11,6.16,1.04,940.87,20.9,
6363409,-0.06,-0.08,0.85,2.75,5.37,1.16,940.93,20.9,
6363448,-0.06,-0.08,0.86,2.75,5.31,1.28,940.86,20.92,
6363486,-0.05,-0.08,0.84,2.44,4.82,1.65,940.88,20.92,
6363524,-0.06,-0.08,0.86,2.5,4.76,1.71,940.94,20.92,
6363574,-0.05,-0.07,0.87,2.26,4.39,2.14,940.9,20.92,
6363613,-0.06,-0.08,0.88,2.26,4.52,2.14,940.92,20.92,
6363651,-0.03,-0.08,0.91,2.08,4.09,2.32,940.97,20.92,
6363689,-0.05,-0.08,0.92,2.14,3.54,2.62,940.92,20.92,
6363727,-0.04,-0.07,0.96,1.89,2.75,2.81,940.92,20.92,
6363766,-0.04,-0.08,0.96,2.08,2.5,2.87,940.98,20.92,
6363804,-0.05,-0.07,0.95,1.28,2.32,3.17,940.95,20.93,
6363842,-0.05,-0.07,1.02,1.95,2.26,3.48,940.96,20.93,
6363881,-0.02,-0.08,0.94,1.04,2.5,3.48,941.01,20.93,
6363919,-0.05,-0.06,0.98,1.65,1.04,3.36,940.94,20.93,
6363969,-0.04,-0.09,0.93,1.34,2.2,3.6,940.99,20.92,
6364007,-0.03,-0.07,1.0,1.83,1.28,3.42,940.96,20.92,
6364045,-0.04,-0.08,0.97,1.59,1.95,3.78,940.98,20.93,
6364084,-0.03,-0.08,0.99,1.4,1.34,3.72,941.04,20.93,
6364122,-0.04,-0.08,1.01,1.04,2.5,3.66,941.02,20.93,
6364160,-0.04,-0.08,1.04,1.04,2.5,3.91,941.03,20.93,
6364198,-0.02,-0.08,1.05,1.22,2.14,3.85,941.08,20.93,
6364237,-0.02,-0.08,1.01,1.22,2.2,3.66,941.04,20.94,
6364275,-0.03,-0.06,1.05,1.4,2.01,3.97,941.08,20.95,
6364325,-0.0,-0.08,1.01,1.34,2.08,4.15,941.04,20.92,
6364363,-0.02,-0.07,1.07,1.65,0.55,3.91,941.06,20.94,
6364402,-0.05,-0.08,1.02,1.28,1.22,4.21,941.05,20.93,
6364440,0.0,-0.07,1.09,1.4,-0.18,3.91,941.05,20.94,
6364478,-0.02,-0.09,1.08,1.46,0.24,3.85,941.08,20.93,
6364516,-0.03,-0.08,1.05,0.98,-0.18,4.03,941.1,20.93,
6364554,-0.04,-0.07,1.07,1.53,0.31,3.97,941.07,20.94,
6364593,-0.01,-0.07,1.01,0.61,0.98,3.66,941.08,20.93,
6364631,-0.05,-0.06,1.08,1.16,-0.61,3.91,941.07,20.94,
6364669,-0.04,-0.08,1.04,0.37,0.73,3.97,941.06,20.93,
6364719,-0.03,-0.07,1.15,0.73,0.61,3.85,941.09,20.94,
6364757,-0.01,-0.07,1.14,-15.62,1.22,4.09,941.08,20.94,
6364796,-0.03,-0.05,1.19,0.31,0.06,4.09,941.09,20.93,
6364834,-0.03,-0.07,1.15,-0.31,2.08,4.15,941.12,20.94,
6364872,-0.03,-0.05,1.2,0.0,1.04,4.33,941.07,20.93,
6364910,-0.04,-0.08,1.18,0.06,1.04,4.46,941.12,20.95,
6364949,-0.01,-0.07,1.12,-0.43,1.04,4.46,941.09,20.94,
6364987,-0.01,-0.06,1.24,0.12,0.37,4.33,941.09,20.93,
6365025,-0.01,-0.07,1.16,-0.24,0.55,4.58,941.1,20.94,
6365075,-0.02,-0.07,1.21,0.49,-1.04,4.58,941.14,20.93,
6365113,-0.02,-0.07,1.16,0.06,0.24,4.64,941.13,20.92,
6365152,-0.0,-0.04,1.25,0.85,-1.46,4.58,941.15,20.93,
6365190,0.0,-0.07,1.21,1.04,-0.98,4.7,941.09,20.93,
6365228,-0.02,-0.05,1.3,1.95,-2.38,4.46,941.17,20.94,
6365267,0.01,-0.06,1.38,2.32,-0.37,4.52,941.09,20.94,
6365305,0.01,-0.07,1.29,1.77,0.67,4.39,941.18,20.94,
6365343,-0.02,-0.05,1.35,2.62,0.31,4.52,941.15,20.93,
6365381,-0.01,-0.07,1.23,2.62,3.23,3.91,941.09,20.93,
6365420,0.02,-0.07,1.22,2.99,3.17,3.72,941.13,20.94,
6365470,0.0,-0.07,1.14,3.23,4.52,3.85,941.12,20.92,
6365508,-0.01,-0.09,1.05,3.48,4.94,3.78,941.17,20.94,
6365546,0.01,-0.08,0.96,2.99,5.86,3.42,941.1,20.94,
6365585,0.01,-0.07,0.95,3.36,5.25,3.23,941.08,20.93,
6365623,0.02,-0.1,0.87,3.11,5.49,3.48,941.06,20.93,
6365661,0.01,-0.08,0.77,2.32,4.58,3.23,941.1,20.94,
6365700,0.02,-0.07,0.81,2.14,3.66,3.23,941.09,20.93,
6365738,0.01,-0.09,0.75,1.16,3.97,2.99,941.04,20.93,
6365776,0.01,-0.09,0.82,0.61,2.56,2.81,941.11,20.94,
6365814,-0.0,-0.09,0.88,0.67,2.75,2.69,941.06,20.94,
6365864,0.0,-0.09,0.9,-0.12,4.27,2.56,941.05,20.94,
6365903,-0.01,-0.08,0.95,-0.12,3.85,2.56,941.1,20.94,
6365941,-0.01,-0.08,1.0,-0.37,5.19,2.5,941.04,20.94,
6365979,0.0,-0.09,1.04,-0.18,6.23,2.2,941.07,20.94,
6366018,-0.01,-0.07,1.11,0.24,5.98,2.26,941.05,20.94,
6366056,-0.01,-0.09,1.06,0.12,6.53,2.32,941.08,20.94,
6366094,0.0,-0.09,0.99,0.24,6.77,2.08,941.06,20.94,
6366132,0.03,-0.08,0.88,0.31,6.16,1.89,941.06,20.94,
6366170,-0.0,-0.08,0.79,0.79,4.21,2.32,941.11,20.95,
6366209,-0.01,-0.08,0.73,1.16,2.69,2.14,941.07,20.95,
6366286,0.02,-0.08,0.74,0.85,0.85,1.89,941.06,20.92,
6366324,0.01,-0.09,0.83,1.16,0.49,2.08,941.12,20.93,
6366363,-0.0,-0.1,0.92,1.53,1.16,1.77,941.08,20.93,
6366453,0.0,-0.09,0.97,1.65,2.2,1.4,941.05,20.9,
6366491,-0.02,-0.09,0.97,1.89,2.81,1.28,941.08,20.91,
6366529,-0.0,-0.08,0.96,1.53,5.0,1.1,941.09,20.91,
6366567,0.02,-0.07,1.03,1.59,4.15,0.98,941.1,20.92,
6366605,-0.01,-0.07,1.06,1.83,4.21,0.85,941.08,20.93,
6366644,-0.01,-0.08,1.05,1.4,3.66,0.98,941.09,20.93,
6366694,-0.0,-0.09,1.11,1.95,3.72,0.98,941.12,20.91,
6366732,-0.03,-0.08,1.03,1.59,3.3,0.98,941.07,20.93,
6366770,-0.01,-0.08,1.05,2.44,3.3,0.85,941.11,20.92,
6366808,-0.01,-0.08,0.94,1.83,3.42,0.73,941.11,20.93,
6366847,-0.01,-0.07,0.98,2.38,2.93,0.85,941.1,20.93,
6366885,0.01,-0.09,0.88,1.65,4.39,0.79,941.04,20.93,
6366923,0.02,-0.08,0.95,1.59,1.95,0.55,941.06,20.92,
6366962,-0.01,-0.09,0.92,1.65,3.97,0.43,941.08,20.93,
6367000,0.03,-0.08,0.99,1.59,2.69,0.37,941.06,20.94,
6367038,0.01,-0.09,0.99,1.95,3.97,0.43,941.1,20.94,
6367088,-0.02,-0.06,1.06,1.77,2.44,0.18,941.04,20.92,
6367126,-0.03,-0.1,1.01,2.38,5.49,0.18,941.12,20.93,
6367165,0.0,-0.08,1.02,1.89,3.97,-0.12,941.19,20.94,
6367203,0.0,-0.07,1.09,3.05,4.09,-0.12,941.13,20.95,
6367241,-0.02,-0.08,1.0,1.71,5.68,-0.37,941.19,20.93,
6367279,-0.02,-0.07,1.05,2.99,5.37,-0.43,941.06,20.93,
6367318,-0.02,-0.09,0.98,2.44,6.29,-0.31,941.06,20.93,
6367356,-0.01,-0.07,1.05,2.99,4.88,-0.61,941.09,20.94,
6367394,-0.02,-0.09,0.98,2.26,5.49,-0.61,941.1,20.94,
6367432,-0.01,-0.06,1.09,2.62,4.33,-0.49,941.08,20.94,
6367482,-0.01,-0.1,1.03,2.38,4.76,-0.24,941.08,20.93,
6367521,-0.02,-0.08,1.08,2.99,3.17,-0.37,941.1,20.94,
6367559,-0.03,-0.08,1.02,2.81,3.36,-0.24,941.08,20.93,
6367597,-0.03,-0.07,1.05,2.93,2.26,-0.31,941.09,20.94,
6367635,-0.01,-0.09,1.02,2.75,3.05,-0.49,941.06,20.93,
6367674,-0.03,-0.08,1.0,2.75,2.08,-0.55,941.09,20.93,
6367712,-0.02,-0.08,1.05,2.99,1.83,-0.12,941.07,20.93,
6367750,-0.03,-0.08,0.99,2.2,3.05,-0.43,941.11,20.94,
6367788,-0.04,-0.07,1.04,2.62,2.5,-0.31,941.07,20.94,
6367838,-0.05,-0.09,0.97,2.44,3.6,-0.24,941.04,20.93,
6367877,-0.03,-0.08,1.0,2.81,3.23,-0.24,941.03,20.93,
6367915,-0.03,-0.08,0.96,2.38,4.21,-0.24,941.09,20.94,
6367953,-0.04,-0.08,0.96,2.69,4.09,-0.12,941.0,20.93,
6367992,-0.03,-0.09,0.89,2.56,5.19,-0.24,941.02,20.95,
6368030,-0.03,-0.08,0.88,2.26,4.52,-0.18,941.03,20.94,
6368068,-0.04,-0.09,0.86,2.44,5.0,-0.06,941.04,20.94,
6368106,-0.03,-0.09,0.79,1.71,5.31,0.0,941.06,20.94,
6368145,-0.03,-0.08,0.83,2.14,4.03,-0.12,941.05,20.94,
6368183,-0.03,-0.09,0.76,1.65,4.39,-0.06,940.99,20.94,
6368233,-0.03,-0.08,0.82,1.83,3.17,0.18,941.03,20.94,
6368271,-0.02,-0.08,0.82,1.4,3.05,0.24,941.03,20.93,
6368309,-0.01,-0.07,0.88,1.95,1.95,0.12,941.02,20.94,
6368348,-0.03,-0.09,0.86,1.77,1.89,0.24,941.04,20.95,
6368386,-0.03,-0.08,0.9,1.95,1.4,0.18,941.05,20.96,
6368424,-0.02,-0.09,0.84,2.01,1.71,0.12,941.03,20.93,
6368463,-0.02,-0.07,0.87,2.32,0.92,0.12,941.01,20.93,
6368501,-0.03,-0.08,0.83,2.32,1.77,0.12,941.01,20.95,
6368539,-0.03,-0.07,0.85,2.01,1.46,0.12,941.03,20.94,
6368589,-0.03,-0.09,0.9,2.2,1.89,0.0,941.06,20.93,
6368628,-0.01,-0.08,0.93,1.95,1.83,-0.06,941.01,20.93,
6368666,-0.02,-0.08,0.98,2.14,1.59,-0.06,940.96,20.94,
6368704,-0.03,-0.07,1.0,1.77,1.28,-0.06,941.05,20.93,
6368743,-0.03,-0.06,1.04,1.95,0.55,-0.06,941.05,20.94,
6368781,-0.02,-0.07,1.08,1.71,-0.37,0.06,941.05,20.95,
6368819,-0.03,-0.08,1.13,1.83,-1.28,-0.06,941.06,20.95,
6368857,-0.05,-0.08,1.13,1.34,-1.59,0.12,941.07,20.94,
6368896,-0.06,-0.07,1.16,1.83,-1.83,0.18,941.03,20.95,
6368934,-0.04,-0.07,1.16,1.65,-1.04,-0.06,941.02,20.94,
6368984,-0.04,-0.07,1.19,1.77,-1.16,0.0,940.99,20.93,
6369022,-0.05,-0.07,1.18,1.46,0.06,0.0,940.99,20.94,
6369060,-0.07,-0.06,1.18,1.46,0.92,0.06,941.02,20.94,
6369098,-0.06,-0.07,1.18,1.22,1.77,0.18,940.99,20.95,
6369137,-0.09,-0.07,1.16,1.28,1.4,0.24,940.98,20.94,
6369175,-0.1,-0.06,1.23,1.77,2.87,0.37,940.98,20.94,
6369213,-0.05,-0.08,1.2,1.71,3.97,0.49,941.0,20.94,
6369251,-0.06,-0.06,1.25,2.26,3.17,0.67,941.01,20.95,
6369290,-0.06,-0.07,1.17,1.89,4.33,0.85,941.03,20.94,
6369366,-0.07,-0.07,1.16,2.2,4.52,1.34,940.97,20.92,
6369404,-0.09,-0.07,1.1,2.62,4.46,1.34,941.0,20.92,
6369442,-0.07,-0.06,1.08,2.62,5.0,1.65,941.0,20.94,
6369532,-0.06,-0.08,1.01,2.87,6.47,1.89,940.97,20.9,
6369570,-0.06,-0.08,0.96,2.5,7.39,2.38,940.98,20.93,
6369609,-0.06,-0.07,0.96,2.69,7.39,2.26,940.95,20.92,
6369647,-0.06,-0.08,0.9,2.69,7.2,2.38,940.96,20.93,
6369685,-0.04,-0.08,0.89,2.26,7.69,2.5,941.01,20.92,
6369724,-0.04,-0.08,0.82,2.56,7.81,2.81,941.0,20.94,
6369762,-0.03,-0.08,0.82,2.2,6.84,2.81,940.97,20.93,
6369812,-0.05,-0.07,0.8,2.38,6.41,3.11,941.01,20.93,
6369850,-0.04,-0.09,0.8,2.2,6.29,2.93,941.0,20.92,
6369889,-0.04,-0.09,0.86,2.26,5.62,2.99,940.98,20.93,
6369927,-0.03,-0.09,0.88,2.32,4.39,3.05,940.96,20.93,
6369965,-0.02,-0.09,0.9,2.26,3.36,3.05,940.95,20.95,
6370003,-0.03,-0.09,0.85,1.71,3.66,3.05,940.97,20.94,
6370042,-0.03,-0.08,0.87,1.46,2.81,3.11,941.01,20.95,
6370080,-0.02,-0.09,0.87,1.53,2.81,2.93,940.99,20.93,
6370118,-0.04,-0.08,0.84,1.53,2.08,3.05,940.98,20.94,
6370157,-0.05,-0.09,0.81,1.65,2.99,3.36,941.02,20.93,
6370207,-0.03,-0.1,0.79,1.34,3.97,2.99,941.02,20.92,
6370245,-0.04,-0.08,0.82,1.59,3.78,3.05,941.0,20.94,
6370283,-0.03,-0.09,0.81,1.04,4.52,3.05,940.99,20.94,
6370321,-0.01,-0.08,0.87,0.43,4.88,2.93,941.0,20.93,
6370360,-0.01,-0.09,0.96,0.37,5.0,2.87,941.0,20.95,
6370398,-0.01,-0.09,1.0,0.06,3.36,2.93,941.04,20.94,
6370436,-0.02,-0.08,1.13,-0.06,2.5,2.69,941.0,20.93,
6370474,0.01,-0.08,1.15,-0.92,3.42,2.81,941.03,20.94,
6370513,-0.02,-0.08,1.16,-0.98,3.11,2.75,941.02,20.93,
6370563,-0.0,-0.08,1.21,-0.92,1.53,2.69,941.01,20.92,
6370601,-0.03,-0.09,1.22,-0.61,1.4,2.38,941.12,20.94,
6370639,-0.04,-0.08,1.14,-0.73,0.98,2.26,941.04,20.94,
6370677,-0.01,-0.07,1.3,0.43,0.79,2.08,941.04,20.94,
6370716,-0.02,-0.11,1.17,-0.31,2.08,1.89,941.0,20.93,
6370754,-0.04,-0.06,1.29,0.43,0.85,1.83,940.94,20.94,
6370792,-0.04,-0.09,1.26,0.31,3.36,1.71,941.01,20.94,
6370831,-0.02,-0.08,1.28,0.0,2.32,1.22,940.94,20.95,
6370869,-0.03,-0.08,1.3,0.0,2.87,1.28,940.96,20.96,
6370907,-0.01,-0.08,1.22,-1.22,3.36,0.98,940.99,20.94,
6370957,-0.03,-0.07,1.26,-0.92,4.03,0.92,940.92,20.93,
6370995,-0.03,-0.07,1.24,-1.46,3.78,1.16,941.05,20.94,
6371033,-0.07,-0.08,1.22,-1.22,3.05,1.16,940.94,20.95,
6371072,-0.07,-0.08,1.24,-1.22,2.26,1.16,940.92,20.94,
6371110,-0.04,-0.08,1.28,-1.04,2.32,1.22,940.94,20.94,
6371148,-0.02,-0.08,1.27,-0.98,1.1,1.4,940.93,20.94,
6371187,-0.03,-0.07,1.3,-1.04,-0.18,1.34,940.88,20.95,
6371225,-0.05,-0.08,1.3,-1.22,-0.37,1.71,940.88,20.93,
6371263,-0.02,-0.07,1.38,-1.16,-1.77,1.77,940.87,20.94,
6371313,-0.03,-0.08,1.31,-1.71,-1.16,1.71,940.9,20.93,
6371351,-0.04,-0.07,1.36,-1.4,-2.14,1.71,940.89,20.93,
6371390,-0.01,-0.11,1.26,-1.83,0.24,1.34,940.92,20.93,
6371428,-0.02,-0.08,1.25,-1.65,0.43,1.1,940.78,20.94,
6371466,-0.04,-0.09,1.25,-2.62,2.5,1.34,940.89,20.93,
6371505,-0.07,-0.08,1.24,-3.11,2.5,1.04,940.85,20.94,
6371543,-0.03,-0.09,1.23,-4.27,5.07,0.85,940.83,20.93,
6371581,-0.04,-0.09,1.24,-5.13,5.31,0.79,940.82,20.94,
6371619,-0.01,-0.09,1.35,-5.74,5.62,0.92,940.74,20.93,
6371658,-0.01,-0.09,1.34,-6.16,7.57,0.85,940.87,20.95,
6371708,-0.07,-0.08,1.38,-6.1,6.65,1.1,940.85,20.93,
6371746,-0.01,-0.09,1.3,-6.84,7.45,0.92,940.81,20.93,
6371784,-0.02,-0.07,1.29,-7.32,6.23,0.61,940.8,20.93,
6371822,-0.01,-0.07,1.32,-8.12,5.74,0.67,940.8,20.94,
6371861,0.01,-0.09,1.28,-8.54,4.7,0.79,940.78,20.96,
6371899,-0.02,-0.08,1.32,-8.73,3.54,0.98,940.78,20.94,
6371937,-0.02,-0.07,1.41,-8.3,2.56,1.04,940.73,20.93,
6371975,-0.01,-0.08,1.39,-8.54,2.69,0.92,940.72,20.94,
6372014,-0.01,-0.05,1.5,-8.06,-0.12,0.85,940.72,20.94,
6372064,-0.02,-0.07,1.52,-8.18,0.67,0.79,940.67,20.94,
6372102,-0.02,-0.06,1.57,-8.12,0.67,0.67,940.73,20.94,
6372140,-0.0,-0.07,1.54,-8.06,1.65,0.67,940.61,20.93,
6372178,-0.01,-0.06,1.49,-8.54,0.79,0.43,940.66,20.93,
6372217,-0.05,-0.07,1.52,-8.12,1.28,0.37,940.69,20.93,
6372255,-0.02,-0.08,1.47,-7.87,2.99,0.31,940.63,20.94,
6372293,0.0,-0.06,1.53,-6.96,2.99,0.18,940.64,20.94,
6372331,-0.02,-0.06,1.48,-6.16,2.69,0.12,940.58,20.94,
6372370,-0.04,-0.06,1.5,-5.49,2.56,0.12,940.55,20.94,
6372408,-0.02,-0.08,1.49,-4.58,3.54,0.0,940.58,20.93,
6372484,-0.03,-0.06,1.47,-3.54,2.44,-0.06,940.48,20.92,
6372522,-0.02,-0.07,1.41,-3.23,3.72,0.0,940.43,20.92,
6372560,-0.02,-0.07,1.41,-2.81,4.15,-0.31,940.42,20.92,
6372650,-0.03,-0.08,1.39,-2.87,3.48,-0.18,940.38,20.9,
6372689,-0.02,-0.05,1.43,-2.81,3.78,-0.37,940.28,20.91,
6372727,-0.02,-0.06,1.46,-2.62,4.21,-0.37,940.29,20.92,
6372765,-0.01,-0.07,1.45,-2.44,3.42,-0.18,940.24,20.92,
6372804,-0.01,-0.06,1.51,-1.71,2.81,-0.43,940.24,20.92,
6372842,-0.02,-0.06,1.48,-1.34,3.23,-0.49,940.21,20.92,
6372892,-0.01,-0.05,1.44,-0.55,2.5,-0.37,940.19,20.93,
6372930,-0.03,-0.06,1.38,0.0,2.75,-0.61,940.18,20.92,
6372968,-0.02,-0.07,1.29,0.43,3.05,-0.67,940.24,20.93,
6373007,-0.02,-0.06,1.26,0.85,2.01,-0.73,940.09,20.92,
6373045,-0.01,-0.07,1.23,1.16,1.95,-0.73,940.03,20.92,
6373083,-0.01,-0.07,1.21,1.22,1.71,-0.98,940.05,20.94,
6373121,-0.02,-0.06,1.25,1.1,0.73,-0.98,939.97,20.93,
6373160,-0.02,-0.08,1.25,0.67,0.43,-0.92,939.93,20.93,
6373198,-0.02,-0.07,1.27,0.43,-0.06,-1.1,939.9,20.94,
6373248,-0.01,-0.07,1.26,0.43,-0.37,-0.98,939.84,20.92,
6373286,-0.01,-0.07,1.24,0.24,-0.61,-0.98,939.74,20.92,
6373324,-0.02,-0.06,1.26,0.79,-1.16,-1.16,939.78,20.93,
6373363,-0.02,-0.07,1.17,0.55,-0.55,-1.1,939.77,20.93,
6373401,-0.02,-0.06,1.19,1.22,-0.98,-1.16,939.71,20.94,
6373439,-0.02,-0.07,1.14,1.28,-0.37,-1.28,939.69,20.93,
6373477,-0.03,-0.07,1.14,1.65,-1.4,-1.16,939.63,20.94,
6373516,-0.03,-0.07,1.09,1.83,-0.73,-1.22,939.52,20.94,
6373554,-0.02,-0.07,1.07,1.71,-0.73,-1.28,939.54,20.94,
6373592,-0.03,-0.07,1.04,1.89,-0.79,-1.16,939.5,20.94,
6373642,-0.04,-0.07,0.96,1.95,-0.55,-1.28,939.48,20.93,
6373681,-0.03,-0.07,0.95,2.14,0.06,-1.4,939.36,20.94,
6373719,-0.03,-0.07,0.93,2.08,0.67,-1.46,939.36,20.94,
6373757,-0.03,-0.07,0.94,2.38,0.31,-1.28,939.36,20.94,
6373796,-0.05,-0.07,0.94,2.93,1.1,-1.4,939.26,20.94,
6373834,-0.04,-0.08,0.91,2.87,1.28,-1.53,939.24,20.94,
6373872,-0.04,-0.06,0.93,3.3,2.01,-1.34,939.26,20.94,
6373911,-0.04,-0.07,0.87,3.23,2.99,-1.22,939.16,20.94,
6373949,-0.04,-0.07,0.86,3.72,2.62,-1.28,939.11,20.95,
6373999,-0.04,-0.07,0.82,3.72,2.93,-0.98,939.04,20.93,
6374037,-0.04,-0.07,0.8,3.72,2.81,-0.92,939.07,20.93,
6374075,-0.04,-0.07,0.78,3.6,2.75,-0.92,939.03,20.94,
6374114,-0.04,-0.07,0.79,3.72,2.99,-0.79,938.94,20.94,
6374152,-0.04,-0.07,0.78,3.66,3.11,-0.85,938.88,20.94,
6374190,-0.04,-0.07,0.8,3.72,3.11,-0.67,938.86,20.96,
6374229,-0.03,-0.07,0.8,3.78,3.23,-0.79,938.82,20.94,
6374267,-0.04,-0.06,0.77,3.78,2.93,-0.55,938.85,20.95,
6374305,-0.05,-0.06,0.78,4.33,2.32,-0.37,938.78,20.95,
6374343,-0.04,-0.07,0.73,4.33,2.14,-0.31,938.73,20.94,
6374393,-0.05,-0.06,0.7,5.13,1.46,-0.12,938.68,20.94,
6374431,-0.04,-0.07,0.66,5.13,1.59,0.06,938.67,20.95,
6374470,-0.04,-0.06,0.67,5.31,1.04,0.18,938.65,20.95,
6374508,-0.05,-0.07,0.63,4.88,1.28,0.06,938.63,20.95,
6374546,-0.05,-0.06,0.68,4.82,0.92,0.18,938.51,20.94,
6374584,-0.05,-0.07,0.66,4.46,1.53,0.18,938.52,20.94,
6374623,-0.05,-0.06,0.68,4.33,1.4,0.31,938.51,20.96,
6374661,-0.05,-0.06,0.7,4.58,1.59,0.37,938.44,20.95,
6374699,-0.04,-0.07,0.66,4.46,1.89,0.49,938.49,20.95,
6374749,-0.06,-0.06,0.65,4.88,1.95,0.61,938.37,20.93,
6374787,-0.05,-0.07,0.66,4.7,2.32,0.79,938.38,20.95,
6374826,-0.04,-0.06,0.65,4.46,1.71,0.79,938.36,20.96,
6374864,-0.05,-0.07,0.67,4.52,1.59,0.98,938.28,20.94,
6374902,-0.05,-0.06,0.66,4.15,1.95,0.98,938.29,20.96,
6374940,-0.04,-0.06,0.69,4.03,1.83,1.28,938.27,20.96,
6374979,-0.04,-0.06,0.71,3.91,1.77,1.22,938.28,20.96,
6375017,-0.05,-0.06,0.72,3.78,1.83,1.34,938.23,20.96,
6375055,-0.04,-0.05,0.73,3.72,2.38,1.4,938.2,20.94,
6375093,-0.04,-0.06,0.76,4.03,2.44,1.46,938.19,20.95,
6375143,-0.03,-0.06,0.76,4.15,1.77,1.4,938.2,20.94,
6375182,-0.04,-0.06,0.76,4.46,2.56,1.65,938.14,20.94,
6375220,-0.03,-0.06,0.74,4.64,2.69,1.65,938.15,20.95,
6375258,-0.03,-0.06,0.74,4.76,2.38,1.71,938.07,20.95,
6375296,-0.04,-0.06,0.74,4.94,2.81,1.71,938.03,20.93,
6375335,-0.02,-0.06,0.77,4.64,2.87,1.89,938.07,20.95,
6375373,-0.03,-0.06,0.78,4.46,3.23,1.77,937.99,20.95,
6375411,-0.02,-0.05,0.81,4.27,3.11,1.83,938.06,20.94,
6375450,-0.03,-0.05,0.82,4.21,3.23,1.89,938.01,20.94,
6375488,-0.03,-0.05,0.83,4.15,3.23,1.77,937.97,20.94,
6375564,-0.03,-0.05,0.86,4.21,3.72,1.83,937.93,20.92,
6375602,-0.02,-0.04,0.89,4.15,3.42,1.83,937.89,20.92,
6375640,-0.02,-0.05,0.86,3.97,4.03,1.65,937.86,20.93,
6375730,-0.01,-0.05,0.89,3.72,3.42,1.71,937.82,20.9,
6375769,-0.03,-0.05,0.91,3.6,2.32,1.95,937.85,20.92,
6375807,-0.03,-0.05,0.9,3.42,2.38,1.83,937.77,20.92,
6375845,-0.02,-0.04,0.91,3.48,1.59,1.77,937.78,20.93,
6375884,-0.01,-0.05,0.89,3.72,1.77,1.89,937.74,20.93,
6375922,-0.03,-0.04,0.87,4.03,1.46,1.59,937.8,20.93,
6375972,-0.03,-0.05,0.84,4.33,2.69,1.34,937.72,20.93,
6376010,-0.02,-0.05,0.86,4.64,2.32,1.46,937.69,20.92,
6376048,-0.04,-0.04,0.9,4.88,1.53,1.46,937.66,20.94,
6376087,-0.01,-0.06,0.94,5.07,1.59,1.34,937.63,20.94,
6376125,0.0,-0.05,0.95,4.94,1.53,1.22,937.61,20.92,
6376163,-0.01,-0.04,0.97,5.37,0.79,1.28,937.6,20.93,
6376201,-0.02,-0.05,0.91,5.31,1.04,1.22,937.59,20.93,
6376240,-0.02,-0.05,0.93,5.49,0.06,1.22,937.61,20.94,
6376278,-0.01,-0.05,0.79,5.0,0.55,1.22,937.62,20.94,
6376316,-0.03,-0.05,0.72,4.82,-0.61,1.1,937.63,20.94,
6376366,-0.04,-0.06,0.62,5.37,-0.31,1.1,937.6,20.93,
6376405,-0.02,-0.04,0.52,4.52,0.12,0.85,937.54,20.94,
6376443,-0.03,-0.05,0.55,4.58,0.73,0.79,937.49,20.94,
6376481,-0.03,-0.06,0.51,4.03,2.14,0.61,937.48,20.95,
6376519,-0.04,-0.05,0.6,3.72,2.81,0.61,937.41,20.95,
6376558,-0.04,-0.07,0.63,3.48,4.27,0.67,937.39,20.95,
6376596,-0.03,-0.05,0.76,2.99,5.43,0.43,937.36,20.94,
6376634,-0.03,-0.05,0.82,2.93,6.35,0.49,937.42,20.95,
6376673,-0.04,-0.03,0.87,2.81,5.62,0.67,937.42,20.95,
6376711,-0.04,-0.03,0.98,2.87,5.68,0.49,937.37,20.95,
6376761,-0.03,-0.04,1.08,2.87,6.29,0.73,937.34,20.94,
6376799,-0.03,-0.04,1.14,2.99,6.41,0.61,937.33,20.95,
6376837,-0.05,-0.05,1.08,2.87,7.32,0.79,937.27,20.94,
6376876,-0.05,-0.03,1.07,3.54,7.26,0.92,937.25,20.96,
6376914,-0.03,-0.05,1.03,3.97,7.08,0.61,937.22,20.94,
6376952,-0.03,-0.05,1.0,4.46,7.08,0.85,937.24,20.95,
6376990,-0.04,-0.05,0.91,4.7,7.32,0.85,937.22,20.95,
6377029,-0.06,-0.05,0.88,5.74,7.32,0.85,937.2,20.96,
6377067,-0.07,-0.05,0.81,5.31,6.84,0.98,937.15,20.94,
6377117,-0.05,-0.05,0.81,5.86,5.55,1.16,937.07,20.94,
6377155,-0.06,-0.05,0.76,5.55,5.43,1.28,937.16,20.96,
6377194,-0.02,-0.06,0.75,5.74,5.07,1.34,937.19,20.95,
6377232,-0.06,-0.05,0.72,5.68,4.76,1.4,937.17,20.94,
6377270,-0.06,-0.06,0.72,5.43,5.13,1.83,937.18,20.96,
6377308,-0.03,-0.05,0.77,5.0,4.52,1.89,937.11,20.95,
6377346,-0.06,-0.05,0.78,5.25,3.91,1.89,937.12,20.95,
6377385,-0.04,-0.06,0.73,4.88,4.15,2.01,937.11,20.95,
6377423,-0.02,-0.06,0.81,5.0,2.32,2.2,937.11,20.95,
6377461,-0.0,-0.06,0.77,4.46,1.22,2.14,937.1,20.95,
6377511,-0.03,-0.04,0.77,4.52,0.06,2.2,937.13,20.95,
6377549,-0.05,-0.07,0.7,4.09,0.79,2.38,937.09,20.95,
6377588,-0.02,-0.06,0.69,3.85,-1.1,2.08,937.09,20.95,
6377626,-0.04,-0.05,0.69,4.09,-1.28,1.89,937.03,20.96,
6377664,-0.03,-0.06,0.6,3.11,-0.79,2.08,937.06,20.95,
6377703,-0.0,-0.05,0.68,3.78,-2.2,1.65,937.02,20.95,
6377741,-0.03,-0.07,0.65,3.48,-1.65,1.53,937.0,20.96,
6377779,-0.02,-0.06,0.7,2.81,-1.89,1.53,937.06,20.96,
6377817,-0.03,-0.06,0.73,3.3,-1.83,1.34,936.95,20.94,
6377867,-0.02,-0.06,0.7,2.08,-3.11,1.04,936.99,20.95,
6377906,-0.01,-0.06,0.76,2.56,-4.15,0.61,936.98,20.95,
6377944,-0.02,-0.07,0.7,1.77,-4.94,0.49,936.89,20.96,
6377982,-0.01,-0.05,0.76,2.08,-6.59,0.43,936.94,20.95,
6378020,-0.03,-0.06,0.77,2.01,-6.16,0.12,936.85,20.96,
6378059,-0.06,-0.04,0.89,2.08,-6.59,-0.12,936.81,20.95,
6378097,-0.07,-0.04,0.87,2.2,-5.07,-0.31,936.8,20.95,
6378135,-0.07,-0.03,0.98,2.08,-4.27,-0.85,936.77,20.96,
6378174,-0.06,-0.04,0.99,2.2,-2.99,-0.85,936.79,20.95,
6378212,-0.07,-0.03,1.04,2.38,-3.23,-1.22,936.75,20.97,
6378262,-0.09,-0.05,0.95,2.75,-1.65,-1.04,936.79,20.96,
6378300,-0.08,-0.01,0.98,3.05,-3.05,-1.04,936.72,20.96,
6378339,-0.09,-0.04,0.94,3.23,-2.38,-0.79,936.72,20.96,
6378377,-0.1,-0.04,0.87,2.99,-1.46,-1.04,936.72,20.96,
6378415,-0.09,-0.02,0.94,3.42,-0.79,-1.04,936.74,20.95,
6378454,-0.08,-0.03,0.89,2.87,-0.31,-0.85,936.73,20.95,
6378492,-0.11,-0.02,0.94,3.66,-1.59,-0.79,936.72,20.95,
6378530,-0.1,-0.03,0.89,2.99,0.18,-0.61,936.7,20.95,
6378569,-0.09,-0.02,0.97,2.93,-0.37,-0.43,936.75,20.96,
6378645,-0.12,-0.03,0.9,2.5,-0.85,-0.06,936.66,20.92,
6378683,-0.11,-0.03,0.96,2.99,-1.34,0.06,936.7,20.93,
6378721,-0.09,-0.04,0.94,2.14,-1.04,0.18,936.66,20.95,
6378811,-0.12,-0.04,1.01,2.2,-0.79,0.85,936.57,20.9,
6378850,-0.12,-0.04,1.09,2.2,-2.81,0.98,936.51,20.92,
6378888,-0.12,-0.01,1.13,2.32,-3.91,1.77,936.54,20.93,
6378926,-0.12,-0.01,1.12,2.01,-4.33,1.95,936.58,20.93,
6378965,-0.11,0.08,1.11,1.77,-3.72,2.38,936.54,20.94,
6379003,-0.15,-0.06,1.07,3.05,-5.43,3.05,936.54,20.95,
6379041,-0.16,-0.02,0.99,3.23,-4.76,3.85,936.49,20.94,
6379091,-0.18,-0.03,0.85,3.42,-5.07,4.39,936.54,20.92,
6379130,-0.18,-0.08,0.89,3.54,-6.65,4.88,936.52,20.94,
6379168,-0.16,-0.04,0.89,3.97,-7.08,5.8,936.51,20.94,
6379206,-0.15,-0.08,0.81,3.23,-6.23,6.47,936.49,20.94,
6379245,-0.17,-0.04,0.82,2.56,-7.39,7.32,936.54,20.95,
6379283,-0.16,-0.05,0.83,1.34,-7.45,8.0,936.52,20.94,
6379321,-0.15,-0.08,0.77,0.12,-7.26,8.36,936.56,20.95,
6379360,-0.16,-0.05,0.89,-0.79,-10.01,9.16,936.5,20.94,
6379398,-0.13,-0.06,0.88,-1.65,-9.89,9.58,936.58,20.94,
6379448,-0.11,-0.05,0.88,-3.85,-12.63,10.56,936.53,20.93,
6379486,-0.12,-0.04,0.94,-5.19,-14.16,11.41,936.49,20.93,
6379525,-0.15,-0.06,0.91,-6.9,-14.4,11.78,936.58,20.93,
6379563,-0.14,-0.05,1.0,-7.81,-17.09,12.08,936.54,20.94,
6379601,-0.11,-0.05,1.04,-9.28,-17.88,12.51,936.59,20.93,
6379640,-0.09,-0.02,1.13,-10.13,-19.35,13.06,936.56,20.94,
6379678,-0.1,-0.01,1.14,-10.8,-18.8,13.18,936.51,20.93,
6379716,-0.12,-0.02,1.16,-11.47,-19.23,13.49,936.55,20.93,
6379755,-0.14,-0.01,1.24,-11.78,-19.1,13.55,936.55,20.93,
6379805,-0.11,-0.0,1.34,-12.39,-18.55,13.61,936.55,20.93,
6379843,-0.1,0.01,1.36,-12.88,-18.25,13.67,936.61,20.93,
6379881,-0.1,0.01,1.43,-12.82,-18.98,13.79,936.57,20.92,
6379920,-0.07,0.01,1.46,-12.76,-18.19,13.98,936.54,20.93,
6379958,-0.08,0.04,1.44,-12.88,-18.43,13.92,936.55,20.93,
6379997,-0.13,0.05,1.48,-12.76,-18.8,14.04,936.54,20.94,
6380035,-0.12,0.02,1.49,-12.63,-19.1,13.98,936.43,20.94,
6380073,-0.08,0.03,1.62,-12.21,-19.84,13.61,936.51,20.94,
6380112,-0.1,0.02,1.6,-12.08,-19.9,13.98,936.51,20.94,
6380162,-0.1,0.06,1.65,-11.6,-20.81,13.98,936.48,20.93,
6380200,-0.09,0.05,1.62,-10.93,-19.9,13.92,936.48,20.93,
6380238,-0.08,0.04,1.57,-10.86,-20.63,13.92,936.47,20.93,
6380277,-0.09,0.05,1.59,-10.56,-21.42,13.85,936.55,20.94,
6380315,-0.11,0.04,1.53,-10.25,-21.61,13.55,936.47,20.94,
6380354,-0.09,0.05,1.53,-10.31,-22.58,13.73,936.49,20.93,
6380392,-0.08,0.04,1.54,-10.01,-23.19,13.61,936.44,20.93,
6380430,-0.09,0.04,1.55,-9.89,-23.25,13.67,936.38,20.93,
6380469,-0.1,0.05,1.52,-10.07,-22.83,13.43,936.49,20.94,
6380519,-0.09,0.05,1.57,-9.95,-23.32,13.24,936.44,20.93,
6380557,-0.08,0.06,1.56,-9.77,-23.68,13.06,936.38,20.93,
6380595,-0.09,0.06,1.56,-9.89,-23.8,12.82,936.41,20.94,
6380633,-0.08,0.06,1.54,-9.77,-23.38,12.63,936.34,20.93,
6380672,-0.07,0.05,1.52,-9.77,-23.5,12.33,936.37,20.94,
6380710,-0.09,0.05,1.49,-9.7,-22.89,12.15,936.31,20.93,
6380748,-0.11,0.04,1.5,-9.83,-22.95,12.08,936.34,20.94,
6380787,-0.1,0.03,1.45,-10.01,-22.4,11.66,936.37,20.94,
6380825,-0.09,0.05,1.43,-10.07,-22.64,11.6,936.32,20.94,
6380875,-0.11,0.03,1.37,-10.38,-20.94,11.47,936.35,20.93,
6380914,-0.09,0.03,1.38,-10.5,-20.57,11.29,936.34,20.94,
6380952,-0.11,0.05,1.39,-10.5,-19.9,11.23,936.32,20.93,
6380990,-0.14,0.02,1.32,-10.5,-18.68,11.23,936.36,20.94,
6381028,-0.12,0.04,1.38,-10.31,-16.72,11.05,936.49,20.93,
6381067,-0.11,0.07,1.34,-9.89,-14.22,10.93,936.47,20.94,
6381105,-0.11,0.07,1.36,-9.46,-11.17,10.86,936.51,20.94,
6381143,-0.11,0.04,1.32,-8.91,-8.0,10.86,936.48,20.94,
6381182,-0.09,0.02,1.26,-8.91,-3.48,10.68,936.51,20.95,
6381232,-0.09,0.02,1.15,-9.64,1.16,10.62,936.53,20.93,
6381270,-0.05,0.04,1.17,-9.64,2.69,10.25,936.57,20.93,
6381308,-0.02,-0.0,1.14,-10.07,7.08,9.83,936.57,20.94,
6381347,0.02,0.01,1.18,-10.38,8.0,9.64,936.59,20.94,
6381385,0.0,0.01,1.19,-10.13,10.44,9.58,936.54,20.93,
6381423,-0.03,0.02,1.19,-10.5,11.66,9.83,936.54,20.94,
6381462,-0.05,-0.0,1.22,-10.74,13.73,9.89,936.52,20.93,
6381500,-0.06,-0.01,1.19,-10.56,15.32,9.7,936.55,20.96,
6381538,-0.06,-0.01,1.13,-10.68,16.54,9.77,936.57,20.96,
6381576,-0.02,0.01,1.14,-10.74,18.01,9.7,936.56,20.95,
6381653,-0.02,0.0,1.15,-10.74,19.9,10.25,936.52,20.92,
6381691,-0.02,0.01,1.23,-11.05,20.02,10.44,936.54,20.93,
6381729,-0.01,0.02,1.25,-10.93,20.51,10.56,936.48,20.94,
6381819,-0.03,0.03,1.33,-10.93,18.8,10.99,936.55,20.92,
6381857,0.01,0.0,1.26,-11.05,19.1,10.86,936.51,20.93,
6381895,-0.0,0.04,1.32,-10.5,17.15,11.17,936.59,20.94,
6381934,-0.02,0.04,1.27,-10.86,16.97,11.47,936.55,20.93,
6381972,-0.03,0.03,1.31,-10.44,14.89,11.41,936.63,20.94,
6382010,-0.03,0.02,1.36,-10.38,14.53,11.41,936.6,20.93,
6382060,-0.0,0.03,1.38,-10.07,12.21,11.35,936.65,20.93,
6382099,-0.0,0.05,1.39,-10.01,10.62,11.47,936.63,20.94,
6382137,-0.01,0.06,1.37,-9.7,8.61,11.78,936.58,20.93,
6382175,-0.03,0.04,1.41,-9.46,8.24,11.66,936.58,20.94,
6382213,-0.03,0.03,1.38,-9.09,7.14,11.66,936.56,20.94,
6382252,-0.05,0.05,1.36,-9.09,6.41,11.66,936.61,20.93,
6382290,-0.04,0.07,1.34,-8.97,6.04,11.47,936.59,20.96,
6382328,-0.03,0.07,1.4,-8.24,5.98,11.6,936.59,20.95,
6382367,-0.03,0.06,1.38,-8.12,5.86,11.72,936.6,20.95,
6382416,-0.07,0.05,1.41,-7.2,6.04,11.78,936.57,20.93,
6382455,-0.07,0.05,1.37,-6.96,6.71,11.54,936.59,20.95,
6382493,-0.05,0.06,1.38,-6.53,6.41,11.47,936.61,20.96,
6382531,-0.06,0.06,1.36,-5.92,6.65,11.6,936.62,20.95,
6382570,-0.05,0.04,1.33,-5.74,7.14,11.6,936.56,20.96,
6382608,-0.08,0.05,1.32,-5.07,7.26,11.78,936.56,20.96,
6382646,-0.07,0.04,1.33,-4.46,7.63,12.08,936.51,20.95,
6382684,-0.09,0.03,1.22,-4.27,8.79,12.21,936.44,20.95,
6382723,-0.08,0.04,1.2,-4.15,7.87,12.15,936.57,20.96,
6382761,-0.09,0.01,1.18,-3.85,8.24,12.51,936.5,20.95,
6382811,-0.07,0.03,1.2,-3.48,7.63,13.06,936.53,20.94,
6382849,-0.07,0.03,1.24,-3.23,9.58,13.31,936.46,20.96,
6382888,-0.09,0.03,1.1,-3.85,10.56,13.79,936.51,20.96,
6382926,-0.1,0.04,1.19,-3.42,9.52,13.85,936.54,20.96,
6382964,-0.1,0.01,1.08,-4.58,12.02,13.92,936.56,20.95,
6383002,-0.09,0.04,1.16,-4.58,10.99,14.34,936.5,20.96,
6383041,-0.07,0.04,1.19,-5.07,12.94,14.89,936.57,20.96,
6383079,-0.07,0.04,1.19,-4.7,12.33,15.01,936.58,20.94,
6383118,-0.07,0.03,1.16,-4.94,13.61,15.2,936.57,20.96,
6383168,-0.08,0.03,1.15,-5.13,12.88,15.93,936.62,20.95,
6383206,-0.05,0.03,1.18,-5.13,13.31,16.05,936.63,20.95,
6383244,-0.04,0.03,1.17,-4.7,12.82,15.87,936.65,20.94,
6383282,-0.06,0.03,1.21,-4.27,11.96,16.3,936.67,20.96,
6383321,-0.03,0.01,1.18,-4.03,10.93,16.42,936.69,20.95,
6383359,-0.04,0.03,1.19,-3.72,10.19,16.24,936.67,20.96,
6383398,-0.05,0.02,1.16,-3.78,10.56,16.42,936.76,20.96,
6383436,-0.05,0.02,1.17,-3.48,10.19,16.54,936.73,20.96,
6383474,-0.05,0.02,1.18,-2.99,9.28,16.54,936.68,20.95,
6383524,-0.05,0.02,1.15,-2.44,8.0,16.72,936.78,20.95,
6383563,-0.03,0.01,1.15,-2.14,7.57,16.78,936.74,20.94,
6383601,-0.02,0.01,1.14,-1.83,6.53,16.78,936.74,20.95,
6383639,-0.05,0.01,1.16,-1.59,4.64,17.15,936.76,20.95,
6383678,-0.04,0.01,1.12,-1.77,3.6,17.33,936.77,20.96,
6383716,-0.04,0.02,1.14,-1.65,1.71,17.33,936.74,20.95,
6383754,-0.04,0.0,1.1,-2.2,0.49,17.52,936.75,20.93,
6383792,-0.05,-0.01,1.06,-2.5,-1.1,17.7,936.82,20.95,
6383831,-0.05,-0.02,1.02,-2.99,-1.34,17.7,936.78,20.95,
6383869,-0.07,-0.0,1.03,-3.48,-1.83,17.76,936.83,20.96,
6383919,-0.05,-0.01,1.03,-4.33,-2.56,17.76,936.84,20.93,
6383958,-0.06,-0.02,1.05,-4.76,-1.95,17.64,936.81,20.95,
6383996,-0.06,-0.01,1.07,-5.62,-0.98,17.7,936.83,20.96,
6384034,-0.04,-0.0,1.12,-6.16,-0.85,17.64,936.87,20.95,
6384072,-0.05,0.0,1.11,-6.59,0.24,17.64,936.82,20.95,
6384111,-0.06,0.0,1.12,-7.02,1.4,17.64,936.86,20.95,
6384149,-0.05,-0.01,1.13,-7.81,1.77,17.7,936.84,20.93,
6384187,-0.03,0.0,1.16,-8.42,1.4,17.52,936.88,20.95,
6384226,-0.04,0.04,1.22,-9.09,0.98,17.58,936.86,20.95,
6384276,-0.02,0.04,1.36,-9.28,0.31,17.88,936.82,20.93,
6384314,-0.01,0.04,1.47,-9.95,-1.16,17.76,936.92,20.94,
6384352,-0.04,0.02,1.52,-9.64,-1.16,17.82,936.91,20.94,
6384391,-0.03,0.03,1.43,-10.01,-0.43,17.82,937.01,20.95,
6384429,-0.02,0.07,1.52,-9.64,-2.75,17.58,937.03,20.94,
6384467,-0.03,0.03,1.45,-9.77,-2.56,17.4,936.92,20.94,
6384506,-0.04,0.02,1.44,-9.34,-3.05,17.15,937.02,20.96,
6384544,-0.01,0.03,1.41,-9.34,-2.87,16.97,937.03,20.94,
6384582,-0.03,0.04,1.39,-9.34,-4.33,17.15,937.01,20.95,
6384658,-0.04,0.0,1.39,-9.09,-3.78,16.72,937.08,20.93,
6384697,-0.02,-0.0,1.38,-9.03,-2.93,16.78,937.07,20.93,
6384735,-0.01,0.04,1.37,-8.73,-3.91,16.66,937.09,20.94,
6384902,-0.03,-0.02,1.13,-8.79,0.31,15.56,937.09,20.87,
6384940,-0.02,0.0,1.09,-8.85,1.04,15.38,937.16,20.89,
6384978,-0.03,0.0,1.08,-8.06,2.38,15.08,937.05,20.9,
6385016,-0.04,-0.03,1.07,-7.69,2.38,15.26,937.09,20.91,
6385055,-0.02,-0.02,1.12,-7.57,1.77,14.95,937.04,20.91,
6385093,-0.04,-0.01,1.2,-7.14,2.38,15.08,937.14,20.92,
6385131,-0.04,-0.02,1.15,-7.81,3.11,15.26,937.13,20.92,
6385181,-0.02,0.02,1.32,-7.75,2.32,14.83,937.13,20.92,
6385220,-0.03,0.02,1.33,-8.36,2.75,15.2,937.04,20.92,
6385258,-0.02,0.05,1.48,-8.79,1.53,15.38,937.12,20.93,
6385296,-0.01,0.03,1.54,-9.34,3.23,15.14,937.15,20.93,
6385335,-0.04,0.03,1.53,-9.16,3.54,15.08,937.14,20.93,
6385373,-0.04,0.05,1.65,-8.79,3.17,15.08,937.13,20.92,
6385411,-0.01,0.02,1.57,-8.79,3.91,14.83,937.15,20.93,
6385450,-0.01,0.04,1.58,-8.36,3.17,14.89,937.19,20.93,
6385488,-0.04,0.03,1.55,-7.75,3.91,15.01,937.18,20.94,
6385538,-0.02,0.02,1.5,-7.51,3.6,14.83,937.14,20.92,
6385576,-0.01,0.03,1.48,-7.45,4.15,14.71,937.18,20.92,
6385615,-0.01,0.0,1.48,-7.63,3.91,14.53,937.09,20.92,
6385653,-0.02,-0.0,1.47,-7.45,3.48,14.83,937.19,20.93,
6385691,-0.01,0.01,1.5,-7.32,3.05,14.71,937.2,20.94,
6385730,-0.01,0.0,1.5,-7.63,3.23,14.59,937.2,20.93,
6385768,-0.05,0.01,1.49,-7.57,2.81,14.89,937.16,20.94,
6385806,-0.01,0.01,1.47,-7.45,3.42,14.77,937.1,20.93,
6385845,0.0,0.01,1.45,-8.06,1.95,14.83,937.11,20.92,
6385883,-0.02,0.02,1.51,-8.48,1.04,15.08,937.14,20.94,
6385933,-0.02,0.01,1.47,-9.16,2.69,14.59,937.2,20.93,
6385971,-0.02,0.02,1.56,-9.16,3.23,14.28,937.23,20.93,
6386010,-0.02,0.03,1.6,-8.91,3.72,14.28,937.2,20.94,
6386048,-0.03,0.02,1.62,-9.09,4.94,14.04,937.21,20.93,
6386086,-0.03,0.03,1.6,-8.61,7.08,13.79,937.25,20.93,
6386125,-0.02,0.03,1.6,-8.54,7.63,13.24,937.23,20.95,
6386163,-0.03,0.02,1.55,-8.24,8.79,13.24,937.25,20.94,
6386201,-0.02,0.01,1.54,-7.63,10.62,12.76,937.26,20.94,
6386240,-0.02,0.01,1.49,-7.63,12.27,12.76,937.23,20.93,
6386290,-0.01,0.02,1.53,-6.77,12.33,12.45,937.32,20.93,
6386328,-0.01,-0.01,1.44,-6.47,13.98,12.45,937.25,20.92,
6386366,-0.02,-0.02,1.43,-5.92,14.77,12.21,937.31,20.94,
6386405,0.01,-0.03,1.43,-5.0,16.05,12.21,937.33,20.93,
6386443,0.0,-0.02,1.39,-4.39,16.48,12.15,937.38,20.93,
6386481,-0.02,-0.03,1.31,-3.48,16.85,12.02,937.4,20.95,
6386520,-0.02,-0.03,1.25,-3.17,17.33,11.84,937.34,20.94,
6386558,0.01,-0.06,1.19,-2.26,18.43,11.66,937.38,20.95,
6386596,0.05,-0.05,1.1,-2.26,18.25,11.17,937.44,20.95,
6386647,0.01,-0.04,1.06,-0.67,18.8,11.05,937.5,20.94,
6386685,0.0,-0.04,1.0,-0.18,19.71,10.93,937.48,20.95,
6386723,0.0,-0.05,1.02,1.04,18.68,10.93,937.55,20.95,
6386761,-0.0,-0.09,0.91,1.04,19.78,11.05,937.51,20.95,
6386800,0.03,-0.08,0.82,0.73,19.65,10.25,937.52,20.95,
6386838,0.06,-0.06,0.78,1.28,19.41,9.95,937.51,20.94,
6386876,0.04,-0.07,0.59,0.31,21.55,10.07,937.54,20.95,
6386915,0.03,-0.05,0.65,0.55,21.18,9.77,937.5,20.95,
6386953,0.01,-0.07,0.61,0.85,21.48,9.52,937.5,20.96,
6386991,0.03,-0.07,0.75,0.37,19.9,9.09,937.45,20.96,
6387041,0.04,-0.08,0.66,-0.37,21.18,8.48,937.53,20.94,
6387080,0.06,-0.04,0.78,-0.55,20.45,8.36,937.53,20.94,
6387118,0.05,-0.08,0.7,-0.92,21.36,8.12,937.51,20.95,
6387156,0.04,-0.05,0.8,-1.95,18.07,8.24,937.55,20.94,
6387195,0.01,-0.08,0.77,-1.16,18.31,8.24,937.58,20.95,
6387233,0.03,-0.08,0.81,-2.69,16.42,8.0,937.64,20.95,
6387272,0.03,-0.07,0.99,-1.89,11.66,7.81,937.61,20.96,
6387310,0.03,-0.07,0.94,-3.66,7.08,8.06,937.69,20.96,
6387348,0.02,-0.05,1.12,-3.05,4.7,7.93,937.7,20.94,
6387398,0.03,-0.07,1.09,-5.55,3.54,7.93,937.77,20.95,
6387436,0.02,-0.05,1.33,-3.91,-1.95,7.93,937.64,20.94,
6387475,-0.02,-0.07,1.2,-5.74,0.06,7.57,937.71,20.96,
6387513,-0.02,-0.01,1.34,-5.25,-1.22,7.14,937.71,20.95,
6387551,0.0,-0.03,1.4,-5.25,-0.31,6.96,937.66,20.96,
6387590,-0.0,-0.05,1.41,-5.98,-0.85,6.77,937.72,20.97,
6387628,-0.02,-0.04,1.44,-5.98,0.06,6.41,937.74,20.96,
6387666,-0.04,-0.03,1.45,-6.35,0.92,6.53,937.75,20.96,
6387705,-0.04,-0.02,1.45,-6.71,1.83,6.23,937.79,20.97,
6387743,-0.05,-0.01,1.48,-6.59,0.31,5.86,937.72,20.96,
6387819,-0.01,-0.04,1.34,-7.02,3.23,5.74,937.75,20.94,
6387857,-0.02,-0.01,1.51,-5.55,2.08,5.25,937.7,20.94,
6387896,-0.06,-0.06,1.33,-5.98,3.17,5.55,937.69,20.95,
6387985,-0.04,-0.06,1.35,-5.37,1.89,5.0,937.67,20.92,
6388024,-0.05,-0.04,1.39,-4.39,-1.34,4.94,937.64,20.93,
6388062,-0.07,-0.05,1.26,-4.52,-1.16,4.88,937.62,20.94,
6388100,-0.07,-0.04,1.27,-3.78,-3.42,4.76,937.6,20.94,
6388139,-0.07,-0.06,1.22,-3.85,-3.36,5.0,937.62,20.96,
6388177,-0.08,-0.05,1.23,-3.72,-5.86,5.0,937.6,20.95,
6388227,-0.09,-0.06,1.2,-3.36,-5.92,5.55,937.64,20.94,
6388265,-0.07,-0.06,1.2,-3.05,-7.63,5.37,937.62,20.95,
6388303,-0.07,-0.06,1.23,-3.23,-8.48,5.68,937.6,20.94,
6388342,-0.08,-0.06,1.19,-2.99,-9.16,6.1,937.62,20.95,
6388380,-0.07,-0.05,1.21,-2.87,-10.44,5.92,937.67,20.95,
6388418,-0.07,-0.05,1.21,-3.11,-10.25,6.16,937.62,20.96,
6388457,-0.06,-0.06,1.25,-2.93,-11.47,6.16,937.6,20.95,
6388495,-0.09,-0.06,1.22,-3.23,-11.6,6.41,937.58,20.95,
6388533,-0.1,-0.06,1.25,-3.17,-12.57,6.53,937.57,20.96,
6388583,-0.06,-0.06,1.24,-3.48,-12.7,6.41,937.7,20.94,
6388621,-0.09,-0.05,1.28,-3.23,-13.79,6.71,937.68,20.95,
6388660,-0.06,-0.06,1.19,-3.3,-12.27,6.77,937.68,20.94,
6388698,-0.08,-0.04,1.22,-2.81,-11.6,6.71,937.7,20.95,
6388736,-0.08,-0.05,1.18,-2.32,-9.7,6.71,937.68,20.96,
6388774,-0.07,-0.04,1.18,-1.77,-9.28,6.71,937.75,20.96,
6388813,-0.08,-0.05,1.16,-1.46,-7.02,6.59,937.78,20.96,
6388851,-0.07,-0.07,1.19,-0.85,-6.23,6.77,937.78,20.95,
6388889,-0.06,-0.07,1.19,-0.79,-4.76,6.84,937.76,20.96,
6388928,-0.06,-0.06,1.15,-0.73,-3.72,6.96,937.8,20.96,
6388978,-0.06,-0.07,1.11,-0.55,-1.83,7.02,937.84,20.95,
6389016,-0.06,-0.07,1.03,-0.61,-1.59,7.32,937.82,20.96,
6389054,-0.07,-0.06,1.04,-0.24,-1.65,7.32,937.87,20.94,
6389093,-0.05,-0.06,0.94,-0.92,-0.73,7.75,937.84,20.95,
6389131,-0.05,-0.05,1.01,-0.55,-0.92,7.63,937.8,20.94,
6389169,-0.06,-0.07,0.97,-0.98,0.73,8.06,937.88,20.96,
6389208,-0.04,-0.07,1.01,-0.98,0.73,8.06,937.82,20.96,
6389246,-0.03,-0.08,1.02,-1.16,1.77,8.0,937.88,20.96,
6389284,-0.03,-0.06,1.04,-1.59,2.2,8.06,937.85,20.96,
6389334,-0.04,-0.06,1.0,-2.01,3.48,8.36,937.9,20.95,
6389372,-0.04,-0.07,0.98,-1.77,3.6,8.3,937.87,20.95,
6389411,-0.02,-0.07,0.98,-1.83,3.66,8.18,937.88,20.96,
6389449,-0.02,-0.06,0.98,-1.95,3.48,8.3,937.88,20.96,
6389487,-0.01,-0.07,0.97,-2.2,2.69,8.12,937.79,20.96,
6389526,-0.01,-0.07,1.0,-2.69,1.28,8.24,937.83,20.97,
6389564,-0.02,-0.08,0.98,-3.23,-0.12,8.42,937.81,20.96,
6389602,-0.03,-0.07,0.98,-3.85,-1.65,8.18,937.71,20.96,
6389641,-0.04,-0.06,0.96,-4.27,-2.5,8.0,937.69,20.95,
6389691,-0.04,-0.06,1.02,-4.82,-3.72,8.18,937.7,20.96,
6389729,-0.05,-0.07,1.03,-5.07,-4.27,8.12,937.74,20.97,
6389767,-0.06,-0.06,1.05,-5.07,-4.58,8.06,937.7,20.95,
6389805,-0.08,-0.06,1.11,-4.64,-4.21,8.24,937.72,20.96,
6389844,-0.09,-0.06,1.11,-4.76,-3.42,8.3,937.69,20.96,
6389882,-0.09,-0.04,1.15,-4.27,-3.23,8.3,937.68,20.96,
6389920,-0.07,-0.05,1.17,-4.15,-2.32,8.18,937.62,20.96,
6389959,-0.07,-0.05,1.19,-4.15,-3.3,8.36,937.58,20.97,
6389997,-0.08,-0.04,1.17,-4.39,-2.69,8.67,937.59,20.96,
6390035,-0.08,-0.03,1.16,-5.0,-3.85,8.79,937.63,20.97,
6390085,-0.09,-0.05,1.18,-4.88,-3.23,9.28,937.55,20.96,
6390124,-0.08,-0.05,1.25,-4.52,-6.29,9.34,937.53,20.97,
6390162,-0.12,-0.08,1.11,-4.39,-4.94,9.64,937.61,20.96,
6390200,-0.11,-0.04,1.08,-4.82,-6.59,10.13,937.58,20.97,
6390238,-0.06,-0.05,1.14,-4.21,-7.08,10.44,937.6,20.97,
6390277,-0.12,-0.08,0.93,-5.43,-6.77,10.86,937.58,20.97,
6390315,-0.1,-0.04,1.03,-4.46,-7.51,11.05,937.65,20.97,
6390353,-0.07,-0.05,0.95,-5.31,-7.81,11.23,937.59,20.98,
6390392,-0.08,-0.07,0.94,-5.68,-10.13,11.84,937.71,20.97,
6390442,-0.04,-0.06,0.99,-6.59,-8.36,11.72,937.7,20.95,
6390480,-0.07,-0.08,1.0,-6.47,-8.12,12.08,937.65,20.96,
6390518,-0.07,-0.06,0.93,-6.96,-8.61,12.51,937.73,20.97,
6390557,-0.1,-0.05,0.91,-6.59,-7.57,12.15,937.76,20.97,
6390595,-0.04,-0.02,1.05,-6.84,-8.12,12.27,937.75,20.96,
6390634,0.0,-0.02,1.13,-6.23,-8.61,12.57,937.74,20.96,
6390672,-0.07,-0.03,1.15,-6.47,-8.79,12.63,937.81,20.96,
6390710,-0.04,-0.05,1.24,-5.86,-7.63,12.88,937.87,20.97,
6390749,-0.01,-0.05,1.23,-6.35,-6.1,12.57,937.85,20.96,
6390825,-0.05,-0.04,1.12,-6.35,-6.16,12.88,937.87,20.94,
6390863,-0.03,-0.01,1.18,-5.68,-6.96,12.33,937.93,20.95,
6390901,-0.01,-0.04,1.2,-6.1,-6.9,12.57,937.92,20.96,
6390991,-0.03,-0.04,1.28,-6.47,-6.77,12.7,937.86,20.92,
6391029,-0.04,-0.01,1.31,-5.62,-7.87,12.63,937.9,20.92,
6391068,-0.03,-0.04,1.34,-5.37,-8.0,12.76,937.87,20.94,
6391106,-0.04,-0.03,1.25,-4.82,-8.73,12.7,937.9,20.94,
6391144,-0.06,-0.03,1.19,-4.52,-6.77,12.76,937.9,20.93,
6391183,-0.03,-0.04,1.02,-4.64,-5.13,13.18,937.95,20.95,
6391233,-0.06,-0.03,1.02,-4.27,-5.8,13.06,937.89,20.94,
6391271,-0.04,-0.06,0.99,-4.7,-4.82,13.18,937.91,20.94,
6391310,-0.03,-0.04,1.07,-5.13,-4.33,13.24,937.9,20.93,
6391348,-0.0,-0.04,1.12,-5.19,-3.36,13.31,937.88,20.95,
6391386,-0.02,-0.04,1.12,-5.8,-3.97,13.73,937.89,20.96,
6391424,-0.01,-0.03,1.21,-5.8,-3.97,13.73,937.83,20.94,
6391463,0.01,-0.03,1.2,-6.96,-2.81,13.85,937.83,20.95,
6391501,-0.01,-0.01,1.19,-7.2,-2.26,13.79,937.88,20.95,
6391540,-0.04,-0.02,1.22,-7.39,-1.71,13.73,937.85,20.96,
6391590,-0.01,-0.05,1.22,-7.81,-0.73,13.61,937.93,20.94,
6391628,-0.0,-0.0,1.29,-7.39,-0.67,13.55,938.0,20.95,
6391666,-0.01,-0.03,1.18,-7.87,2.2,13.79,937.93,20.95,
6391705,-0.01,-0.02,1.23,-7.81,1.77,13.55,937.92,20.95,
6391743,-0.03,-0.05,1.21,-8.18,5.62,13.24,937.95,20.96,
6391781,-0.0,-0.04,1.16,-8.12,7.26,13.12,937.88,20.94,
6391820,0.01,-0.02,1.31,-7.75,8.36,13.31,937.91,20.95,
6391858,0.04,-0.02,1.24,-8.67,10.44,13.24,937.87,20.97,
6391896,0.01,-0.02,1.35,-8.12,11.17,12.63,937.85,20.96,
6391935,0.04,-0.01,1.41,-8.85,12.45,12.57,937.88,20.95,
6391985,0.03,-0.01,1.41,-8.97,13.06,12.39,937.85,20.94,
6392023,0.01,0.0,1.44,-8.85,14.53,12.33,937.94,20.96,
6392061,0.03,0.0,1.38,-9.22,14.89,12.27,937.89,20.96,
6392100,0.03,0.01,1.46,-9.03,15.14,12.02,937.9,20.95,
6392138,0.08,-0.01,1.38,-9.28,15.08,12.33,938.0,20.96,
6392176,0.03,-0.01,1.38,-8.91,13.06,12.21,937.93,20.96,
6392215,0.05,-0.02,1.33,-9.22,14.4,12.33,938.02,20.97,
6392253,0.06,0.01,1.37,-8.97,11.6,12.39,938.02,20.96,
6392291,0.04,-0.01,1.33,-8.61,11.9,12.94,938.05,20.95,
6392341,0.02,-0.03,1.31,-7.75,10.38,12.51,938.03,20.94,
6392380,0.01,-0.07,1.24,-7.81,12.7,12.27,938.09,20.95,
6392418,0.04,-0.01,1.22,-7.08,12.27,12.02,938.11,20.96,
6392456,0.06,-0.01,1.29,-6.41,12.94,12.08,938.09,20.94,
6392494,0.07,-0.03,1.21,-6.04,13.61,11.66,938.12,20.95,
6392533,0.04,-0.04,1.33,-5.43,12.51,11.41,938.15,20.96,
6392571,0.05,-0.05,1.28,-5.86,13.37,11.41,938.12,20.95,
6392609,0.04,-0.02,1.36,-5.62,11.72,11.17,938.18,20.96,
6392648,0.06,-0.02,1.34,-5.92,12.94,10.99,938.21,20.96,
6392698,0.06,-0.01,1.35,-5.92,11.84,10.62,938.17,20.94,
6392736,0.05,-0.03,1.31,-5.92,13.18,10.44,938.23,20.95,
6392774,0.05,-0.01,1.32,-5.74,12.57,10.44,938.2,20.97,
6392813,0.04,0.0,1.43,-5.43,12.7,10.31,938.24,20.96,
6392851,0.02,-0.01,1.4,-5.43,12.45,9.95,938.29,20.96,
6392889,0.02,-0.0,1.49,-5.19,11.47,9.7,938.28,20.95,
6392928,0.05,-0.02,1.44,-5.55,12.7,9.58,938.27,20.96,
6392966,0.05,-0.01,1.42,-5.31,12.27,9.52,938.3,20.96,
6393005,0.04,0.0,1.37,-5.0,12.15,9.28,938.28,20.95,
6393043,0.02,-0.01,1.36,-4.64,10.93,9.28,938.3,20.95,
6393093,0.03,-0.03,1.28,-4.46,11.11,8.91,938.38,20.95,
6393131,0.02,-0.02,1.32,-3.97,11.05,8.91,938.42,20.96,
6393169,0.03,-0.04,1.3,-3.91,11.05,8.73,938.48,20.97,
6393208,0.04,-0.02,1.35,-3.66,9.52,8.67,938.5,20.96,
6393246,0.03,-0.02,1.36,-3.23,9.7,8.67,938.5,20.97,
6393284,0.02,-0.05,1.32,-3.3,9.46,8.54,938.49,20.96,
6393323,0.01,-0.02,1.33,-3.23,9.22,8.42,938.57,20.97,
6393361,0.0,-0.02,1.33,-3.05,8.97,8.24,938.58,20.97,
6393399,0.01,-0.03,1.31,-3.23,8.79,8.06,938.63,20.97,
6393449,0.0,-0.03,1.28,-3.11,8.06,8.12,938.65,20.95,
6393487,-0.0,-0.03,1.26,-3.23,7.93,8.0,938.71,20.96,
6393526,0.0,-0.03,1.3,-2.87,6.77,8.06,938.76,20.97,
6393564,-0.01,-0.04,1.26,-3.17,6.29,7.87,938.78,20.97,
6393602,-0.02,-0.04,1.23,-2.99,5.55,8.12,938.73,20.97,
6393641,-0.01,-0.04,1.27,-2.69,4.88,8.06,938.81,20.97,
6393679,-0.01,-0.04,1.24,-2.93,4.82,8.06,938.8,20.97,
6393717,-0.01,-0.03,1.28,-3.05,3.72,8.12,938.84,20.97,
6393755,-0.03,-0.05,1.28,-2.93,4.27,8.3,938.8,20.97,
6393794,-0.04,-0.05,1.23,-3.42,3.6,8.36,938.81,20.97,
6393870,-0.03,-0.03,1.2,-3.42,2.62,8.61,938.82,20.94,
6393908,-0.03,-0.03,1.25,-3.11,1.95,8.67,938.86,20.96,
6393946,-0.02,-0.05,1.17,-3.48,2.38,8.91,938.88,20.95,
6394036,-0.03,-0.05,1.2,-2.99,0.43,9.09,938.83,20.92,
6394074,-0.03,-0.03,1.33,-2.5,-1.77,9.09,938.91,20.94,
6394113,-0.04,-0.05,1.25,-3.05,-1.16,9.09,938.87,20.94,
6394151,-0.03,-0.03,1.3,-2.87,-2.56,9.03,938.85,20.95,
6394189,-0.02,-0.04,1.28,-3.11,-2.56,9.09,938.85,20.93,
6394227,-0.03,-0.04,1.24,-3.23,-4.09,9.46,938.88,20.95,
6394278,-0.04,-0.04,1.22,-3.42,-4.46,9.46,938.92,20.95,
6394316,-0.04,-0.04,1.22,-3.05,-5.74,9.22,938.89,20.95,
6394354,-0.04,-0.04,1.25,-3.42,-5.49,9.46,938.92,20.96,
6394393,-0.05,-0.04,1.22,-3.72,-5.92,9.46,938.92,20.95,
6394431,-0.04,-0.04,1.26,-3.78,-5.31,9.34,938.93,20.96,
6394469,-0.03,-0.05,1.25,-3.78,-5.07,9.46,938.99,20.95,
6394507,-0.05,-0.04,1.27,-3.91,-5.07,9.46,938.95,20.96,
6394546,-0.05,-0.05,1.24,-3.66,-3.36,9.7,938.92,20.97,
6394584,-0.05,-0.04,1.23,-3.91,-2.2,9.4,938.96,20.96,
6394622,-0.05,-0.04,1.23,-3.6,-0.98,9.4,939.01,20.96,
6394672,-0.05,-0.05,1.2,-3.66,-0.43,9.58,938.95,20.96,
6394710,-0.05,-0.04,1.21,-3.23,0.61,9.64,939.02,20.96,
6394749,-0.05,-0.04,1.21,-3.23,1.28,9.83,938.99,20.96,
6394787,-0.05,-0.04,1.2,-3.11,0.85,10.31,939.0,20.96,
6394825,-0.04,-0.04,1.21,-3.11,0.92,10.19,939.01,20.96,
6394864,-0.05,-0.04,1.18,-3.23,0.79,10.5,939.06,20.97,
6394902,-0.04,-0.04,1.18,-2.93,0.18,10.62,939.0,20.96,
6394940,-0.03,-0.06,1.16,-2.87,0.24,10.74,939.03,20.97,
6394979,-0.05,-0.05,1.12,-2.87,-0.12,10.86,939.09,20.97,
6395028,-0.04,-0.05,1.12,-2.69,0.24,10.99,939.05,20.96,
6395067,-0.04,-0.06,1.1,-2.62,-0.43,11.17,939.09,20.96,
6395105,-0.05,-0.05,1.12,-2.69,-0.61,11.35,939.05,20.96,
6395144,-0.04,-0.05,1.11,-2.62,-0.43,11.47,939.07,20.96,
6395182,-0.04,-0.05,1.12,-2.93,0.0,11.6,939.13,20.97,
6395220,-0.05,-0.06,1.09,-2.99,0.43,11.6,939.13,20.97,
6395258,-0.03,-0.05,1.13,-2.56,0.55,11.6,939.12,20.97,
6395297,-0.04,-0.05,1.1,-2.93,0.49,11.72,939.17,20.97,
6395335,-0.05,-0.06,1.07,-2.75,0.61,11.9,939.14,20.98,
6395385,-0.03,-0.06,1.08,-2.93,0.85,11.84,939.12,20.95,
6395423,-0.03,-0.06,1.09,-3.11,1.34,11.9,939.19,20.96,
6395462,-0.03,-0.06,1.08,-3.11,1.34,12.02,939.14,20.96,
6395500,-0.03,-0.06,1.09,-3.11,1.89,11.96,939.2,20.97,
6395538,-0.03,-0.06,1.1,-3.17,1.95,11.84,939.18,20.97,
6395576,-0.03,-0.06,1.1,-3.3,1.95,11.84,939.24,20.97,
6395615,-0.02,-0.06,1.12,-3.6,2.08,11.84,939.19,20.97,
6395653,-0.02,-0.06,1.11,-3.72,2.44,11.96,939.29,20.98,
6395691,-0.03,-0.06,1.09,-3.72,2.38,12.02,939.23,20.98,
6395742,-0.04,-0.05,1.09,-3.6,2.2,12.02,939.28,20.97,
6395780,-0.03,-0.06,1.1,-3.78,2.87,11.96,939.22,20.96,
6395818,-0.02,-0.05,1.13,-3.66,2.93,11.96,939.28,20.98,
6395857,-0.02,-0.06,1.13,-3.97,3.54,11.9,939.31,20.97,
6395895,-0.02,-0.06,1.14,-3.85,3.23,11.84,939.26,20.98,
6395933,-0.02,-0.06,1.14,-4.21,3.3,11.84,939.25,20.97,
6395972,-0.01,-0.06,1.13,-4.46,3.11,11.84,939.27,20.97,
6396010,-0.02,-0.05,1.12,-4.7,2.81,11.9,939.28,20.97,
6396048,-0.02,-0.06,1.11,-4.64,2.93,11.84,939.35,20.98,
6396086,-0.02,-0.06,1.1,-4.7,2.5,11.66,939.36,20.98,
6396136,-0.02,-0.06,1.12,-4.64,2.26,11.66,939.38,20.97,
6396175,-0.01,-0.06,1.1,-4.76,2.62,11.78,939.38,20.97,
6396213,-0.02,-0.06,1.14,-4.82,2.62,11.54,939.37,20.97,
6396251,-0.0,-0.06,1.14,-5.0,2.87,11.47,939.4,20.99,
6396290,-0.01,-0.06,1.15,-5.07,3.05,11.47,939.39,20.98,
6396328,-0.02,-0.05,1.18,-5.13,3.72,11.41,939.41,20.99,
6396366,-0.01,-0.05,1.19,-5.19,4.03,11.11,939.43,20.99,
6396405,-0.01,-0.04,1.23,-5.43,4.27,11.05,939.38,20.98,
6396443,-0.02,-0.05,1.25,-5.43,4.7,10.99,939.39,20.98,
6396493,-0.01,-0.05,1.27,-5.62,5.31,10.62,939.4,20.98,
6396531,-0.0,-0.05,1.32,-5.49,5.0,10.56,939.44,20.98,
6396570,-0.0,-0.05,1.29,-5.74,6.1,10.56,939.38,20.97,
6396608,-0.01,-0.05,1.3,-5.49,5.55,10.38,939.46,20.97,
6396646,-0.02,-0.05,1.28,-5.49,5.49,10.19,939.46,20.98,
6396684,-0.02,-0.06,1.25,-5.43,6.04,10.13,939.48,20.98,
6396723,-0.01,-0.05,1.3,-4.88,5.49,10.13,939.47,20.98,
6396761,-0.01,-0.06,1.3,-4.82,5.37,10.01,939.47,20.97,
6396799,-0.02,-0.05,1.33,-4.76,5.62,10.07,939.48,20.97,
6396876,-0.03,-0.04,1.32,-5.31,7.2,9.77,939.48,20.96,
6396914,-0.03,-0.05,1.39,-5.25,7.39,9.83,939.48,20.96,
6396952,-0.01,-0.07,1.34,-5.25,8.54,9.58,939.52,20.96,
6397042,0.0,-0.04,1.31,-4.82,7.81,9.64,939.52,20.93,
6397080,-0.02,-0.04,1.36,-4.52,7.32,9.52,939.53,20.95,
6397119,-0.02,-0.06,1.3,-4.64,7.75,9.46,939.6,20.96,
6397157,-0.01,-0.06,1.35,-4.39,5.86,9.52,939.56,20.96,
6397195,-0.01,-0.07,1.27,-5.07,7.2,9.4,939.57,20.95,
6397234,-0.01,-0.05,1.27,-4.7,5.92,9.34,939.55,20.95,
6397272,-0.01,-0.05,1.28,-4.88,6.16,9.34,939.57,20.96,
6397322,-0.02,-0.06,1.27,-4.82,4.39,9.64,939.56,20.95,
6397360,-0.0,-0.06,1.27,-5.25,3.91,9.46,939.63,20.96,
6397398,-0.02,-0.05,1.24,-5.0,2.26,9.77,939.63,20.96,
6397437,-0.03,-0.06,1.26,-4.88,0.98,9.58,939.64,20.97,
6397475,-0.02,-0.05,1.3,-4.7,-0.92,9.7,939.62,20.96,
6397513,-0.01,-0.05,1.35,-4.76,-2.75,9.83,939.6,20.97,
6397552,-0.03,-0.05,1.33,-4.76,-3.72,10.07,939.59,20.97,
6397590,-0.02,-0.04,1.4,-4.58,-5.68,10.07,939.57,20.97,
6397628,-0.0,-0.04,1.45,-4.21,-8.0,10.44,939.53,20.97,
6397678,-0.0,-0.04,1.51,-4.09,-11.17,10.5,939.56,20.96,
6397717,-0.02,-0.05,1.51,-3.85,-11.05,10.68,939.6,20.96,
6397755,0.0,-0.05,1.47,-3.78,-11.47,10.62,939.55,20.97,
6397793,0.01,-0.04,1.44,-3.78,-12.21,10.31,939.58,20.97,
6397832,-0.02,-0.04,1.39,-4.03,-11.9,10.25,939.56,20.97,
6397870,-0.03,-0.05,1.38,-4.27,-11.72,10.38,939.54,20.97,
6397908,-0.0,-0.06,1.39,-4.33,-10.31,9.83,939.61,20.98,
6397946,-0.02,-0.05,1.35,-4.46,-9.09,9.64,939.57,20.98,
6397985,-0.01,-0.04,1.34,-4.58,-7.45,9.7,939.59,20.99,
6398035,-0.0,-0.05,1.36,-4.33,-5.19,9.4,939.58,20.97,
6398073,-0.02,-0.06,1.31,-4.52,-3.78,9.22,939.58,20.98,
6398111,-0.01,-0.06,1.25,-4.7,-2.69,8.85,939.58,20.96,
6398150,-0.03,-0.05,1.24,-4.64,-1.4,8.79,939.63,20.98,
6398188,0.01,-0.05,1.21,-4.82,0.12,8.67,939.63,20.97,
6398226,-0.05,-0.05,1.25,-4.46,0.92,8.48,939.64,20.97,
6398265,-0.04,-0.07,1.18,-4.52,1.83,8.61,939.64,20.98,
6398303,-0.03,-0.05,1.25,-4.21,1.77,8.42,939.67,20.98,
6398341,-0.03,-0.04,1.23,-4.64,3.91,8.54,939.66,20.99,
6398380,-0.03,-0.06,1.21,-4.09,3.85,8.79,939.62,20.98,
6398430,-0.06,-0.06,1.18,-4.52,6.29,8.67,939.66,20.97,
6398468,-0.01,-0.04,1.18,-4.15,6.84,8.61,939.6,20.96,
6398506,-0.01,-0.04,1.22,-4.09,6.9,8.79,939.66,20.97,
6398545,-0.04,-0.04,1.2,-4.09,6.59,8.85,939.63,20.99,
6398583,-0.03,-0.06,1.27,-3.48,6.9,8.97,939.65,20.98,
6398621,0.0,-0.07,1.24,-3.6,7.02,9.22,939.64,20.97,
6398660,-0.02,-0.05,1.28,-3.11,5.07,9.52,939.69,20.98,
6398698,-0.03,-0.04,1.24,-3.17,5.98,9.58,939.61,20.98,
6398736,-0.02,-0.04,1.22,-2.99,5.49,9.58,939.69,20.97,
6398787,-0.03,-0.05,1.21,-2.99,5.49,10.13,939.66,20.96,
6398825,-0.04,-0.05,1.22,-3.05,4.58,10.01,939.67,20.98,
6398863,-0.03,-0.04,1.23,-3.3,6.41,9.95,939.65,20.99,
6398901,-0.02,-0.03,1.28,-3.3,6.1,9.89,939.64,20.99,
6398940,-0.02,-0.04,1.32,-3.36,6.04,10.13,939.66,20.97,
6398978,-0.04,-0.06,1.3,-3.3,6.59,10.31,939.62,20.98,
6399016,-0.04,-0.04,1.31,-3.23,7.14,10.44,939.66,20.98,
6399055,-0.01,-0.03,1.3,-3.48,6.65,10.62,939.65,20.98,
6399093,-0.02,-0.04,1.33,-3.11,6.16,10.68,939.64,20.98,
6399131,-0.03,-0.04,1.32,-2.69,5.98,10.68,939.61,20.98,
6399181,-0.01,-0.04,1.33,-2.87,5.86,10.93,939.67,20.97,
6399220,-0.03,-0.03,1.33,-2.5,4.82,11.05,939.66,20.97,
6399258,-0.04,-0.03,1.31,-2.5,5.92,11.05,939.65,20.98,
6399296,-0.01,-0.04,1.33,-2.56,6.41,10.93,939.56,20.97,
6399335,-0.01,-0.05,1.29,-2.75,5.98,11.05,939.67,20.98,
6399373,-0.03,-0.05,1.29,-2.56,4.82,11.11,939.6,20.97,
6399411,-0.01,-0.05,1.16,-2.69,5.74,11.11,939.7,20.98,
6399450,-0.01,-0.04,1.14,-2.5,4.33,11.17,939.64,20.98,
6399488,-0.03,-0.05,1.17,-1.77,3.6,11.47,939.64,20.98,
6399538,-0.0,-0.07,1.1,-2.14,2.75,11.47,939.68,20.97,
6399576,0.02,-0.05,1.16,-2.01,2.26,11.41,939.65,20.97,
6399615,-0.01,-0.07,1.02,-2.32,1.83,11.54,939.62,20.98,
6399653,-0.01,-0.06,1.04,-2.38,1.04,11.54,939.59,20.97,
6399691,0.0,-0.07,1.0,-2.69,2.01,11.41,939.65,20.98,
6399730,-0.0,-0.06,0.98,-2.81,0.55,11.54,939.63,20.98,
6399768,-0.01,-0.06,0.99,-2.81,0.24,11.35,939.65,20.98,
6399806,-0.01,-0.07,0.98,-2.69,0.43,10.99,939.66,20.98,
6399845,0.01,-0.07,0.97,-2.75,1.22,11.11,939.59,20.98,
6399921,-0.02,-0.06,1.02,-3.05,1.77,11.05,939.6,20.95,
6399959,-0.02,-0.06,1.02,-3.23,1.71,10.74,939.62,20.97,
6399997,-0.01,-0.06,1.06,-3.54,2.87,10.68,939.62,20.97,
6400087,-0.01,-0.06,1.04,-3.72,4.15,10.5,939.62,20.93,
6400126,-0.01,-0.05,1.07,-3.48,4.27,10.62,939.62,20.94,
6400164,0.01,-0.06,1.08,-3.48,4.03,10.56,939.62,20.96,
6400202,-0.02,-0.06,1.09,-3.23,3.54,10.56,939.63,20.95,
6400241,-0.02,-0.06,1.13,-3.05,3.85,10.62,939.59,20.94,
6400279,-0.0,-0.06,1.09,-3.23,4.03,10.56,939.62,20.96,
6400317,-0.0,-0.05,1.14,-3.17,2.75,10.62,939.65,20.96,
6400367,-0.01,-0.06,1.13,-3.05,3.3,10.8,939.62,20.95,
6400406,-0.01,-0.06,1.13,-2.87,3.23,10.8,939.57,20.96,
6400444,-0.0,-0.05,1.13,-2.69,2.62,10.38,939.6,20.97,
6400482,-0.02,-0.05,1.11,-2.56,2.5,10.62,939.66,20.96,
6400521,0.0,-0.05,1.14,-2.2,2.44,10.68,939.68,20.97,
6400559,0.01,-0.06,1.15,-1.95,2.75,10.5,939.64,20.98,
6400597,-0.01,-0.06,1.13,-1.89,2.26,10.44,939.63,20.97,
6400636,-0.01,-0.06,1.1,-1.83,2.62,10.44,939.69,20.97,
6400674,-0.0,-0.05,1.09,-1.65,2.38,10.31,939.72,20.97,
6400724,-0.0,-0.07,1.05,-1.83,2.93,10.44,939.66,20.96,
6400762,-0.01,-0.06,1.07,-1.71,2.26,10.38,939.64,20.98,
6400801,0.01,-0.06,1.07,-1.77,2.32,10.19,939.69,20.97,
6400839,-0.01,-0.05,1.07,-1.59,1.89,10.07,939.68,20.98,
6400877,-0.0,-0.06,1.07,-1.59,2.38,10.31,939.68,20.98,
6400916,-0.0,-0.07,1.07,-1.65,2.26,10.13,939.65,20.97,
6400954,0.01,-0.06,1.07,-1.77,1.77,10.19,939.66,20.98,
6400992,0.01,-0.06,1.08,-1.77,2.01,10.01,939.69,20.98,
6401031,0.01,-0.06,1.08,-1.83,2.38,9.77,939.64,20.97,
6401081,0.01,-0.06,1.07,-2.01,2.69,9.58,939.66,20.96,
6401119,0.01,-0.07,1.06,-2.01,3.11,9.28,939.61,20.97,
6401157,0.0,-0.06,1.05,-2.08,3.05,9.22,939.66,20.97,
6401195,0.0,-0.07,1.07,-2.14,3.23,8.97,939.66,20.97,
6401234,0.01,-0.06,1.11,-1.95,3.17,8.97,939.68,20.97,
6401272,0.01,-0.06,1.11,-2.38,3.91,8.79,939.69,20.97,
6401310,0.02,-0.05,1.13,-2.32,3.66,8.42,939.67,20.99,
6401349,0.01,-0.05,1.12,-2.87,4.15,8.48,939.68,20.99,
6401387,0.01,-0.04,1.14,-2.93,3.91,8.12,939.68,20.98,
6401425,0.01,-0.06,1.16,-2.87,4.33,7.87,939.66,20.98,
6401475,0.01,-0.06,1.17,-2.87,4.46,7.69,939.72,20.97,
6401514,0.02,-0.05,1.19,-2.81,4.39,7.51,939.75,20.97,
6401552,0.02,-0.05,1.2,-2.62,4.64,7.14,939.71,20.97,
6401591,0.01,-0.05,1.17,-2.69,4.7,7.08,939.75,20.98,
6401629,0.01,-0.06,1.18,-2.5,4.82,7.02,939.69,20.98,
6401667,0.02,-0.05,1.17,-2.62,4.76,6.59,939.75,20.98,
6401705,0.01,-0.05,1.18,-2.56,4.88,6.59,939.7,20.98,
6401744,-0.0,-0.05,1.17,-2.26,5.07,6.35,939.75,20.97,
6401782,0.01,-0.06,1.19,-2.08,4.64,6.23,939.79,20.98,
6401820,0.0,-0.06,1.17,-2.2,4.15,6.04,939.72,20.98,
6401870,-0.01,-0.06,1.16,-1.89,4.58,6.16,939.76,20.96,
6401909,-0.0,-0.06,1.14,-2.08,4.39,5.98,939.76,20.97,
6401947,-0.02,-0.05,1.11,-2.08,4.33,5.98,939.72,20.97,
6401985,-0.01,-0.06,1.08,-2.32,4.33,6.1,939.78,20.98,
6402024,-0.01,-0.06,1.1,-2.38,4.52,5.8,939.81,20.98,
6402062,-0.01,-0.05,1.12,-2.14,4.94,5.86,939.79,20.98,
6402100,-0.02,-0.06,1.12,-2.26,4.88,6.04,939.72,20.99,
6402139,-0.02,-0.06,1.13,-2.08,4.88,5.86,939.78,20.98,
6402177,-0.02,-0.06,1.11,-2.14,5.0,5.8,939.82,20.99,
6402227,-0.01,-0.05,1.09,-1.95,4.76,6.04,939.82,20.98,
6402265,-0.02,-0.06,1.06,-2.01,4.76,5.86,939.81,20.98,
6402304,-0.02,-0.06,1.07,-2.01,4.82,5.92,939.76,20.98,
6402342,-0.02,-0.07,1.06,-2.08,5.37,5.8,939.79,20.98,
6402380,-0.02,-0.06,1.08,-1.89,4.82,6.1,939.8,20.98,
6402419,-0.03,-0.06,1.06,-1.77,5.68,5.98,939.77,20.99,
6402457,-0.02,-0.06,1.06,-1.46,5.43,6.35,939.76,20.97,
6402495,-0.03,-0.07,1.06,-1.53,5.62,6.23,939.79,20.98,
6402533,-0.03,-0.07,1.04,-1.53,5.55,6.23,939.85,20.98,
6402572,-0.03,-0.06,1.07,-1.46,5.92,6.35,939.8,20.99,
6402622,-0.02,-0.06,1.06,-1.4,6.04,6.59,939.85,20.97,
6402660,-0.03,-0.06,1.07,-1.53,6.59,6.47,939.83,20.97,
6402698,-0.02,-0.06,1.07,-1.46,6.96,6.59,939.83,20.98,
6402737,-0.03,-0.05,1.07,-1.53,6.96,6.59,939.8,20.99,
6402775,-0.04,-0.06,1.09,-1.34,7.2,6.71,939.82,20.98,
6402813,-0.03,-0.07,1.07,-1.53,7.75,6.71,939.79,20.98,
6402851,-0.03,-0.07,1.09,-1.53,7.57,6.71,939.82,20.98,
6402890,-0.03,-0.06,1.07,-1.59,8.06,6.84,939.85,20.98,
6402928,-0.03,-0.05,1.09,-1.4,8.3,6.65,939.86,20.98,
6403004,-0.02,-0.05,1.17,-1.4,7.57,7.14,939.83,20.96,
6403042,-0.04,-0.06,1.15,-1.65,8.3,6.9,939.81,20.97,
6403081,-0.02,-0.05,1.19,-1.65,8.0,7.14,939.79,20.96,
6403171,-0.03,-0.06,1.17,-1.1,6.41,7.51,939.84,20.94,
6403209,-0.03,-0.05,1.2,-0.92,6.47,7.14,939.85,20.95,
6403247,-0.02,-0.06,1.15,-1.1,6.16,7.45,939.84,20.96,
6403286,-0.02,-0.06,1.15,-0.85,4.94,7.45,939.86,20.97,
6403324,-0.04,-0.07,1.1,-1.22,5.86,7.39,939.88,20.96,
6403362,-0.03,-0.06,1.1,-1.16,5.55,7.26,939.84,20.96,
6403401,-0.01,-0.06,1.12,-1.04,5.37,7.39,939.88,20.97,
6403451,-0.03,-0.06,1.11,-0.98,4.52,7.45,939.83,20.97,
6403489,-0.02,-0.06,1.12,-1.1,4.64,7.45,939.88,20.96,
6403527,-0.01,-0.07,1.1,-1.22,4.09,7.14,939.91,20.98,
6403565,-0.01,-0.06,1.11,-1.04,3.05,7.39,939.91,20.97,
6403604,-0.02,-0.07,1.08,-1.1,3.3,7.32,939.86,20.97,
6403642,-0.01,-0.07,1.09,-0.92,2.14,7.39,939.93,20.98,
6403680,-0.03,-0.06,1.08,-0.73,1.65,7.39,939.93,20.99,
6403719,-0.03,-0.07,1.04,-0.61,0.85,7.32,939.87,20.96,
6403757,-0.02,-0.07,1.02,-1.04,1.34,7.08,939.9,20.98,
6403807,-0.03,-0.06,1.02,-1.16,1.34,7.02,939.89,20.96,
6403845,-0.03,-0.08,1.0,-1.28,2.14,7.14,939.89,20.97,
6403884,-0.02,-0.07,0.95,-1.46,1.53,7.02,939.88,20.98,
6403922,-0.05,-0.06,1.0,-1.1,1.34,6.9,939.9,20.98,
6403960,-0.05,-0.07,0.96,-1.34,2.56,7.02,939.88,20.97,
6403998,-0.04,-0.06,0.99,-1.4,2.2,6.96,939.85,20.97,
6404037,-0.03,-0.07,1.03,-1.28,2.93,6.9,939.91,20.98,
6404075,-0.02,-0.07,1.05,-1.28,2.93,7.2,939.92,20.98,
6404113,-0.04,-0.07,1.08,-1.34,3.42,7.26,939.91,20.98,
6404152,-0.04,-0.06,1.09,-1.22,3.6,7.14,939.92,20.98,
6404202,-0.04,-0.06,1.14,-1.22,4.03,7.2,939.92,20.97,
6404240,-0.03,-0.06,1.18,-1.16,4.09,7.14,940.0,20.99,
6404278,-0.03,-0.07,1.18,-1.4,5.25,7.02,939.92,20.98,
6404316,-0.02,-0.06,1.18,-1.22,4.27,6.96,939.9,20.98,
6404355,-0.03,-0.06,1.16,-1.1,4.76,7.2,939.96,20.98,
6404393,-0.02,-0.05,1.19,-1.16,3.23,7.02,940.0,20.97,
6404431,-0.02,-0.05,1.2,-1.28,2.99,7.08,939.95,20.98,
6404470,-0.01,-0.05,1.22,-1.4,3.05,7.08,939.97,20.97,
6404508,-0.01,-0.06,1.22,-1.22,2.26,6.96,939.88,20.98,
6404558,-0.01,-0.05,1.24,-0.92,0.73,6.77,939.97,20.97,
6404596,-0.03,-0.06,1.11,-1.04,1.53,7.02,939.97,20.98,
6404635,-0.04,-0.08,1.09,-0.31,0.49,6.84,939.93,20.98,
6404673,-0.04,-0.09,1.01,-0.98,1.53,6.65,939.97,20.99,
6404711,-0.04,-0.06,0.98,-0.31,0.0,6.47,939.89,20.98,
6404749,-0.02,-0.06,1.01,-0.79,-0.37,6.47,939.85,20.99,
6404788,-0.05,-0.07,1.03,-1.53,-0.18,6.71,939.78,20.96,
6404826,-0.03,-0.08,1.16,-1.4,-0.12,6.65,939.85,20.99,
6404864,-0.05,-0.07,1.17,-1.89,0.31,6.65,939.83,20.98,
6404914,-0.05,-0.06,1.22,-1.83,-0.55,6.65,939.85,20.98,
6404953,-0.03,-0.06,1.19,-1.71,0.18,6.35,939.84,20.98,
6404991,-0.05,-0.07,1.16,-1.71,1.1,6.65,939.82,20.98,
6405029,-0.06,-0.06,1.11,-1.71,0.79,6.84,939.76,20.97,
6405067,-0.06,-0.06,1.12,-2.01,2.32,6.71,939.85,20.98,
6405106,-0.06,-0.05,1.17,-1.71,3.05,6.71,939.78,20.98,
6405144,-0.05,-0.05,1.23,-1.34,3.42,7.02,939.8,21.0,
6405182,-0.05,-0.06,1.2,-0.85,4.33,7.02,939.85,20.99,
6405221,-0.06,-0.06,1.16,-0.61,5.74,7.08,939.83,20.99,
6405259,-0.04,-0.05,1.13,-0.24,6.96,7.32,939.8,20.98,
6405309,-0.06,-0.05,1.12,0.43,7.02,7.45,939.75,20.98,
6405348,-0.06,-0.08,1.01,0.31,8.91,7.69,939.66,20.98,
6405386,-0.03,-0.06,1.08,0.55,8.91,7.45,939.74,20.99,
6405424,-0.02,-0.06,1.02,0.85,10.31,7.75,939.71,20.97,
6405462,-0.02,-0.06,0.96,1.04,10.74,7.81,939.74,20.97,
6405501,-0.03,-0.07,0.98,1.59,12.27,7.81,939.68,20.99,
6405539,-0.03,-0.08,0.91,1.28,14.71,7.93,939.74,21.0,
6405577,-0.02,-0.07,0.96,1.71,14.89,7.81,939.7,20.98,
6405616,-0.02,-0.09,0.93,1.16,17.03,7.93,939.62,20.98,
6405666,0.0,-0.07,1.02,0.79,17.52,7.57,939.62,20.98,
6405704,-0.0,-0.08,1.0,0.43,18.25,7.87,939.61,20.98,
6405742,0.0,-0.08,1.02,0.55,17.52,7.93,939.61,20.98,
6405781,0.01,-0.06,1.03,0.31,17.76,7.87,939.72,20.99,
6405819,-0.01,-0.06,1.07,0.61,16.6,7.87,939.68,21.0,
6405857,-0.01,-0.08,1.05,0.73,15.62,7.87,939.65,20.98,
6405896,0.01,-0.08,1.06,0.98,13.98,7.87,939.72,20.99,
6405934,0.02,-0.07,1.09,0.79,13.12,7.63,939.75,20.98,
6405972,0.03,-0.08,1.08,0.61,12.33,7.51,939.8,20.98,
6406011,0.03,-0.07,1.1,0.61,11.05,7.32,939.75,20.98,
6406088,0.02,-0.07,1.1,0.43,10.13,7.02,939.77,20.94,
6406126,0.02,-0.07,1.07,0.0,9.46,6.59,939.78,20.97,
6406164,0.02,-0.07,1.07,0.12,8.42,6.35,939.82,20.97,
6406254,0.01,-0.06,1.13,-0.61,8.12,5.98,939.84,20.94,
6406293,0.01,-0.07,1.12,-0.85,8.18,6.04,939.83,20.96,
6406331,-0.01,-0.06,1.14,-0.79,7.63,5.68,939.81,20.94,
6406369,-0.02,-0.07,1.13,-0.85,7.75,5.74,939.87,20.96,
6406408,-0.02,-0.07,1.12,-0.55,6.29,5.86,939.85,20.96,
6406446,-0.01,-0.07,1.14,-0.18,5.98,5.68,939.89,20.97,
6406484,-0.02,-0.07,1.1,-0.18,5.55,5.74,939.93,20.98,
6406534,-0.02,-0.06,1.09,-0.06,4.64,5.8,939.88,20.96,
6406573,-0.03,-0.07,1.05,0.49,4.09,5.92,939.87,20.97,
6406611,-0.02,-0.08,1.06,0.61,3.3,6.16,939.87,20.97,
6406649,-0.02,-0.07,1.01,0.49,2.32,5.74,939.88,20.97,
6406687,-0.03,-0.06,1.02,0.67,2.08,6.04,939.86,20.97,
6406726,-0.02,-0.07,0.99,0.67,1.71,5.98,939.86,20.97,
6406764,-0.01,-0.07,1.03,0.92,1.04,5.74,939.88,20.99,
6406802,-0.02,-0.08,0.98,0.73,1.34,6.04,939.87,20.99,
6406841,-0.02,-0.07,1.01,0.67,1.53,5.8,939.83,20.98,
6406891,-0.02,-0.08,0.99,0.49,1.46,6.04,939.82,20.98,
6406929,-0.02,-0.08,1.02,0.67,0.24,5.92,939.88,20.97,
6406967,-0.01,-0.08,0.99,0.31,0.55,5.98,939.87,20.98,
6407005,-0.02,-0.06,1.0,0.43,-0.18,5.98,939.85,20.98,
6407044,-0.02,-0.07,0.99,0.31,0.31,5.74,939.91,20.98,
6407082,-0.02,-0.07,0.98,0.24,0.31,5.74,939.84,20.98,
6407120,-0.02,-0.08,1.02,0.85,1.04,5.8,939.84,20.98,
6407159,-0.02,-0.08,0.98,0.55,1.59,5.55,939.79,20.97,
6407197,-0.02,-0.06,1.0,1.04,1.04,5.31,939.82,20.98,
6407235,-0.01,-0.07,0.96,0.79,2.32,5.31,939.86,20.98,
6407285,-0.01,-0.07,0.99,0.92,2.01,5.25,939.86,20.98,
6407324,-0.02,-0.07,0.98,0.73,2.93,5.25,939.86,20.98,
6407362,-0.02,-0.07,0.99,0.98,2.75,5.07,939.86,20.98,
6407400,-0.03,-0.07,0.98,0.92,2.44,5.13,939.86,20.99,
6407438,-0.02,-0.07,1.01,0.67,2.56,5.0,939.8,20.97,
6407477,-0.02,-0.08,0.97,0.31,2.81,5.07,939.81,20.99,
6407515,-0.02,-0.06,0.97,0.24,1.34,5.07,939.78,20.98,
6407553,-0.02,-0.07,0.96,-0.24,1.65,5.0,939.77,20.99,
6407592,-0.02,-0.07,0.95,-0.73,-0.85,5.07,939.73,20.99,
6407630,-0.02,-0.08,0.97,-0.98,-2.26,5.31,939.63,20.99,
6407680,-0.03,-0.07,0.96,-1.65,-5.43,5.25,939.64,20.97,
6407718,-0.02,-0.08,0.99,-1.95,-6.9,5.13,939.61,20.97,
6407756,-0.01,-0.07,0.99,-2.56,-8.79,5.0,939.6,20.99,
6407795,-0.04,-0.07,1.03,-2.5,-9.7,5.13,939.58,20.98,
6407833,-0.02,-0.07,1.02,-3.23,-9.46,4.94,939.59,20.98,
6407871,-0.05,-0.05,1.11,-2.26,-10.5,4.7,939.6,20.99,
6407910,-0.06,-0.06,1.12,-2.2,-10.07,4.82,939.63,20.99,
6407948,-0.05,-0.06,1.17,-1.59,-10.13,4.52,939.66,20.99,
6407986,-0.05,-0.05,1.19,-1.4,-8.48,4.58,939.71,20.99,
6408037,-0.05,-0.06,1.21,-0.67,-8.12,4.58,939.67,20.98,
6408075,-0.08,-0.06,1.21,-0.55,-6.16,4.7,939.7,20.98,
6408113,-0.05,-0.05,1.2,-0.24,-5.43,4.52,939.72,20.98,
6408151,-0.04,-0.04,1.19,0.06,-4.39,4.46,939.65,20.98,
6408190,-0.05,-0.06,1.14,0.31,-4.82,4.76,939.7,20.99,
6408228,-0.06,-0.06,1.12,0.24,-4.58,4.7,939.72,21.0,
6408266,-0.05,-0.05,1.1,0.12,-3.6,4.7,939.73,21.0,
6408305,-0.05,-0.06,1.12,0.37,-2.99,5.0,939.73,20.99,
6408343,-0.04,-0.06,1.12,0.49,-2.56,4.76,939.74,20.99,
6408393,-0.07,-0.06,1.11,1.1,-1.65,5.37,939.69,20.98,
6408431,-0.04,-0.06,1.12,1.28,-1.1,5.37,939.75,20.99,
6408470,-0.04,-0.04,1.11,1.1,-0.18,5.07,939.7,20.99,
6408508,-0.06,-0.04,1.12,1.59,-0.37,5.49,939.78,20.99,
6408546,-0.05,-0.06,1.11,1.89,0.98,5.68,939.69,20.98,
6408584,-0.03,-0.06,1.12,1.89,1.16,5.8,939.69,20.99,
6408623,-0.03,-0.05,1.14,2.08,0.85,6.23,939.71,20.99,
6408661,-0.05,-0.05,1.13,2.2,1.22,6.47,939.74,20.98,
6408699,-0.02,-0.06,1.1,2.2,2.08,6.1,939.7,20.99,
6408737,-0.02,-0.06,1.12,2.44,2.75,6.16,939.76,20.99,
6408787,-0.02,-0.06,1.05,2.62,3.6,6.35,939.71,20.97,
6408826,-0.01,-0.05,1.02,3.11,4.21,6.23,939.66,20.98,
6408864,-0.0,-0.06,0.98,3.05,5.07,6.04,939.64,20.98,
6408902,-0.0,-0.07,0.94,3.36,5.49,6.04,939.62,20.98,
6408941,0.01,-0.08,0.92,3.23,6.35,5.86,939.65,21.01,
6408979,0.0,-0.07,0.92,3.36,6.16,5.8,939.62,20.98,
6409017,0.0,-0.06,0.9,3.17,6.29,5.86,939.57,20.99,
6409056,-0.0,-0.07,0.89,3.11,6.77,5.62,939.61,20.98,
6409094,0.0,-0.08,0.87,3.11,7.32,5.62,939.55,20.99,
6409132,0.0,-0.07,0.85,2.99,7.02,5.62,939.58,20.99,
6409208,0.0,-0.06,0.81,2.81,7.69,5.37,939.56,20.96,
6409247,0.01,-0.07,0.79,2.5,8.24,5.13,939.55,20.98,
6409285,0.01,-0.07,0.82,2.62,7.81,5.19,939.55,20.98,
6409375,0.02,-0.07,0.85,2.38,8.67,4.94,939.53,20.94,
6409413,0.01,-0.07,0.88,2.62,8.61,4.64,939.56,20.96,
6409451,0.0,-0.07,0.86,2.38,9.09,4.64,939.51,20.96,
6409490,0.01,-0.07,0.88,2.26,9.22,4.46,939.52,20.97,
6409528,0.02,-0.07,0.9,2.44,9.52,4.39,939.54,20.98,
6409566,0.01,-0.07,0.87,2.62,9.58,4.39,939.56,20.98,
6409616,0.0,-0.07,0.83,2.75,10.07,4.15,939.48,20.96,
6409654,0.02,-0.07,0.84,2.87,10.31,3.85,939.53,20.97,
6409693,0.02,-0.07,0.82,3.11,10.5,3.97,939.53,20.97,
6409731,0.01,-0.07,0.82,3.3,10.5,3.97,939.53,20.98,
6409769,0.01,-0.07,0.81,2.87,10.93,3.66,939.52,20.98,
6409808,0.01,-0.07,0.84,2.99,10.68,3.72,939.5,20.97,
6409846,0.01,-0.07,0.84,2.87,10.31,3.42,939.54,20.98,
6409884,0.01,-0.07,0.84,2.99,9.95,3.6,939.55,20.98,
6409923,0.01,-0.07,0.84,2.99,10.19,3.42,939.52,20.99,
6409961,0.02,-0.07,0.84,2.81,10.13,3.3,939.5,20.99,
6410011,0.01,-0.06,0.84,2.69,9.34,3.23,939.5,20.97,
6410049,0.0,-0.07,0.83,2.44,9.28,3.17,939.58,20.97,
6410088,0.01,-0.07,0.85,2.38,8.91,3.11,939.51,20.98,
6410126,0.01,-0.07,0.85,2.32,8.67,2.81,939.56,20.98,
6410164,0.0,-0.07,0.83,2.44,8.36,2.75,939.56,20.97,
6410202,0.0,-0.07,0.83,2.26,8.42,2.75,939.52,20.98,
6410240,0.01,-0.07,0.83,2.14,8.54,2.62,939.6,20.99,
6410279,0.01,-0.07,0.83,1.95,8.36,2.5,939.56,20.98,
6410317,-0.0,-0.07,0.83,1.89,8.36,2.5,939.57,20.99,
6410355,-0.0,-0.07,0.84,1.77,8.06,2.44,939.57,21.0,
6410405,0.01,-0.06,0.87,1.65,7.39,2.26,939.52,20.97,
6410444,-0.0,-0.06,0.88,1.53,7.2,2.2,939.61,20.98,
6410482,0.0,-0.06,0.92,1.59,7.14,2.26,939.6,20.99,
6410520,0.01,-0.06,0.94,1.53,7.26,2.2,939.64,20.98,
6410559,0.01,-0.06,0.94,1.65,6.9,2.08,939.59,20.97,
6410597,-0.0,-0.07,0.94,1.53,7.32,2.08,939.63,20.98,
6410635,0.01,-0.06,0.96,1.65,8.0,1.89,939.59,20.99,
6410674,-0.0,-0.06,0.99,1.89,8.48,1.95,939.64,20.99,
6410712,0.01,-0.06,0.99,1.77,8.67,1.89,939.62,20.99,
6410750,0.0,-0.05,1.04,2.26,8.91,1.71,939.58,20.97,
6410800,-0.01,-0.06,1.02,2.01,9.83,1.83,939.66,20.97,
6410838,-0.0,-0.06,1.08,2.56,9.89,1.59,939.65,20.99,
6410877,0.01,-0.06,1.07,2.38,10.86,1.59,939.64,20.98,
6410915,0.01,-0.05,1.08,2.62,10.99,1.53,939.6,20.99,
6410953,0.0,-0.05,1.05,2.5,11.6,1.65,939.66,20.99,
6410992,-0.0,-0.05,1.06,2.81,11.23,1.71,939.62,20.98,
6411030,-0.0,-0.05,1.1,2.99,11.17,1.71,939.67,20.99,
6411068,0.01,-0.06,1.06,2.99,11.6,1.89,939.61,21.0,
6411106,0.01,-0.05,1.06,3.23,11.41,1.77,939.64,20.98,
6411156,0.02,-0.05,1.01,3.11,11.9,1.46,939.62,20.97,
6411195,0.0,-0.05,1.02,3.36,11.47,1.59,939.64,20.97,
6411233,-0.01,-0.07,0.98,3.42,12.57,1.4,939.63,20.99,
6411271,-0.01,-0.07,0.95,3.48,13.0,1.22,939.66,20.99,
6411310,0.02,-0.07,0.93,3.48,13.67,1.28,939.67,20.99,
6411348,0.01,-0.07,0.89,3.23,13.85,1.04,939.7,20.98,
6411386,0.0,-0.06,0.92,3.72,13.61,1.1,939.65,21.0,
6411425,0.03,-0.08,0.89,3.42,14.59,0.85,939.71,20.99,
6411463,0.03,-0.07,0.91,3.36,14.04,0.79,939.73,21.0,
6411501,0.01,-0.07,0.83,3.05,14.16,0.79,939.72,20.98,
6411551,0.01,-0.08,0.76,3.05,13.12,0.55,939.72,20.99,
6411589,0.03,-0.09,0.72,2.75,12.15,0.24,939.78,20.99,
6411628,0.04,-0.08,0.72,2.01,10.56,0.06,939.79,21.01,
6411666,0.01,-0.08,0.68,1.16,10.31,0.0,939.78,20.99,
6411704,0.0,-0.08,0.7,0.79,9.58,-0.49,939.76,21.0,
6411743,0.02,-0.08,0.75,0.12,8.0,-0.67,939.78,20.99,
6411781,0.03,-0.07,0.8,-0.49,7.2,-0.79,939.78,21.0,
6411819,0.01,-0.06,0.88,-0.98,6.29,-1.04,939.84,21.0,
6411858,0.0,-0.07,0.87,-1.22,6.23,-1.16,939.83,20.99,
6411908,-0.01,-0.05,0.97,-1.22,4.76,-1.46,939.86,20.98,
6411946,-0.01,-0.06,1.01,-1.28,4.15,-1.4,939.84,21.0,
6411984,-0.01,-0.05,1.04,-1.59,4.09,-1.59,939.81,20.99,
6412022,-0.02,-0.04,1.15,-1.28,2.69,-1.46,939.89,21.0,
6412061,-0.02,-0.06,1.16,-0.92,1.22,-1.46,939.85,20.99,
6412099,-0.03,-0.04,1.18,-0.85,0.06,-1.59,939.85,20.99,
6412137,-0.02,-0.04,1.21,-0.55,0.43,-1.4,939.88,21.0,
6412176,-0.0,-0.04,1.17,-0.61,-0.55,-1.4,939.9,21.0,
6412214,-0.03,-0.03,1.2,0.0,-1.04,-1.4,939.85,20.99,
6412252,-0.03,-0.05,1.14,-0.12,-0.06,-1.59,939.91,21.0,
6412328,-0.03,-0.05,1.14,0.61,-0.24,-1.83,939.92,20.96,
6412367,-0.02,-0.04,1.15,1.04,-0.85,-2.01,939.9,20.98,
6412405,-0.03,-0.04,1.15,1.4,-0.12,-2.01,939.91,20.99,
6412495,-0.03,-0.05,1.12,1.71,0.06,-2.01,939.9,20.95,
6412533,-0.04,-0.04,1.09,1.53,0.12,-2.38,939.91,20.96,
6412571,-0.03,-0.05,1.11,1.53,0.37,-2.08,939.96,20.97,
6412610,-0.03,-0.06,1.07,1.77,0.43,-2.2,940.01,20.98,
6412648,-0.03,-0.05,1.06,2.14,0.55,-2.38,939.97,20.98,
6412686,-0.04,-0.05,1.03,2.5,0.92,-2.32,939.95,20.98,
6412736,-0.04,-0.05,1.01,2.81,0.43,-2.38,939.92,20.97,
6412775,-0.04,-0.06,0.96,2.62,0.55,-2.38,939.95,20.97,
6412813,-0.04,-0.05,1.03,3.05,0.24,-2.38,939.93,20.98,
6412851,-0.04,-0.06,1.01,2.5,1.04,-2.38,939.91,20.98,
6412889,-0.04,-0.04,1.07,2.56,0.49,-2.26,939.91,20.98,
6412928,-0.04,-0.06,1.08,2.75,1.28,-2.38,939.91,20.98,
6412966,-0.04,-0.06,1.07,2.81,1.34,-2.2,939.94,20.99,
6413004,-0.05,-0.05,1.07,2.81,1.22,-2.08,939.94,20.98,
6413043,-0.06,-0.05,1.04,2.75,0.98,-1.95,939.92,20.99,
6413081,-0.05,-0.05,1.05,3.05,0.85,-2.08,939.93,20.98,
6413131,-0.04,-0.06,1.04,2.93,0.61,-1.95,939.92,20.97,
6413169,-0.06,-0.05,1.05,3.11,0.61,-1.71,939.94,20.98,
6413208,-0.05,-0.06,1.04,3.05,0.79,-1.71,939.96,20.99,
6413246,-0.05,-0.06,1.04,3.36,0.85,-1.77,939.98,20.99,
6413284,-0.06,-0.06,1.02,3.11,0.73,-1.53,939.98,20.99,
6413322,-0.05,-0.06,0.99,3.17,0.43,-1.59,939.94,20.99,
6413360,-0.05,-0.06,0.98,3.05,0.61,-1.53,939.97,20.98,
6413399,-0.05,-0.06,0.95,3.05,0.49,-1.46,939.93,20.98,
6413437,-0.05,-0.06,0.94,3.05,0.67,-1.34,939.89,20.98,
6413487,-0.05,-0.06,0.93,2.99,0.61,-1.4,940.01,20.98,
6413525,-0.05,-0.07,0.9,2.75,0.43,-1.22,939.93,20.99,
6413563,-0.05,-0.06,0.89,2.87,-0.24,-1.22,939.93,20.99,
6413602,-0.05,-0.06,0.85,2.75,-0.18,-1.16,939.96,20.99,
6413640,-0.04,-0.07,0.84,2.69,-0.31,-0.98,939.95,21.0,
6413678,-0.05,-0.06,0.83,2.56,-0.37,-1.04,939.93,21.0,
6413717,-0.05,-0.07,0.84,2.56,0.0,-1.04,940.01,21.0,
6413755,-0.07,-0.07,0.81,2.2,0.67,-0.92,939.99,21.0,
6413793,-0.06,-0.07,0.84,2.14,0.79,-0.85,940.03,21.0,
6413831,-0.06,-0.06,0.84,2.2,1.28,-0.92,940.0,20.99,
6413881,-0.06,-0.07,0.85,2.14,2.44,-0.67,940.06,21.0,
6413920,-0.05,-0.06,0.86,2.14,3.3,-0.61,940.07,20.99,
6413958,-0.07,-0.06,0.85,2.08,3.66,-0.55,940.02,20.99,
6413996,-0.05,-0.07,0.86,2.38,3.78,-0.43,940.02,20.99,
6414034,-0.06,-0.06,0.85,2.2,4.15,-0.37,940.08,21.0,
6414073,-0.05,-0.07,0.86,2.2,4.46,-0.31,940.05,20.99,
6414111,-0.05,-0.06,0.89,2.01,3.97,-0.06,940.08,20.99,
6414149,-0.05,-0.06,0.91,1.83,3.85,-0.06,940.02,21.01,
6414188,-0.05,-0.06,0.93,1.77,3.11,0.12,940.04,20.99,
6414238,-0.05,-0.07,0.94,2.01,2.26,0.24,940.06,20.98,
6414276,-0.05,-0.06,0.94,1.89,2.01,0.37,940.12,21.0,
6414314,-0.05,-0.06,0.94,2.01,1.83,0.24,940.06,20.99,
6414352,-0.04,-0.06,0.93,1.83,1.71,0.24,940.06,20.99,
6414391,-0.05,-0.07,0.95,1.89,1.53,0.37,940.06,20.99,
6414429,-0.06,-0.07,0.93,1.89,1.4,0.37,940.13,20.99,
6414467,-0.05,-0.06,0.95,2.01,1.04,0.37,940.08,20.99,
6414505,-0.05,-0.06,0.92,1.71,1.16,0.49,940.13,21.0,
6414544,-0.05,-0.06,0.92,1.89,0.55,0.43,940.12,21.0,
6414582,-0.05,-0.07,0.91,1.71,0.61,0.43,940.13,20.99,
6414632,-0.05,-0.06,0.93,1.83,0.31,0.49,940.12,20.99,
6414670,-0.04,-0.07,0.91,1.71,0.43,0.49,940.16,21.0,
6414708,-0.04,-0.06,0.92,1.59,-0.06,0.49,940.12,20.99,
6414747,-0.05,-0.07,0.91,1.46,0.06,0.67,940.15,21.0,
6414785,-0.06,-0.07,0.9,1.16,0.0,0.43,940.13,20.99,
6414823,-0.05,-0.07,0.9,1.04,0.18,0.37,940.16,20.99,
6414861,-0.04,-0.07,0.95,0.73,-0.06,0.43,940.19,21.01,
6414900,-0.04,-0.07,0.96,0.31,0.37,0.55,940.23,21.0,
6414938,-0.04,-0.06,1.02,-0.12,0.37,0.43,940.16,20.99,
6414988,-0.06,-0.06,1.06,-0.31,1.16,0.43,940.27,20.99,
6415026,-0.04,-0.07,1.08,-0.18,1.59,0.49,940.23,20.99,
6415064,-0.04,-0.06,1.09,-0.06,2.69,0.43,940.24,21.0,
6415103,-0.05,-0.06,1.06,0.0,3.91,0.55,940.27,21.0,
6415141,-0.04,-0.05,1.08,0.31,3.48,0.55,940.3,21.0,
6415179,-0.05,-0.06,1.05,0.12,4.33,0.49,940.31,21.0,
6415217,-0.04,-0.06,1.05,0.18,4.39,0.43,940.31,21.01,
6415256,-0.05,-0.06,1.07,0.12,4.7,0.61,940.33,21.01,
6415294,-0.04,-0.06,1.09,0.31,4.64,0.49,940.31,21.0,
6415332,-0.05,-0.06,1.1,0.43,4.39,0.55,940.31,21.0,
6415408,-0.04,-0.06,1.09,0.92,4.21,0.73,940.34,20.98,
6415446,-0.04,-0.06,1.06,1.1,4.21,0.67,940.34,20.98,
6415485,-0.05,-0.06,1.01,1.28,4.46,0.67,940.4,20.99,
6415575,-0.05,-0.06,0.99,1.95,3.78,0.73,940.32,20.96,
6415613,-0.06,-0.06,1.01,2.38,3.54,0.92,940.4,20.99,
6415651,-0.04,-0.06,0.98,2.56,3.23,0.92,940.39,20.98,
6415689,-0.05,-0.06,1.0,2.56,2.81,1.04,940.31,20.98,
6415727,-0.05,-0.07,1.0,2.81,2.56,1.04,940.37,20.99,
6415766,-0.06,-0.07,1.0,2.75,1.65,1.22,940.39,20.99,
6415804,-0.05,-0.07,0.97,2.81,1.53,1.28,940.42,21.0,
6415854,-0.05,-0.06,0.93,2.69,0.85,1.46,940.45,20.98,
6415892,-0.06,-0.06,0.89,2.62,0.85,1.34,940.42,20.98,
6415930,-0.06,-0.06,0.89,2.81,0.61,1.65,940.45,20.99,
6415969,-0.05,-0.06,0.91,2.5,0.61,1.59,940.43,21.0,
6416007,-0.05,-0.07,0.89,2.38,0.55,1.65,940.45,20.99,
6416045,-0.05,-0.06,0.91,2.5,0.0,1.77,940.44,20.99,
6416083,-0.06,-0.06,0.9,2.14,0.61,1.89,940.43,21.0,
6416122,-0.04,-0.06,0.9,1.89,0.43,1.89,940.5,20.99,
6416160,-0.05,-0.07,0.89,1.89,0.55,1.95,940.47,20.99,
6416210,-0.05,-0.06,0.89,1.65,0.49,2.01,940.43,20.98,
6416248,-0.05,-0.08,0.9,1.59,1.04,2.01,940.51,20.99,
6416287,-0.04,-0.07,0.91,1.28,1.4,1.95,940.52,20.98,
6416325,-0.05,-0.07,0.92,1.22,1.95,1.89,940.57,20.99,
6416363,-0.04,-0.07,0.93,0.98,2.26,1.89,940.49,20.99,
6416401,-0.04,-0.07,0.93,1.1,2.44,1.89,940.56,21.0,
6416440,-0.05,-0.07,0.91,1.28,2.81,1.89,940.57,20.99,
6416478,-0.04,-0.06,0.94,1.1,2.99,1.95,940.52,21.0,
6416516,-0.05,-0.07,0.97,1.28,3.11,1.89,940.58,21.0,
6416554,-0.05,-0.07,0.97,1.46,3.05,2.01,940.54,21.0,
6416604,-0.06,-0.08,1.02,1.77,3.23,1.83,940.62,20.98,
6416643,-0.06,-0.06,1.0,1.65,3.48,1.89,940.6,20.99,
6416681,-0.04,-0.05,0.99,1.89,3.17,1.89,940.64,20.99,
6416719,-0.05,-0.06,0.99,1.65,3.66,1.77,940.57,20.99,
6416757,-0.04,-0.08,0.98,1.89,3.54,1.89,940.66,20.99,
6416796,-0.04,-0.06,0.98,1.77,3.78,1.83,940.64,20.99,
6416834,-0.05,-0.06,1.0,1.77,3.85,1.71,940.57,20.99,
6416872,-0.04,-0.08,0.99,1.83,3.36,1.71,940.66,20.99,
6416911,-0.05,-0.08,1.01,1.89,3.48,1.83,940.7,21.01,
6416949,-0.05,-0.07,1.0,1.71,3.23,1.65,940.65,21.0,
6416999,-0.05,-0.07,1.02,1.71,3.23,1.83,940.58,20.98,
6417037,-0.04,-0.07,1.01,2.01,2.56,1.65,940.65,21.0,
6417075,-0.03,-0.06,1.01,1.95,2.81,1.77,940.68,21.0,
6417114,-0.04,-0.06,1.01,1.77,2.5,1.77,940.68,20.99,
6417152,-0.04,-0.06,1.04,2.08,1.83,1.77,940.69,21.0,
6417190,-0.05,-0.07,1.01,1.77,2.32,1.59,940.72,20.99,
6417228,-0.04,-0.05,1.04,1.95,1.59,1.77,940.69,21.0,
6417267,-0.04,-0.06,1.04,1.89,1.83,1.83,940.73,20.99,
6417305,-0.04,-0.06,1.02,1.83,1.16,1.71,940.77,21.0,
6417355,-0.04,-0.06,1.02,2.01,1.16,1.77,940.74,20.99,
6417393,-0.04,-0.07,1.01,2.01,0.98,1.65,940.74,20.99,
6417431,-0.04,-0.07,1.02,2.01,0.73,1.65,940.81,21.0,
6417470,-0.04,-0.07,0.99,1.95,0.85,1.65,940.78,21.0,
6417508,-0.04,-0.06,1.02,2.14,0.61,1.71,940.78,20.99,
6417546,-0.04,-0.06,1.0,2.38,0.79,1.59,940.82,20.99,
6417584,-0.05,-0.07,0.98,2.93,0.79,1.46,940.86,21.01,
6417623,-0.04,-0.07,0.98,2.93,0.98,1.34,940.82,20.99,
6417661,-0.03,-0.06,0.96,3.05,0.98,1.46,940.86,20.99,
6417699,-0.04,-0.06,0.93,3.11,0.55,1.34,940.9,21.01,
6417749,-0.04,-0.07,0.89,2.87,1.22,1.46,940.87,21.0,
6417788,-0.04,-0.06,0.9,2.69,0.85,1.53,940.88,20.99,
6417826,-0.05,-0.07,0.88,2.5,0.98,1.59,940.85,20.99,
6417864,-0.04,-0.07,0.89,2.2,0.79,1.46,940.92,20.99,
6417902,-0.04,-0.07,0.91,2.01,0.92,1.46,940.91,21.0,
6417941,-0.04,-0.07,0.9,1.53,0.79,1.34,940.96,21.0,
6417979,-0.03,-0.07,0.91,1.65,0.61,1.53,940.95,21.0,
6418017,-0.04,-0.07,0.91,1.04,1.22,1.59,940.96,21.01,
6418055,-0.04,-0.07,0.93,1.04,1.22,1.34,940.93,21.01,
6418094,-0.04,-0.07,0.94,0.79,1.59,1.65,940.91,21.0,
6418144,-0.05,-0.08,0.95,0.85,1.53,1.4,940.99,20.99,
6418182,-0.04,-0.07,0.96,0.67,1.89,1.46,940.98,20.99,
6418220,-0.04,-0.07,0.96,0.49,1.71,1.53,940.97,20.99,
6418258,-0.04,-0.07,0.97,0.37,1.77,1.65,941.06,20.99,
6418297,-0.03,-0.07,0.98,0.49,1.95,1.53,941.04,21.0,
6418335,-0.03,-0.06,0.98,0.61,2.2,1.65,941.04,21.02,
6418373,-0.04,-0.07,1.0,0.49,2.2,1.77,940.99,21.0,
6418412,-0.05,-0.06,1.02,0.55,2.44,1.77,941.13,21.0,
6418450,-0.03,-0.06,1.02,0.67,2.62,1.77,941.11,21.0,
6418526,-0.05,-0.06,1.01,1.1,3.23,1.95,941.14,20.97,
6418564,-0.04,-0.07,1.01,1.28,3.42,1.89,941.16,20.99,
6418603,-0.03,-0.06,1.01,1.71,3.66,1.95,941.12,20.98,
6418693,-0.03,-0.07,1.02,2.08,3.85,2.26,941.13,20.96,
6418731,-0.04,-0.07,1.02,2.2,3.6,2.38,941.16,20.97,
6418769,-0.05,-0.06,1.01,2.5,3.78,2.5,941.15,20.97,
6418808,-0.04,-0.06,1.01,2.56,3.72,2.5,941.2,20.97,
6418846,-0.03,-0.06,1.0,2.75,3.48,2.38,941.27,20.99,
6418884,-0.03,-0.07,0.97,2.93,3.11,2.69,941.22,20.98,
6418922,-0.04,-0.07,0.96,3.11,3.05,2.69,941.25,20.99,
6418972,-0.03,-0.07,0.93,3.36,3.11,2.81,941.27,20.97,
6419011,-0.04,-0.07,0.94,3.42,2.99,2.75,941.24,20.99,
6419049,-0.04,-0.07,0.9,3.42,3.3,2.75,941.25,20.97,
6419087,-0.03,-0.07,0.9,3.3,3.05,2.87,941.3,20.98,
6419126,-0.04,-0.07,0.89,3.3,3.17,2.56,941.29,20.99,
6419164,-0.03,-0.07,0.89,3.3,2.81,2.81,941.28,20.98,
6419202,-0.03,-0.07,0.88,3.48,2.99,2.87,941.34,20.99,
6419241,-0.04,-0.07,0.87,3.3,3.42,2.87,941.32,20.99,
6419279,-0.03,-0.07,0.88,3.36,3.54,2.81,941.39,20.99,
6419317,-0.04,-0.07,0.88,3.3,3.48,2.87,941.34,20.99,
6419367,-0.03,-0.07,0.89,2.99,3.85,2.99,941.34,20.98,
6419406,-0.02,-0.07,0.88,2.87,3.91,2.93,941.4,20.98,
6419444,-0.02,-0.07,0.89,2.62,3.66,2.81,941.34,20.99,
6419482,-0.02,-0.07,0.87,2.32,4.03,2.81,941.41,20.99,
6419520,-0.03,-0.07,0.88,2.01,3.36,2.99,941.38,20.99,
6419559,-0.02,-0.07,0.88,1.83,3.36,2.93,941.4,20.99,
6419597,-0.03,-0.07,0.89,1.89,2.99,2.81,941.44,21.0,
6419635,-0.03,-0.07,0.9,1.71,3.23,2.93,941.5,21.0,
6419674,-0.02,-0.07,0.9,1.53,2.99,2.81,941.46,20.99,
6419724,-0.02,-0.07,0.93,1.53,2.99,2.87,941.51,20.99,
6419762,-0.02,-0.07,0.92,1.59,3.11,2.81,941.52,20.99,
6419800,-0.03,-0.07,0.94,1.46,2.87,2.69,941.52,20.98,
6419838,-0.02,-0.07,0.95,1.4,3.36,2.75,941.55,21.0,
6419877,-0.02,-0.07,0.96,1.34,3.3,2.69,941.56,20.99,
6419915,-0.02,-0.07,0.98,1.28,3.6,2.56,941.57,21.01,
6419953,-0.01,-0.07,0.98,1.46,3.91,2.5,941.58,21.0,
6419992,-0.02,-0.06,0.99,1.4,3.78,2.32,941.64,21.0,
6420030,-0.02,-0.06,0.99,1.34,3.91,2.44,941.64,21.01,
6420068,-0.01,-0.07,0.99,1.46,3.85,2.44,941.61,20.99,
6420118,-0.02,-0.06,1.0,1.16,4.03,2.2,941.63,21.0,
6420157,-0.01,-0.06,1.0,1.28,3.91,2.26,941.68,21.0,
6420195,-0.02,-0.07,1.01,1.34,3.72,2.2,941.69,21.0,
6420233,-0.01,-0.07,1.02,1.16,3.54,1.95,941.69,21.0,
6420271,-0.0,-0.06,1.02,1.28,3.3,1.89,941.7,20.99,
6420310,-0.01,-0.07,1.03,1.28,2.87,1.89,941.7,20.99,
6420348,-0.01,-0.06,1.03,1.22,2.44,1.65,941.72,21.0,
6420386,-0.01,-0.07,1.02,1.4,2.44,1.46,941.75,20.99,
6420425,-0.01,-0.07,1.01,1.53,2.26,1.59,941.78,21.0,
6420475,-0.01,-0.07,1.02,1.65,1.89,1.34,941.82,20.99,
6420513,-0.02,-0.07,1.01,1.59,2.26,0.98,941.78,20.99,
6420551,-0.01,-0.07,1.01,1.59,2.44,0.98,941.81,21.0,
6420589,-0.01,-0.07,1.03,1.65,2.32,0.79,941.85,21.0,
6420628,-0.02,-0.07,1.04,1.89,2.44,0.79,941.84,20.99,
6420666,-0.01,-0.07,1.02,1.83,2.93,0.73,941.85,20.99,
6420704,-0.01,-0.08,0.99,1.77,2.32,0.67,941.85,20.99,
6420743,-0.02,-0.07,0.99,1.83,2.56,0.49,941.87,20.99,
6420781,-0.02,-0.07,0.94,1.77,2.62,0.49,941.87,21.0,
6420819,-0.01,-0.07,0.96,1.83,2.2,0.49,941.89,21.0,
6420869,-0.01,-0.07,0.97,1.89,2.14,0.37,941.89,20.99,
6420908,-0.02,-0.08,0.95,1.77,2.14,0.24,941.9,21.0,
6420946,-0.03,-0.07,0.95,1.89,2.26,0.18,941.98,21.01,
6420984,-0.02,-0.08,0.96,1.83,2.32,0.18,941.94,21.01,
6421023,-0.01,-0.07,0.97,1.71,1.89,0.18,941.93,20.99,
6421061,-0.01,-0.07,1.01,1.65,1.4,0.18,941.95,21.0,
6421099,-0.02,-0.07,1.02,1.53,1.34,0.12,941.96,20.99,
6421137,-0.01,-0.07,1.03,1.53,1.34,0.06,941.92,21.0,
6421176,-0.02,-0.06,1.08,1.46,1.71,0.0,941.97,21.01,
6421214,-0.02,-0.07,1.09,1.4,1.89,-0.06,942.05,21.01,
6421264,-0.02,-0.07,1.13,1.59,2.01,-0.06,942.06,21.01,
6421302,-0.02,-0.08,1.11,1.28,2.62,-0.18,942.06,21.0,
6421341,-0.03,-0.06,1.13,1.1,2.01,0.0,942.02,20.99,
6421379,-0.02,-0.07,1.12,1.28,1.71,-0.12,942.05,21.0,
6421417,-0.03,-0.07,1.09,0.98,1.71,-0.12,942.09,21.0,
6421455,-0.02,-0.06,1.09,0.85,1.95,-0.24,942.04,21.0,
6421494,-0.02,-0.07,1.07,0.79,2.01,-0.18,942.07,21.0,
6421532,-0.03,-0.06,1.07,0.67,1.53,-0.18,942.13,21.0,
6421570,-0.03,-0.07,1.1,0.73,1.95,-0.31,942.1,21.0,
6421646,-0.02,-0.07,1.09,0.85,2.14,-0.31,942.13,20.98,
6421685,-0.03,-0.07,1.07,0.85,2.01,-0.18,942.23,21.0,
6421723,-0.03,-0.07,1.07,0.73,2.2,-0.24,942.17,20.99,
6421813,-0.04,-0.06,1.06,0.85,2.08,-0.24,942.2,20.96,
6421851,-0.03,-0.07,1.06,0.85,1.83,-0.18,942.25,20.98,
6421889,-0.03,-0.06,1.07,1.22,1.34,-0.24,942.19,20.97,
6421928,-0.03,-0.06,1.04,1.04,1.71,-0.24,942.18,20.98,
6421966,-0.03,-0.07,1.04,1.04,1.59,-0.12,942.23,20.98,
6422004,-0.03,-0.07,1.04,1.22,1.53,-0.12,942.25,20.99,
6422043,-0.04,-0.07,1.02,1.34,1.1,-0.18,942.27,20.99,
6422093,-0.04,-0.06,1.03,1.59,0.85,-0.12,942.27,20.97,
6422131,-0.04,-0.07,1.02,1.77,0.73,-0.06,942.23,20.99,
6422169,-0.04,-0.07,1.02,1.77,0.98,-0.12,942.29,20.98,
6422208,-0.05,-0.07,1.02,1.77,1.53,0.0,942.28,20.98,
6422246,-0.03,-0.07,1.0,1.83,1.59,0.06,942.31,20.99,
6422284,-0.04,-0.07,1.01,2.26,2.01,-0.06,942.3,20.99,
6422322,-0.05,-0.06,0.99,2.32,2.56,0.18,942.28,20.99,
6422361,-0.05,-0.07,0.99,2.44,2.99,0.18,942.25,21.0,
6422399,-0.05,-0.06,0.97,2.44,3.36,0.0,942.33,21.0,
6422449,-0.04,-0.07,0.97,2.69,3.66,0.24,942.36,20.98,
6422488,-0.05,-0.06,1.02,2.93,3.48,0.49,942.34,20.99,
6422526,-0.05,-0.08,1.01,2.81,4.27,0.55,942.34,20.99,
6422564,-0.05,-0.07,1.01,2.62,3.85,0.49,942.37,21.0,
6422602,-0.06,-0.06,1.06,2.75,3.66,0.67,942.32,21.0,
6422641,-0.05,-0.08,1.03,2.56,3.72,0.79,942.34,20.98,
6422679,-0.05,-0.06,1.06,2.69,2.99,0.92,942.29,21.0,
6422717,-0.05,-0.07,1.02,2.56,2.93,1.1,942.39,20.99,
6422756,-0.05,-0.07,1.02,2.38,2.14,1.34,942.33,21.01,
6422794,-0.05,-0.06,1.03,2.26,1.83,1.34,942.36,21.0,
6422844,-0.06,-0.07,1.03,2.2,1.83,1.53,942.35,20.98,
6422882,-0.06,-0.07,1.03,2.08,1.46,1.59,942.41,20.98,
6422921,-0.06,-0.07,1.06,2.32,1.65,1.71,942.42,21.0,
6422959,-0.06,-0.07,1.02,2.26,2.14,1.83,942.36,20.99,
6422997,-0.06,-0.07,1.03,2.2,1.83,1.71,942.38,21.0,
6423036,-0.06,-0.07,1.0,1.95,3.05,1.83,942.45,21.02,
6423074,-0.06,-0.06,1.01,1.77,2.87,2.14,942.37,21.01,
6423112,-0.06,-0.07,1.02,1.59,3.23,2.2,942.47,20.99,
6423150,-0.07,-0.07,1.0,1.65,3.36,2.38,942.43,21.01,
6423189,-0.07,-0.06,1.05,1.71,2.99,2.69,942.45,21.0,
6423239,-0.07,-0.07,1.02,1.65,2.75,2.62,942.5,20.98,
6423277,-0.07,-0.06,1.08,1.77,2.38,2.87,942.46,21.0,
6423315,-0.05,-0.08,1.08,1.59,3.6,3.05,942.49,21.0,
6423354,-0.05,-0.06,1.09,1.53,2.99,3.05,942.53,21.01,
6423392,-0.06,-0.06,1.11,1.89,3.11,3.23,942.53,20.99,
6423430,-0.05,-0.07,1.08,1.53,3.54,3.42,942.56,20.99,
6423469,-0.05,-0.06,1.1,1.65,3.3,3.6,942.52,21.0,
6423507,-0.04,-0.06,1.08,1.65,2.69,3.78,942.52,21.0,
6423545,-0.06,-0.06,1.1,1.77,2.2,3.97,942.57,21.02,
6423595,-0.03,-0.07,1.13,1.71,2.32,4.03,942.54,20.98,
6423634,-0.03,-0.07,1.12,1.65,2.26,4.03,942.59,20.99,
6423672,-0.04,-0.07,1.14,1.59,1.59,4.09,942.61,21.0,
6423710,-0.05,-0.07,1.15,1.65,2.26,4.03,942.6,21.01,
6423748,-0.02,-0.07,1.15,1.77,2.38,3.85,942.66,21.01,
6423787,-0.03,-0.07,1.12,1.83,2.2,3.97,942.68,21.0,
6423825,-0.04,-0.07,1.1,1.95,2.75,3.97,942.68,21.01,
6423863,-0.02,-0.07,1.08,1.71,3.23,4.03,942.65,21.0,
6423902,-0.02,-0.07,1.12,1.83,2.75,3.91,942.68,21.0,
6423940,-0.03,-0.07,1.11,1.4,2.5,4.03,942.67,21.01,
6423990,-0.03,-0.06,1.12,1.46,2.14,3.97,942.71,21.01,
6424028,-0.03,-0.07,1.14,1.16,2.44,3.97,942.72,21.01,
6424067,-0.01,-0.07,1.12,0.73,2.01,3.91,942.77,21.0,
6424105,-0.0,-0.06,1.15,0.85,2.2,3.85,942.75,21.0,
6424143,-0.01,-0.07,1.1,0.79,2.75,3.72,942.74,21.02,
6424182,-0.01,-0.07,1.12,1.04,2.38,3.6,942.74,21.01,
6424220,-0.01,-0.08,1.08,1.04,2.93,3.42,942.76,21.01,
6424258,-0.02,-0.07,1.09,1.1,2.56,3.36,942.75,21.01,
6424296,-0.02,-0.07,1.09,1.04,3.05,3.23,942.74,21.01,
6424335,-0.01,-0.08,1.09,1.1,2.87,2.99,942.74,21.01,
6424385,-0.01,-0.07,1.1,0.92,2.99,2.93,942.75,20.99,
6424423,-0.01,-0.08,1.11,0.92,3.42,2.75,942.78,21.01,
6424461,-0.01,-0.08,1.08,0.67,3.72,2.75,942.76,21.0,
6424500,-0.02,-0.07,1.1,0.92,3.78,2.62,942.78,21.01,
6424538,-0.01,-0.08,1.08,0.79,4.09,2.44,942.78,21.01,
6424576,0.0,-0.07,1.11,0.98,3.85,2.32,942.76,21.02,
6424615,-0.0,-0.07,1.09,0.79,4.33,2.2,942.8,21.02,
6424653,-0.0,-0.08,1.08,0.67,4.15,2.14,942.75,21.01,
6424691,0.0,-0.08,1.1,0.98,4.15,2.08,942.84,21.02,
6424844,-0.0,-0.08,0.93,2.01,2.99,1.28,942.81,20.95,
6424882,-0.01,-0.08,0.88,1.71,2.81,1.34,942.82,20.96,
6424921,-0.0,-0.08,0.92,1.53,3.11,1.16,942.77,20.96,
6425011,-0.01,-0.09,1.04,1.04,1.46,0.85,942.75,20.93,
6425049,-0.02,-0.08,1.12,1.28,0.85,0.73,942.81,20.96,
6425087,-0.01,-0.07,1.11,0.92,1.22,0.73,942.82,20.96,
6425126,0.0,-0.07,1.12,1.4,1.16,0.67,942.79,20.97,
6425164,-0.02,-0.09,1.06,1.16,2.08,0.49,942.82,20.97,
6425202,-0.01,-0.07,1.12,1.46,1.04,0.55,942.77,20.99,
6425240,-0.01,-0.07,1.17,1.53,1.34,0.43,942.76,20.99,
6425290,-0.0,-0.08,1.1,1.22,0.92,0.18,942.77,20.97,
6425329,-0.02,-0.07,1.17,1.34,1.59,0.06,942.73,20.98,
6425367,-0.0,-0.09,1.09,0.79,2.75,0.06,942.82,20.99,
6425405,0.0,-0.08,1.09,1.53,1.77,0.0,942.84,21.0,
6425443,-0.04,-0.09,1.01,2.01,2.2,0.12,942.8,20.98,
6425482,-0.02,-0.08,0.93,1.95,2.56,-0.12,942.82,20.99,
6425520,0.01,-0.08,0.95,2.14,3.23,-0.49,942.8,21.01,
6425558,-0.02,-0.08,0.89,1.59,2.87,-0.24,942.72,20.98,
6425596,-0.01,-0.08,0.96,1.59,2.99,-0.31,942.73,20.99,
6425635,0.01,-0.08,0.98,0.92,3.85,-0.67,942.76,20.98,
6425685,-0.01,-0.08,1.03,0.55,2.81,-0.67,942.82,20.98,
6425723,-0.03,-0.09,1.07,0.61,2.62,-0.61,942.78,20.98,
6425761,-0.04,-0.09,1.07,0.73,2.75,-0.79,942.78,20.99,
6425800,-0.01,-0.08,1.1,0.98,2.2,-0.98,942.79,21.0,
6425838,-0.02,-0.07,1.09,1.1,1.77,-0.92,942.77,20.98,
6425876,-0.02,-0.08,1.08,1.46,1.77,-0.85,942.75,20.98,
6425915,-0.03,-0.08,1.08,1.4,1.4,-0.79,942.82,20.99,
6425953,-0.03,-0.08,1.06,1.59,1.46,-0.92,942.78,20.99,
6425991,-0.03,-0.07,1.09,1.89,0.85,-1.16,942.77,21.0,
6426041,-0.04,-0.08,1.08,1.95,0.73,-0.85,942.73,20.98,
6426079,-0.03,-0.08,1.07,1.95,0.49,-0.79,942.73,20.99,
6426118,-0.03,-0.08,1.11,2.2,0.31,-0.92,942.75,21.0,
6426156,-0.02,-0.08,1.06,2.01,0.79,-0.98,942.72,20.99,
6426194,-0.04,-0.07,1.07,2.38,0.31,-0.85,942.75,21.0,
6426233,-0.05,-0.08,1.05,2.38,0.67,-0.79,942.73,21.0,
6426271,-0.04,-0.08,1.03,2.56,0.12,-1.04,942.7,21.01,
6426309,-0.04,-0.08,1.02,2.44,0.55,-0.85,942.72,21.0,
6426347,-0.05,-0.08,0.99,2.56,0.67,-0.73,942.77,21.0,
6426386,-0.05,-0.08,1.01,2.56,0.43,-0.73,942.74,21.01,
6426436,-0.04,-0.08,1.0,2.5,0.18,-0.73,942.71,21.0,
6426474,-0.06,-0.08,1.0,2.38,0.37,-0.67,942.65,21.0,
6426513,-0.05,-0.08,0.97,2.32,0.61,-0.43,942.74,21.01,
6426551,-0.05,-0.07,0.99,2.2,0.61,-0.49,942.69,21.01,
6426589,-0.06,-0.08,0.98,2.2,0.67,-0.37,942.71,21.01,
6426627,-0.05,-0.08,0.95,2.01,1.1,-0.12,942.71,21.01,
6426666,-0.05,-0.07,0.96,2.2,1.4,-0.24,942.73,21.01,
6426704,-0.06,-0.08,0.94,2.01,1.71,0.0,942.66,21.01,
6426742,-0.04,-0.08,0.93,1.83,2.01,-0.06,942.69,21.03,
6426792,-0.05,-0.07,0.95,1.89,2.56,0.0,942.66,20.99,
6426830,-0.06,-0.08,0.92,1.71,3.6,0.06,942.63,21.0,
6426869,-0.06,-0.07,0.93,1.46,3.78,-0.06,942.67,21.01,
6426907,-0.05,-0.08,0.92,1.65,4.58,0.18,942.69,21.01,
6426945,-0.05,-0.08,0.9,1.65,5.0,0.24,942.65,21.01,
6426984,-0.05,-0.08,0.97,1.95,5.31,0.31,942.69,21.01,
6427022,-0.05,-0.08,0.92,1.71,5.74,0.49,942.69,21.01,
6427060,-0.06,-0.08,0.93,1.83,5.07,0.37,942.63,21.0,
6427098,-0.05,-0.08,0.92,1.53,6.16,0.55,942.7,21.01,
6427137,-0.04,-0.07,0.9,1.59,6.04,0.79,942.69,21.02,
6427187,-0.05,-0.09,0.88,1.46,6.23,0.85,942.7,21.0,
6427225,-0.06,-0.08,0.87,1.46,6.35,0.79,942.64,21.0,
6427263,-0.05,-0.08,0.88,1.22,6.47,0.73,942.71,21.01,
6427302,-0.04,-0.08,0.87,1.34,6.04,0.98,942.68,21.01,
6427340,-0.04,-0.08,0.85,1.04,6.1,1.16,942.68,21.01,
6427378,-0.05,-0.07,0.84,1.34,5.92,1.22,942.62,21.01,
6427416,-0.03,-0.08,0.85,1.16,5.19,1.22,942.71,21.01,
6427455,-0.05,-0.07,0.88,1.04,3.36,1.4,942.7,21.02,
6427493,-0.05,-0.08,0.85,0.92,2.62,1.59,942.67,21.02,
