timestamp,acc_x,acc_y,acc_z,rot_x,rot_y,rot_z,qfe,temp
2484520,-0.03,-0.04,1.05,3.36,3.91,0.49,903.66,34.0
2484558,-0.03,-0.05,0.96,3.3,4.15,0.73,903.62,34.0
2484597,-0.06,-0.05,0.95,3.54,3.42,0.85,903.61,34.02
2484635,-0.04,-0.06,0.88,3.23,4.27,1.04,903.57,34.01
2484673,-0.05,-0.04,0.9,3.11,2.99,1.34,903.55,34.01
2484711,-0.04,-0.05,0.88,2.32,3.36,1.71,903.6,34.01
2484749,-0.06,-0.05,0.93,1.77,2.69,1.83,903.53,34.0
2484787,-0.04,-0.06,0.96,1.28,2.5,1.89,903.55,34.01
2484825,-0.03,-0.05,0.98,0.85,2.87,2.2,903.62,34.01
2484863,-0.04,-0.03,1.02,0.98,2.56,2.14,903.56,34.01
2484913,-0.04,-0.05,0.98,0.12,3.17,2.56,903.52,34.01
2484951,-0.04,-0.04,1.06,0.12,3.36,2.56,903.5,34.01
2484989,-0.03,-0.05,1.03,-0.37,5.0,2.56,903.49,34.01
2485027,-0.04,-0.03,1.07,-0.24,4.03,2.69,903.46,34.01
2485065,-0.06,-0.04,1.04,-0.37,5.8,2.75,903.49,34.02
2485103,-0.05,-0.05,1.01,-0.61,6.23,2.75,903.5,34.01
2485141,-0.05,-0.05,1.02,-0.37,8.0,2.56,903.54,34.02
2485179,-0.04,-0.05,0.92,-0.37,8.06,3.05,903.47,34.02
2485217,-0.05,-0.03,1.0,1.04,7.32,2.87,903.47,34.01
2485255,-0.03,-0.05,0.91,0.73,8.48,3.11,903.46,34.02
2485305,-0.04,-0.05,0.97,1.89,6.35,3.3,903.51,34.01
2485343,-0.04,-0.06,0.95,1.71,6.47,3.48,903.47,34.01
2485381,-0.04,-0.04,0.98,2.38,5.43,3.6,903.43,34.01
2485419,-0.05,-0.05,0.94,2.26,5.68,3.85,903.49,34.01
2485457,-0.03,-0.05,0.92,2.38,4.46,3.97,903.47,34.01
2485495,-0.04,-0.05,0.91,2.2,4.52,3.97,903.38,34.01
2485533,-0.04,-0.05,0.88,1.83,3.91,4.21,903.37,34.01
2485571,-0.03,-0.05,0.93,1.71,3.05,4.58,903.42,34.01
2485610,-0.03,-0.05,0.94,1.59,3.3,4.46,903.33,34.01
2485659,-0.03,-0.04,0.99,1.4,2.93,4.52,903.38,33.99
2485697,-0.03,-0.04,1.02,1.22,2.69,4.76,903.35,34.01
2485735,-0.02,-0.04,1.06,1.22,2.38,4.7,903.41,34.02
2485773,-0.03,-0.04,1.05,0.98,2.69,4.7,903.32,34.01
2485812,-0.03,-0.04,1.08,1.71,2.44,4.88,903.37,34.02
2485850,-0.02,-0.04,1.08,1.95,2.87,4.82,903.33,34.01
2485888,-0.02,-0.03,1.12,2.44,2.5,4.82,903.32,34.02
2485926,-0.02,-0.03,1.1,2.75,3.17,4.88,903.34,34.03
2485964,-0.02,-0.03,1.09,2.99,2.93,4.7,903.32,34.02
2486002,-0.02,-0.04,1.1,3.17,3.36,4.64,903.31,34.02
2486078,-0.02,-0.03,1.12,3.42,2.99,4.52,903.27,33.98
2486116,-0.01,-0.04,1.1,3.36,3.54,4.58,903.32,34.0
2486154,-0.01,-0.04,1.09,3.23,3.11,4.7,903.25,33.99
2486243,-0.01,-0.04,1.05,2.93,3.48,4.39,903.21,33.97
2486281,-0.01,-0.04,1.04,2.93,3.78,4.39,903.22,33.97
2486319,-0.01,-0.05,1.0,2.56,3.85,4.21,903.2,33.99
2486357,-0.01,-0.05,1.01,2.56,3.85,4.09,903.2,33.99
2486395,-0.0,-0.06,0.97,1.89,4.46,4.03,903.16,33.99
2486433,-0.01,-0.05,0.98,1.95,4.03,3.97,903.16,34.0
2486483,-0.02,-0.05,0.97,1.53,3.97,3.97,903.16,33.98
2486521,-0.01,-0.06,0.99,1.16,4.15,3.91,903.2,34.01
2486559,-0.0,-0.06,0.98,1.1,4.03,3.78,903.11,34.0
2486597,-0.0,-0.05,0.99,0.79,3.97,3.72,903.16,33.99
2486636,-0.01,-0.05,0.98,0.85,3.91,3.72,903.21,34.01
2486674,0.01,-0.05,0.96,0.55,3.85,3.6,903.15,34.0
2486712,-0.0,-0.06,0.98,0.61,3.23,3.54,903.14,34.01
2486750,-0.01,-0.06,0.95,0.31,3.17,3.48,903.14,34.01
2486788,-0.0,-0.06,0.95,0.18,2.2,3.48,903.07,34.01
2486826,0.0,-0.04,0.98,0.31,1.89,3.42,903.08,34.01
2486876,0.01,-0.05,0.99,-0.12,2.01,3.48,903.07,34.01
2486914,-0.01,-0.04,1.01,0.24,1.95,3.36,903.08,34.0
2486952,-0.0,-0.05,1.04,0.31,2.14,3.17,903.05,34.01
2486990,-0.0,-0.04,1.06,0.49,2.44,3.05,903.05,34.0
2487028,-0.01,-0.04,1.07,0.49,3.23,3.11,903.06,34.01
2487066,0.0,-0.04,1.06,0.85,3.36,2.87,903.02,34.0
2487104,-0.01,-0.04,1.05,1.28,3.85,2.87,903.0,34.0
2487142,0.0,-0.04,1.03,1.4,4.15,2.69,902.99,34.01
2487180,0.0,-0.04,1.03,1.77,3.72,2.56,903.0,34.02
2487218,-0.0,-0.04,1.06,2.08,4.09,2.56,902.97,34.01
2487268,0.01,-0.03,1.1,2.38,5.19,2.26,902.99,34.01
2487306,0.01,-0.02,1.14,2.26,4.15,2.2,902.95,34.0
2487344,0.0,-0.03,1.12,2.26,4.39,2.38,902.94,34.0
2487382,-0.01,-0.04,1.05,2.38,4.64,2.32,902.91,34.0
2487420,0.01,-0.05,1.04,2.32,5.55,2.14,902.94,34.01
2487458,0.0,-0.04,1.01,2.75,5.13,2.01,902.9,34.0
2487496,-0.0,-0.04,0.95,3.05,4.94,1.83,902.94,34.02
2487534,-0.0,-0.04,0.97,3.48,4.46,1.83,902.88,34.0
2487572,0.03,-0.05,0.98,3.17,4.88,1.65,902.85,34.02
2487610,0.01,-0.05,1.0,3.11,3.91,1.53,902.8,34.01
2487660,0.0,-0.04,0.99,2.32,3.91,1.34,902.78,34.0
2487698,0.01,-0.03,1.05,2.01,2.99,1.4,902.75,34.01
2487736,0.02,-0.05,1.01,1.53,2.99,1.22,902.77,34.01
2487774,-0.01,-0.03,1.03,1.59,2.38,0.85,902.74,34.01
2487812,0.01,-0.03,1.02,1.04,2.62,0.85,902.82,34.02
2487850,0.02,-0.04,1.05,0.98,2.08,0.73,902.73,34.02
2487888,-0.02,-0.05,1.03,0.85,2.38,0.67,902.73,34.01
2487927,0.01,-0.04,1.05,0.67,2.32,0.55,902.69,34.01
2487965,0.01,-0.04,1.07,0.73,2.38,0.24,902.68,34.0
2488014,-0.01,-0.04,1.04,0.98,1.77,0.31,902.76,34.0
2488052,-0.01,-0.03,1.11,1.59,0.98,0.31,902.77,34.0
2488090,-0.0,-0.04,1.08,1.46,1.59,0.49,902.72,34.0
2488129,0.0,-0.02,1.12,1.95,-0.61,0.31,902.68,34.0
2488167,-0.02,-0.04,1.13,2.01,0.55,0.37,902.61,33.99
2488205,-0.01,-0.05,1.11,1.89,0.31,0.43,902.69,34.01
2488243,-0.02,-0.02,1.21,2.62,-0.37,0.18,902.67,34.01
2488281,-0.01,-0.03,1.13,2.44,0.67,0.31,902.58,33.99
2488319,-0.02,-0.03,1.15,2.69,0.12,0.06,902.6,34.0
2488357,-0.01,-0.03,1.11,2.87,1.59,-0.06,902.66,34.01
2488407,-0.02,-0.04,1.1,3.23,1.71,-0.06,902.52,33.98
2488445,-0.02,-0.04,1.05,3.48,2.93,-0.18,902.65,34.01
2488483,-0.04,-0.03,1.04,3.78,3.42,-0.06,902.61,34.0
2488521,-0.03,-0.04,1.02,4.21,4.58,-0.18,902.62,34.01
2488559,-0.03,-0.05,0.99,4.09,5.31,-0.31,902.53,34.01
2488597,-0.04,-0.04,0.99,4.27,5.07,0.0,902.52,34.0
2488635,-0.03,-0.05,0.98,4.21,5.74,0.06,902.48,34.0
2488673,-0.02,-0.05,0.96,4.21,5.43,0.18,902.44,34.0
2488711,-0.04,-0.05,0.93,3.85,5.37,0.18,902.48,34.01
2488749,-0.04,-0.05,0.91,3.66,5.13,0.43,902.43,34.0
2488799,-0.04,-0.05,0.9,3.11,4.7,0.61,902.43,33.98
2488837,-0.04,-0.04,0.91,2.75,3.54,0.98,902.44,33.99
2488875,-0.04,-0.05,0.9,2.38,3.91,1.22,902.4,34.0
2488913,-0.04,-0.04,0.89,2.26,3.05,1.4,902.4,34.0
2488951,-0.03,-0.04,0.94,2.32,2.93,1.53,902.38,34.0
2488989,-0.03,-0.05,0.92,1.95,2.62,1.77,902.38,34.0
2489028,-0.03,-0.05,0.94,2.08,2.75,1.83,902.36,34.0
2489066,-0.04,-0.04,0.92,2.01,2.99,2.01,902.44,34.01
2489104,-0.03,-0.04,0.94,2.14,2.14,2.5,902.33,33.99
2489179,-0.04,-0.04,0.92,2.56,2.26,2.62,902.38,33.97
2489217,-0.03,-0.04,0.94,2.56,2.2,2.81,902.27,33.98
2489255,-0.03,-0.05,0.93,2.5,2.32,2.81,902.36,34.0
2489345,-0.04,-0.04,0.95,2.81,2.26,3.11,902.31,33.96
2489383,-0.03,-0.04,0.93,2.75,2.38,3.36,902.29,33.98
2489421,-0.04,-0.04,0.91,2.99,2.26,3.48,902.29,33.98
2489459,-0.03,-0.03,0.93,3.05,2.87,3.54,902.23,33.99
2489497,-0.03,-0.05,0.93,3.17,3.72,3.54,902.29,33.98
2489535,-0.02,-0.04,0.96,3.48,3.6,3.66,902.17,33.97
2489573,-0.03,-0.05,0.94,3.42,4.58,3.66,902.13,33.98
2489623,-0.03,-0.04,0.93,3.72,4.39,3.72,902.14,33.97
2489661,-0.01,-0.05,0.91,3.85,5.31,3.72,902.16,33.97
2489699,-0.01,-0.05,0.89,3.54,5.49,3.85,902.15,33.98
2489737,-0.02,-0.04,0.91,4.15,5.07,3.78,902.14,33.97
2489775,-0.01,-0.05,0.87,3.85,5.55,3.91,902.17,33.98
2489813,-0.01,-0.04,0.91,4.27,4.27,3.85,902.13,33.98
2489852,-0.02,-0.04,0.87,4.39,3.85,4.15,902.14,33.97
2489890,-0.03,-0.04,0.89,4.88,2.01,4.21,902.1,33.97
2489928,-0.02,-0.05,0.87,5.13,2.44,4.27,902.12,33.97
2489966,-0.04,-0.04,0.85,5.98,0.98,4.46,902.08,33.98
2490016,-0.04,-0.04,0.8,6.59,0.24,4.64,902.02,33.95
2490054,-0.04,-0.05,0.78,7.32,-0.37,4.58,902.07,33.98
2490092,-0.03,-0.05,0.75,7.45,0.18,4.7,902.0,33.96
2490130,-0.01,-0.05,0.78,7.87,-0.73,4.82,902.02,33.97
2490168,-0.04,-0.05,0.77,8.0,-0.73,4.88,901.98,33.98
2490206,-0.03,-0.05,0.75,8.06,-1.28,5.19,901.95,33.97
2490244,-0.03,-0.05,0.81,7.93,-1.04,5.07,902.01,33.99
2490282,-0.02,-0.06,0.77,7.63,-1.71,5.19,902.03,33.99
2490320,-0.03,-0.04,0.8,7.75,-2.14,5.43,902.0,33.99
2490370,-0.02,-0.04,0.75,7.39,-1.83,5.49,901.9,33.97
2490408,-0.01,-0.05,0.78,7.08,-2.2,5.25,901.99,33.97
2490447,-0.02,-0.06,0.72,6.84,-2.69,5.49,901.91,33.98
2490485,-0.03,-0.05,0.75,7.2,-3.66,5.37,901.93,33.98
2490523,-0.0,-0.06,0.72,6.71,-2.5,5.31,901.84,33.98
2490561,-0.01,-0.05,0.7,6.9,-4.27,5.25,901.91,33.99
2490599,-0.02,-0.06,0.68,6.71,-4.64,5.37,901.93,33.99
2490637,-0.01,-0.07,0.65,6.59,-5.86,5.25,901.89,33.99
2490675,0.01,-0.06,0.69,6.53,-6.23,4.94,901.82,33.99
2490713,-0.01,-0.06,0.66,6.16,-7.26,4.88,901.87,33.99
2490763,-0.02,-0.05,0.69,5.92,-8.3,4.94,901.84,33.98
2490801,-0.01,-0.06,0.69,5.37,-8.48,4.7,901.77,33.99
2490839,-0.01,-0.05,0.73,4.94,-9.58,4.76,901.77,33.99
2490878,-0.02,-0.06,0.73,4.46,-9.03,4.76,901.87,33.97
2490916,-0.01,-0.06,0.76,3.85,-8.3,4.46,901.77,33.97
2490954,-0.01,-0.06,0.76,3.36,-7.45,4.21,901.76,33.99
2490992,-0.02,-0.05,0.77,2.93,-7.87,4.15,901.76,33.99
2491030,-0.03,-0.05,0.76,2.62,-6.65,4.09,901.8,33.98
2491068,-0.03,-0.05,0.78,2.44,-6.47,3.91,901.8,33.99
2491118,-0.02,-0.06,0.77,2.2,-5.0,3.72,901.77,33.98
2491156,-0.02,-0.05,0.79,1.95,-5.19,3.54,901.84,33.99
2491194,-0.02,-0.05,0.82,1.83,-3.6,3.3,901.81,33.99
2491232,-0.02,-0.06,0.85,1.83,-3.17,3.17,901.82,33.99
2491270,-0.02,-0.06,0.85,1.46,-2.87,2.93,901.85,33.99
2491309,-0.03,-0.05,0.92,1.46,-3.6,3.17,901.89,34.01
2491347,-0.03,-0.05,0.9,1.1,-3.05,3.05,901.85,33.99
2491385,-0.02,-0.04,0.95,0.98,-3.3,2.81,901.86,33.99
2491423,-0.02,-0.04,0.97,1.16,-3.66,2.87,901.84,33.99
2491461,-0.02,-0.05,0.94,0.67,-2.75,2.69,901.83,33.99
2491511,-0.04,-0.05,0.94,0.85,-2.32,2.5,901.87,33.97
2491549,-0.02,-0.06,0.89,1.04,-1.04,2.5,901.95,34.0
2491587,-0.03,-0.05,0.86,1.59,-2.14,2.32,901.87,33.99
2491625,-0.05,-0.06,0.81,1.65,-1.59,2.32,901.81,33.98
2491663,-0.02,-0.06,0.81,1.53,-1.71,2.2,901.73,33.99
2491701,-0.02,-0.05,0.88,1.53,-3.11,2.26,901.83,33.99
2491739,-0.02,-0.07,0.82,0.85,-2.87,2.14,901.81,33.97
2491777,-0.05,-0.06,0.84,0.98,-4.46,2.26,901.74,33.97
2491815,-0.03,-0.06,0.87,0.79,-4.27,2.14,901.77,33.97
2491865,-0.04,-0.05,0.85,0.61,-5.68,2.14,901.8,33.96
2491903,-0.05,-0.04,0.86,0.31,-5.31,2.08,901.79,33.96
2491941,-0.04,-0.07,0.83,0.43,-4.64,2.08,901.77,33.96
2491979,-0.04,-0.06,0.89,0.67,-5.0,1.83,901.81,33.97
2492017,-0.05,-0.06,0.91,0.73,-4.64,1.89,901.83,33.97
2492055,-0.05,-0.06,0.9,0.73,-4.39,2.01,901.91,33.99
2492094,-0.06,-0.05,0.93,0.85,-4.7,2.14,901.86,33.97
2492132,-0.06,-0.06,0.9,0.67,-4.33,2.14,901.92,33.99
2492170,-0.05,-0.05,0.94,0.67,-4.46,2.2,901.95,33.98
2492208,-0.07,-0.05,0.91,0.55,-4.09,2.32,901.88,33.98
2492285,-0.07,-0.05,0.93,0.73,-3.6,2.44,901.87,33.94
2492323,-0.06,-0.05,0.96,0.79,-3.48,2.38,901.93,33.95
2492361,-0.07,-0.05,0.94,0.55,-2.93,2.62,901.92,33.95
2492450,-0.06,-0.05,0.96,0.61,-1.59,2.87,901.96,33.93
2492489,-0.07,-0.05,0.98,0.92,-1.83,2.93,901.93,33.94
2492527,-0.07,-0.05,0.97,0.67,-1.34,3.05,902.03,33.96
2492565,-0.07,-0.05,0.97,0.67,-0.98,3.3,901.94,33.95
2492603,-0.09,-0.05,0.99,0.73,-0.92,3.78,901.98,33.97
2492641,-0.09,-0.05,0.96,0.37,-1.1,3.97,901.92,33.96
2492691,-0.1,-0.04,0.97,0.49,-1.04,4.27,901.98,33.94
2492729,-0.08,-0.05,0.95,-0.06,-0.31,4.46,901.99,33.97
2492767,-0.08,-0.05,0.97,-0.18,-1.04,4.7,901.99,33.97
2492805,-0.09,-0.05,0.96,-0.79,-0.61,5.0,901.98,33.97
2492843,-0.08,-0.04,1.01,-0.98,-0.37,5.19,901.96,33.96
2492881,-0.09,-0.05,1.01,-1.4,0.73,5.49,902.03,33.97
2492919,-0.09,-0.05,1.0,-1.71,0.0,5.8,901.94,33.96
2492957,-0.1,-0.04,1.07,-1.89,0.49,5.92,902.0,33.97
2492995,-0.09,-0.05,1.04,-2.75,1.46,6.23,902.0,33.97
2493033,-0.08,-0.03,1.1,-2.81,1.22,6.53,901.96,33.97
2493083,-0.08,-0.04,1.12,-2.99,2.44,6.71,901.99,33.95
2493121,-0.09,-0.03,1.16,-2.69,2.14,7.14,902.05,33.97
2493159,-0.09,-0.03,1.17,-2.56,2.69,7.45,902.09,33.97
2493197,-0.09,-0.03,1.16,-2.38,2.38,7.93,902.04,33.97
2493236,-0.08,-0.02,1.19,-2.32,2.81,8.24,902.03,33.97
2493274,-0.08,-0.03,1.19,-2.01,2.87,8.54,902.06,33.97
2493312,-0.08,-0.03,1.2,-1.83,2.87,8.85,902.05,33.97
2493350,-0.09,-0.03,1.19,-1.95,2.32,9.22,902.02,33.96
2493388,-0.08,-0.03,1.22,-2.14,2.01,9.52,902.08,33.97
2493438,-0.07,-0.03,1.19,-2.5,2.01,9.89,902.09,33.96
2493476,-0.09,-0.03,1.21,-2.14,1.77,10.07,902.11,33.97
2493514,-0.08,-0.04,1.16,-2.26,1.59,10.38,902.11,33.96
2493552,-0.06,-0.03,1.19,-1.95,1.22,10.5,902.09,33.96
2493590,-0.06,-0.03,1.15,-2.2,1.28,10.56,902.15,33.97
2493628,-0.08,-0.03,1.16,-2.08,0.79,10.99,902.19,33.97
2493667,-0.05,-0.04,1.16,-1.83,1.28,10.74,902.2,33.96
2493705,-0.07,-0.03,1.18,-1.77,0.49,10.93,902.25,33.97
2493743,-0.08,-0.04,1.18,-2.01,1.83,10.99,902.29,33.97
2493793,-0.05,-0.04,1.17,-1.77,1.71,10.74,902.26,33.95
2493831,-0.06,-0.05,1.13,-1.95,2.2,10.99,902.26,33.95
2493869,-0.05,-0.04,1.1,-2.2,1.95,10.99,902.31,33.97
2493907,-0.05,-0.04,1.09,-2.5,3.17,11.11,902.24,33.97
2493945,-0.05,-0.05,1.04,-2.93,3.17,10.99,902.32,33.96
2493983,-0.06,-0.05,1.04,-3.23,2.62,11.05,902.24,33.96
2494021,-0.04,-0.06,1.03,-3.54,3.72,10.99,902.36,33.97
2494059,-0.04,-0.05,1.03,-3.85,3.72,10.99,902.34,33.96
2494097,-0.05,-0.05,1.03,-4.21,3.6,10.93,902.32,33.97
2494136,-0.04,-0.06,1.03,-4.64,3.72,10.93,902.33,33.97
2494185,-0.04,-0.06,1.07,-5.19,3.6,10.74,902.41,33.95
2494223,-0.05,-0.07,1.04,-5.8,3.42,10.86,902.36,33.96
2494262,-0.03,-0.06,1.06,-6.04,2.87,10.86,902.41,33.97
2494300,-0.03,-0.06,1.09,-6.59,2.5,10.86,902.37,33.95
2494338,-0.04,-0.04,1.16,-6.71,1.59,11.11,902.33,33.97
2494376,-0.04,-0.04,1.24,-6.71,1.28,10.99,902.44,33.96
2494414,-0.03,-0.02,1.24,-7.32,1.22,10.86,902.41,33.97
2494452,-0.05,-0.02,1.37,-6.71,0.24,10.74,902.41,33.96
2494490,-0.02,-0.05,1.33,-7.57,1.22,10.74,902.34,33.95
2494540,-0.03,-0.01,1.44,-6.84,-0.06,10.62,902.4,33.95
2494578,-0.05,-0.02,1.34,-7.14,1.77,10.62,902.45,33.96
2494616,-0.02,0.01,1.43,-6.59,-0.49,10.25,902.43,33.96
2494654,-0.05,-0.0,1.47,-6.71,1.65,9.89,902.48,33.95
2494692,-0.03,-0.01,1.51,-6.47,0.55,10.07,902.44,33.95
2494730,-0.04,0.0,1.58,-5.98,0.85,10.31,902.41,33.95
2494768,-0.03,-0.0,1.52,-5.74,1.65,9.89,902.51,33.96
2494806,-0.04,0.01,1.57,-5.0,0.85,9.83,902.45,33.95
2494844,-0.03,-0.0,1.53,-4.52,1.59,9.52,902.55,33.95
2494894,-0.04,-0.0,1.48,-3.3,0.37,9.52,902.56,33.95
2494932,-0.03,-0.01,1.45,-2.87,0.67,9.52,902.48,33.95
2494970,-0.03,-0.01,1.42,-2.44,-0.49,9.28,902.52,33.96
2495008,-0.04,-0.02,1.4,-2.08,-1.16,9.46,902.56,33.95
2495046,-0.04,-0.02,1.37,-1.89,-1.46,9.64,902.49,33.97
2495084,-0.03,-0.02,1.36,-1.53,-1.83,9.4,902.53,33.95
2495123,-0.05,-0.03,1.31,-1.46,-1.89,9.34,902.52,33.97
2495161,-0.04,-0.02,1.29,-1.46,-2.14,9.4,902.49,33.96
2495199,-0.05,-0.03,1.23,-1.83,-1.46,9.4,902.49,33.95
2495237,-0.04,-0.03,1.24,-2.08,-2.14,9.46,902.47,33.95
2495313,-0.05,-0.03,1.22,-2.44,-1.16,9.64,902.47,33.94
2495351,-0.05,-0.03,1.23,-2.5,-0.67,9.64,902.45,33.94
2495389,-0.05,-0.03,1.21,-2.99,0.43,9.77,902.47,33.95
2495478,-0.06,-0.02,1.23,-2.93,0.92,9.95,902.45,33.92
2495516,-0.05,-0.01,1.27,-3.6,1.95,10.19,902.42,33.94
2495554,-0.05,-0.01,1.3,-4.09,2.08,10.19,902.46,33.92
2495592,-0.06,-0.01,1.29,-4.33,2.38,10.5,902.47,33.93
2495630,-0.04,-0.01,1.31,-4.39,3.17,10.56,902.42,33.95
2495669,-0.02,-0.01,1.34,-4.58,3.97,10.56,902.44,33.94
2495718,-0.04,0.0,1.39,-4.52,2.93,10.86,902.4,33.93
2495756,-0.03,-0.01,1.4,-4.76,3.6,10.99,902.38,33.94
2495794,-0.03,-0.02,1.4,-4.76,3.23,10.99,902.46,33.95
2495833,-0.02,-0.01,1.38,-4.76,3.42,10.86,902.47,33.95
2495871,-0.02,-0.0,1.38,-4.7,3.23,10.93,902.49,33.95
2495909,-0.02,-0.02,1.32,-4.03,3.36,11.05,902.44,33.95
2495947,-0.03,-0.02,1.33,-3.17,2.08,10.8,902.46,33.95
2495985,-0.01,-0.04,1.29,-3.36,2.93,10.86,902.46,33.94
2496023,-0.04,-0.03,1.26,-3.36,1.65,10.93,902.43,33.95
2496073,-0.03,-0.05,1.23,-3.36,2.75,10.8,902.5,33.95
2496111,-0.0,-0.05,1.17,-3.54,2.08,10.68,902.47,33.95
2496149,-0.02,-0.04,1.21,-3.3,1.34,10.74,902.47,33.95
2496187,-0.02,-0.04,1.11,-4.52,1.59,10.99,902.45,33.95
2496225,-0.03,-0.03,1.18,-4.39,-0.06,10.99,902.42,33.96
2496263,-0.02,-0.04,1.18,-4.88,0.61,11.05,902.47,33.95
2496301,-0.03,-0.05,1.24,-5.0,-0.37,11.05,902.43,33.95
2496339,-0.02,-0.05,1.24,-5.31,0.61,10.93,902.41,33.95
2496378,-0.01,-0.04,1.27,-5.49,0.31,10.68,902.43,33.96
2496416,-0.03,-0.04,1.25,-5.25,1.34,10.93,902.46,33.97
2496465,0.0,-0.04,1.26,-5.13,0.67,10.86,902.49,33.95
2496503,-0.02,-0.04,1.25,-4.88,1.53,10.74,902.48,33.95
2496542,-0.01,-0.04,1.26,-4.76,0.79,10.86,902.51,33.95
2496580,-0.02,-0.04,1.34,-3.97,-0.49,10.5,902.46,33.95
2496618,-0.02,-0.04,1.26,-3.91,0.12,10.56,902.49,33.96
2496656,-0.02,-0.04,1.32,-2.87,-1.16,10.56,902.5,33.95
2496694,-0.01,-0.07,1.19,-2.81,0.24,10.38,902.51,33.96
2496732,-0.03,-0.06,1.18,-1.22,0.06,10.19,902.51,33.95
2496770,-0.02,-0.06,1.12,-0.24,0.98,10.07,902.51,33.94
2496820,-0.03,-0.04,1.09,0.79,-0.06,9.77,902.46,33.94
2496858,-0.03,-0.07,1.03,1.22,1.53,9.7,902.5,33.94
2496896,-0.02,-0.07,0.99,1.1,0.06,9.89,902.5,33.95
2496934,-0.03,-0.06,1.02,1.71,-0.31,9.89,902.51,33.96
2496972,-0.03,-0.07,0.97,1.89,-0.49,9.89,902.54,33.96
2497010,-0.05,-0.07,0.91,2.26,-0.73,9.95,902.47,33.96
2497048,-0.04,-0.07,0.87,2.08,-0.37,9.95,902.48,33.96
2497086,-0.03,-0.07,0.84,1.95,0.06,9.83,902.43,33.96
2497124,-0.03,-0.07,0.79,1.16,0.85,10.01,902.4,33.95
2497174,-0.03,-0.07,0.82,0.43,0.31,10.19,902.44,33.95
2497212,-0.04,-0.08,0.75,-1.16,1.83,10.13,902.44,33.96
2497250,-0.04,-0.07,0.78,-1.4,1.59,10.13,902.48,33.95
2497288,-0.03,-0.08,0.72,-2.5,3.54,10.07,902.45,33.96
2497326,-0.01,-0.07,0.73,-2.87,3.54,9.95,902.49,33.95
2497364,-0.0,-0.08,0.74,-3.11,4.58,9.89,902.48,33.95
2497403,-0.03,-0.08,0.71,-3.66,4.88,9.95,902.51,33.96
2497441,-0.02,-0.08,0.77,-3.97,5.19,9.58,902.51,33.95
2497479,-0.02,-0.07,0.8,-4.21,5.8,9.52,902.44,33.97
2497517,-0.02,-0.07,0.88,-4.09,5.92,9.58,902.49,33.96
2497567,-0.02,-0.07,0.92,-4.33,5.8,9.46,902.52,33.95
2497605,-0.04,-0.07,0.96,-3.91,5.43,9.58,902.56,33.95
2497643,-0.01,-0.07,0.96,-4.27,6.35,9.52,902.53,33.95
2497681,-0.02,-0.05,1.0,-3.85,5.74,9.22,902.57,33.95
2497719,-0.03,-0.07,1.01,-4.09,5.55,9.34,902.54,33.95
2497757,-0.02,-0.07,1.03,-4.58,4.82,9.4,902.57,33.96
2497795,-0.02,-0.07,1.08,-5.0,4.88,9.28,902.53,33.94
2497833,-0.02,-0.06,1.06,-5.98,4.64,9.34,902.59,33.95
2497871,-0.04,-0.05,1.15,-5.74,3.85,9.4,902.55,33.97
2497921,-0.03,-0.05,1.17,-6.53,5.13,9.22,902.61,33.95
2497959,-0.04,-0.06,1.21,-7.02,5.07,9.28,902.57,33.96
2497997,-0.02,-0.06,1.26,-7.39,4.88,9.46,902.57,33.94
2498035,-0.05,-0.05,1.3,-7.81,4.27,9.28,902.52,33.96
2498073,-0.03,-0.04,1.34,-8.12,2.99,9.64,902.57,33.95
2498111,-0.04,-0.03,1.38,-8.67,3.36,9.58,902.55,33.95
2498150,-0.02,-0.04,1.44,-8.85,3.6,9.52,902.51,33.95
2498188,-0.02,-0.05,1.5,-9.09,4.39,9.34,902.54,33.95
2498226,-0.01,-0.03,1.5,-9.28,4.82,9.09,902.61,33.96
2498264,-0.05,-0.01,1.56,-7.81,5.37,8.73,902.55,33.96
2498340,-0.04,-0.02,1.65,-6.84,6.59,8.85,902.53,33.92
2498378,-0.05,-0.03,1.6,-6.59,7.45,8.91,902.61,33.94
2498416,-0.07,-0.01,1.59,-5.55,7.63,9.28,902.59,33.93
2498505,-0.05,-0.02,1.53,-4.21,8.42,9.34,902.6,33.9
2498543,-0.06,-0.03,1.48,-3.72,8.73,9.58,902.67,33.92
2498581,-0.05,-0.03,1.43,-3.42,8.85,9.7,902.64,33.93
2498619,-0.05,-0.03,1.41,-2.99,8.36,9.77,902.62,33.93
2498658,-0.04,-0.04,1.35,-3.36,8.61,9.89,902.66,33.94
2498696,-0.04,-0.04,1.34,-2.69,8.79,10.01,902.62,33.92
2498745,-0.04,-0.05,1.27,-2.75,9.52,10.07,902.72,33.92
2498784,-0.04,-0.05,1.23,-2.62,9.28,10.25,902.61,33.94
2498822,-0.05,-0.06,1.18,-2.87,9.7,10.44,902.67,33.93
2498860,-0.05,-0.05,1.16,-2.93,9.4,10.44,902.62,33.95
2498898,-0.04,-0.06,1.13,-3.23,9.28,10.56,902.65,33.95
2498936,-0.04,-0.06,1.12,-3.23,8.54,10.68,902.66,33.94
2498974,-0.03,-0.06,1.12,-3.54,8.67,10.93,902.71,33.94
2499012,-0.03,-0.06,1.12,-3.6,8.54,10.99,902.62,33.94
2499050,-0.04,-0.06,1.11,-4.09,8.36,11.11,902.66,33.94
2499089,-0.03,-0.06,1.11,-3.85,8.54,11.17,902.69,33.96
2499138,-0.01,-0.06,1.14,-4.21,8.12,11.23,902.66,33.94
2499176,-0.03,-0.06,1.15,-4.33,7.81,11.35,902.66,33.94
2499215,-0.03,-0.06,1.18,-4.27,7.14,11.47,902.72,33.93
2499253,-0.01,-0.07,1.19,-4.33,7.02,11.47,902.71,33.95
2499291,-0.02,-0.06,1.17,-4.39,6.29,11.41,902.72,33.94
2499329,-0.03,-0.05,1.16,-4.15,5.98,11.54,902.72,33.94
2499367,-0.01,-0.06,1.19,-3.91,5.31,11.6,902.73,33.95
2499405,-0.01,-0.05,1.21,-3.78,4.88,11.54,902.72,33.96
2499443,-0.02,-0.05,1.23,-3.97,3.23,11.6,902.77,33.95
2499493,-0.03,-0.05,1.27,-3.78,3.36,11.78,902.73,33.95
2499531,-0.02,-0.05,1.34,-3.48,2.32,11.78,902.76,33.94
2499569,-0.02,-0.04,1.31,-3.72,2.69,11.78,902.74,33.95
2499607,-0.0,-0.05,1.34,-3.54,2.56,11.54,902.73,33.94
2499645,-0.01,-0.06,1.32,-2.99,2.32,11.23,902.76,33.95
2499683,-0.01,-0.06,1.25,-3.42,2.26,11.29,902.76,33.95
2499721,-0.01,-0.04,1.29,-2.56,1.59,11.29,902.8,33.95
2499759,0.01,-0.06,1.18,-2.99,2.81,11.29,902.77,33.95
2499798,-0.03,-0.04,1.2,-1.95,1.65,11.11,902.76,33.96
2499847,-0.02,-0.07,1.22,-2.14,2.08,11.17,902.69,33.94
2499885,-0.02,-0.05,1.28,-1.95,1.34,10.86,902.7,33.95
2499924,-0.01,-0.05,1.28,-2.62,2.08,10.93,902.78,33.96
2499962,-0.01,-0.04,1.34,-2.32,1.89,10.74,902.73,33.95
2500000,-0.01,-0.04,1.36,-1.95,3.11,10.38,902.7,33.95
2500038,-0.02,-0.05,1.32,-2.5,4.7,10.56,902.73,33.95
2500076,-0.0,-0.06,1.31,-2.44,4.15,10.56,902.7,33.95
2500114,-0.01,-0.06,1.3,-1.77,7.08,9.95,902.73,33.95
2500152,-0.0,-0.07,1.17,-2.38,7.57,10.01,902.67,33.94
2500190,-0.0,-0.07,1.18,-1.59,4.94,10.25,902.76,33.95
2500240,-0.01,-0.09,0.98,-1.83,7.63,9.77,902.75,33.93
2500278,0.0,-0.08,0.94,-0.67,5.74,9.83,902.8,33.94
2500316,0.0,-0.09,0.82,-0.98,6.29,9.83,902.74,33.95
2500354,0.01,-0.09,0.75,-0.79,5.43,9.46,902.75,33.96
2500392,0.01,-0.1,0.71,-1.16,5.98,9.28,902.77,33.95
2500430,0.04,-0.08,0.77,-1.59,4.09,9.03,902.73,33.95
2500469,0.04,-0.09,0.81,-2.14,2.87,8.85,902.72,33.95
2500507,0.04,-0.08,0.86,-2.75,2.14,8.61,902.68,33.94
2500545,0.02,-0.09,0.92,-3.23,0.92,8.36,902.75,33.96
2500594,-0.0,-0.09,0.96,-4.03,1.04,8.12,902.78,33.94
2500632,0.0,-0.08,1.0,-4.15,0.06,7.75,902.76,33.95
2500671,0.02,-0.08,1.03,-4.58,0.61,7.57,902.72,33.95
2500709,0.02,-0.06,1.07,-4.46,0.73,7.2,902.75,33.95
2500747,0.01,-0.07,1.09,-4.09,1.53,7.08,902.78,33.94
2500785,-0.01,-0.07,1.13,-3.85,1.1,7.14,902.83,33.95
2500823,-0.01,-0.08,1.16,-3.54,2.2,6.77,902.81,33.95
2500861,-0.01,-0.06,1.2,-3.36,2.01,6.71,902.79,33.95
2500899,-0.02,-0.05,1.24,-2.56,2.26,6.77,902.86,33.95
2500937,-0.0,-0.07,1.2,-2.2,2.81,6.65,902.83,33.95
2500987,-0.02,-0.05,1.23,-1.28,2.26,6.53,902.86,33.94
2501025,-0.01,-0.07,1.2,-1.34,2.99,6.77,902.83,33.94
2501063,-0.03,-0.06,1.22,-0.85,2.5,6.77,902.82,33.95
2501101,-0.04,-0.07,1.21,-0.24,3.17,6.65,902.86,33.96
2501139,-0.02,-0.07,1.2,-0.18,4.03,6.65,902.89,33.96
2501177,-0.01,-0.07,1.2,0.61,4.46,6.59,902.8,33.95
2501215,-0.01,-0.06,1.18,0.85,4.27,6.65,902.84,33.95
2501253,-0.02,-0.07,1.13,1.34,4.58,6.65,902.85,33.95
2501292,-0.03,-0.07,1.11,1.59,4.88,6.65,902.86,33.94
2501367,-0.01,-0.07,1.05,1.77,4.94,6.77,902.86,33.92
2501405,-0.02,-0.08,0.99,1.59,5.49,6.59,902.88,33.93
2501443,-0.02,-0.07,1.0,1.95,5.43,6.59,902.94,33.94
2501533,-0.03,-0.08,0.96,1.34,5.74,6.77,902.91,33.9
2501571,-0.03,-0.07,0.96,0.92,6.41,6.71,902.9,33.91
2501609,-0.03,-0.08,0.93,0.24,5.74,6.65,902.94,33.93
2501647,-0.01,-0.07,0.97,-0.18,4.94,6.59,902.86,33.93
2501685,-0.01,-0.08,0.96,-0.79,4.94,7.02,902.97,33.94
2501723,-0.03,-0.09,0.97,-1.1,3.66,6.96,902.91,33.93
2501761,-0.01,-0.08,0.99,-1.59,3.78,6.9,902.95,33.92
2501811,-0.03,-0.08,1.02,-1.89,3.23,7.26,902.95,33.93
2501849,-0.04,-0.09,1.01,-2.62,3.6,7.26,902.98,33.94
2501887,-0.02,-0.08,1.01,-2.75,3.6,7.08,902.92,33.92
2501925,-0.04,-0.07,1.08,-3.11,3.66,7.2,902.92,33.94
2501963,-0.03,-0.08,1.06,-3.42,5.37,7.45,903.0,33.95
2502002,-0.04,-0.06,1.11,-3.05,4.94,7.45,902.91,33.93
2502040,-0.03,-0.07,1.12,-3.05,6.41,7.51,902.91,33.94
2502078,-0.03,-0.07,1.11,-2.99,6.53,7.69,902.87,33.94
2502116,-0.03,-0.07,1.13,-2.99,6.84,7.75,902.93,33.95
2502166,-0.02,-0.07,1.13,-2.87,7.45,7.75,902.96,33.92
2502204,-0.03,-0.06,1.16,-2.75,7.39,8.06,902.93,33.93
2502242,-0.03,-0.07,1.16,-2.75,7.69,8.0,902.95,33.94
2502280,-0.02,-0.06,1.18,-2.69,8.12,7.93,902.86,33.92
2502318,-0.02,-0.06,1.2,-2.62,8.12,8.06,902.93,33.94
2502356,-0.02,-0.06,1.2,-2.38,8.36,8.36,902.97,33.94
2502394,-0.03,-0.06,1.21,-2.14,8.61,8.42,902.96,33.94
2502432,-0.01,-0.06,1.21,-2.32,8.61,8.61,903.03,33.94
2502471,-0.02,-0.06,1.22,-2.2,8.18,8.67,902.95,33.94
2502509,-0.03,-0.06,1.21,-2.08,7.93,8.85,903.0,33.94
2502558,-0.02,-0.06,1.2,-1.89,7.93,8.97,903.02,33.92
2502596,-0.01,-0.06,1.21,-1.77,7.63,9.22,902.98,33.93
2502635,-0.03,-0.06,1.21,-1.59,7.2,9.34,903.03,33.94
2502673,-0.02,-0.06,1.21,-1.46,6.96,9.46,903.02,33.94
2502711,-0.02,-0.06,1.21,-1.53,7.02,9.52,903.1,33.93
2502749,-0.01,-0.06,1.19,-1.53,6.41,9.4,903.02,33.94
2502787,-0.02,-0.06,1.2,-1.46,5.25,9.52,903.13,33.95
2502825,-0.02,-0.06,1.17,-1.59,6.1,9.46,903.13,33.95
2502863,-0.01,-0.06,1.2,-1.53,5.62,9.46,903.17,33.95
2502913,-0.0,-0.06,1.17,-1.59,5.43,9.22,903.22,33.94
2502951,-0.02,-0.06,1.18,-1.04,4.88,9.16,903.15,33.93
2502989,0.0,-0.07,1.17,-1.1,4.58,9.16,903.17,33.94
2503027,0.01,-0.06,1.2,-0.55,3.78,9.03,903.16,33.95
2503065,-0.0,-0.08,1.16,-0.31,3.48,8.85,903.18,33.94
2503103,0.0,-0.07,1.16,0.18,2.5,8.67,903.18,33.95
2503141,0.0,-0.07,1.14,0.37,2.75,8.48,903.22,33.94
2503179,-0.01,-0.07,1.1,0.61,1.77,8.36,903.13,33.95
2503217,-0.01,-0.07,1.08,0.85,1.28,8.42,903.18,33.94
2503255,-0.01,-0.08,1.06,0.98,1.16,8.24,903.2,33.95
2503305,-0.01,-0.07,1.05,1.28,0.49,7.93,903.24,33.93
2503343,-0.01,-0.06,1.06,1.22,0.24,7.87,903.19,33.93
2503381,-0.01,-0.08,1.02,1.22,0.24,7.93,903.15,33.94
2503419,-0.02,-0.07,1.02,1.4,-0.37,7.75,903.16,33.95
2503457,-0.02,-0.07,1.02,1.59,-0.73,7.63,903.16,33.95
2503495,-0.02,-0.08,0.98,1.28,-1.1,7.51,903.21,33.95
2503533,-0.02,-0.08,0.99,1.53,-1.34,7.32,903.15,33.95
2503572,-0.02,-0.08,0.97,1.4,-1.77,7.26,903.17,33.95
2503610,-0.02,-0.09,0.96,1.22,-2.87,7.2,903.13,33.95
2503648,-0.01,-0.08,0.99,1.34,-3.3,7.08,903.21,33.95
2503698,-0.02,-0.07,0.97,0.98,-4.33,6.71,903.24,33.94
2503736,-0.03,-0.07,0.96,0.98,-4.64,6.77,903.19,33.94
2503774,-0.04,-0.08,0.96,0.79,-5.19,6.65,903.21,33.95
2503812,-0.03,-0.08,0.97,0.67,-5.55,6.47,903.14,33.93
2503850,-0.04,-0.08,0.93,0.61,-4.88,6.53,903.27,33.94
2503888,-0.03,-0.07,0.96,0.43,-5.25,6.23,903.24,33.95
2503926,-0.04,-0.08,0.93,0.06,-4.64,5.98,903.23,33.94
2503964,-0.04,-0.08,0.93,-0.24,-4.58,6.04,903.28,33.95
2504003,-0.04,-0.08,0.93,-0.61,-3.97,6.04,903.26,33.95
2504052,-0.06,-0.08,0.92,-0.98,-2.87,6.16,903.29,33.94
2504090,-0.06,-0.07,0.93,-1.28,-2.5,6.1,903.3,33.93
2504129,-0.05,-0.08,0.96,-1.59,-1.71,6.04,903.26,33.94
2504167,-0.04,-0.07,0.98,-2.2,-1.71,6.04,903.29,33.93
2504205,-0.06,-0.07,0.99,-2.32,-1.77,5.92,903.3,33.95
2504243,-0.05,-0.06,1.02,-2.69,-2.01,6.1,903.33,33.94
2504281,-0.05,-0.08,1.06,-2.87,-1.77,6.35,903.3,33.95
2504319,-0.06,-0.07,1.04,-3.23,-1.77,6.35,903.35,33.95
2504357,-0.07,-0.06,1.12,-2.93,-1.77,6.53,903.36,33.94
2504433,-0.07,-0.06,1.15,-2.99,-1.46,6.65,903.39,33.92
2504471,-0.06,-0.07,1.14,-3.17,-1.04,6.96,903.41,33.93
2504509,-0.05,-0.06,1.15,-3.11,-1.22,6.84,903.42,33.93
2504599,-0.07,-0.08,1.09,-3.05,-2.32,7.26,903.39,33.89
2504637,-0.06,-0.06,1.12,-2.69,-3.42,7.2,903.45,33.92
2504675,-0.06,-0.07,1.05,-2.99,-2.5,7.39,903.44,33.92
2504713,-0.06,-0.06,1.12,-2.56,-3.85,7.51,903.53,33.93
2504751,-0.07,-0.07,1.08,-2.81,-2.38,7.57,903.47,33.91
2504789,-0.08,-0.07,1.13,-2.5,-3.11,7.69,903.47,33.93
2504827,-0.07,-0.06,1.13,-2.87,-1.95,7.93,903.44,33.93
2504877,-0.07,-0.06,1.14,-2.99,-1.22,8.06,903.52,33.91
2504915,-0.07,-0.07,1.14,-3.36,-0.49,8.12,903.61,33.93
2504953,-0.07,-0.06,1.14,-3.48,0.18,8.3,903.53,33.94
2504991,-0.08,-0.06,1.16,-3.85,0.98,8.79,903.55,33.93
2505029,-0.06,-0.06,1.15,-4.39,1.53,8.91,903.6,33.93
2505068,-0.07,-0.06,1.17,-4.58,1.65,8.91,903.66,33.94
2505106,-0.05,-0.07,1.16,-4.76,2.2,9.28,903.64,33.93
2505144,-0.05,-0.06,1.2,-4.88,2.08,9.22,903.58,33.93
2505182,-0.05,-0.06,1.19,-5.13,2.38,9.4,903.6,33.94
2505232,-0.05,-0.05,1.2,-5.07,2.01,9.7,903.71,33.92
2505270,-0.05,-0.06,1.25,-5.19,2.14,9.95,903.67,33.93
2505308,-0.07,-0.07,1.23,-5.25,2.44,10.13,903.66,33.94
2505346,-0.07,-0.06,1.21,-5.49,2.32,10.19,903.7,33.94
2505384,-0.05,-0.06,1.2,-5.86,2.38,10.31,903.7,33.94
2505422,-0.06,-0.06,1.15,-6.04,2.75,10.38,903.75,33.94
2505460,-0.06,-0.05,1.17,-6.35,2.26,10.44,903.69,33.94
2505498,-0.06,-0.06,1.18,-6.65,2.81,10.62,903.7,33.94
2505537,-0.05,-0.06,1.21,-7.02,3.17,10.56,903.73,33.94
2505586,-0.05,-0.06,1.27,-7.63,4.21,10.86,903.79,33.95
2505624,-0.06,-0.05,1.31,-7.39,3.85,10.74,903.71,33.92
2505662,-0.07,-0.06,1.33,-7.26,5.25,10.74,903.81,33.94
2505701,-0.06,-0.06,1.32,-7.26,5.19,10.99,903.83,33.92
2505739,-0.05,-0.05,1.32,-6.84,5.43,11.17,903.82,33.95
2505777,-0.05,-0.05,1.32,-6.47,5.55,11.17,903.86,33.95
2505815,-0.06,-0.05,1.34,-5.98,5.07,11.35,903.86,33.94
2505853,-0.06,-0.05,1.35,-6.04,5.13,11.54,903.91,33.93
2505891,-0.04,-0.06,1.35,-5.37,4.27,11.66,903.9,33.95
2505929,-0.05,-0.06,1.31,-5.19,4.64,12.02,903.91,33.94
2505979,-0.05,-0.06,1.31,-4.64,3.42,12.27,903.96,33.94
2506017,-0.06,-0.06,1.19,-5.31,4.27,12.45,904.0,33.95
2506055,-0.06,-0.06,1.22,-4.7,4.15,12.27,903.98,33.93
2506093,-0.02,-0.07,1.16,-5.0,4.21,12.45,904.0,33.94
2506132,-0.04,-0.06,1.18,-5.0,4.03,12.51,903.99,33.94
2506170,-0.02,-0.07,1.21,-5.13,3.48,12.51,904.03,33.94
2506208,-0.04,-0.07,1.21,-5.43,3.97,12.39,903.99,33.94
2506246,-0.05,-0.07,1.24,-5.8,4.21,12.45,904.07,33.94
2506284,-0.04,-0.05,1.35,-5.74,4.27,12.51,904.0,33.94
2506334,-0.05,-0.06,1.33,-5.8,5.49,12.39,904.0,33.94
2506372,-0.03,-0.05,1.36,-5.86,5.25,12.33,904.05,33.93
2506410,-0.04,-0.05,1.43,-6.04,5.98,12.57,904.11,33.95
2506448,-0.02,-0.05,1.43,-6.04,6.04,12.39,904.12,33.95
2506486,-0.05,-0.04,1.42,-5.68,5.62,12.33,904.04,33.95
2506525,-0.02,-0.04,1.46,-5.98,6.53,12.27,904.08,33.94
2506563,-0.01,-0.05,1.47,-5.98,6.53,12.15,904.1,33.95
2506601,-0.03,-0.04,1.49,-5.8,5.19,12.27,904.09,33.94
2506639,-0.02,-0.04,1.53,-6.1,4.94,12.33,904.11,33.95
2506689,-0.03,-0.04,1.53,-5.86,4.88,12.27,904.15,33.94
2506727,-0.04,-0.04,1.53,-5.86,4.09,12.27,904.15,33.95
2506765,-0.03,-0.04,1.52,-5.8,4.27,12.27,904.13,33.94
2506803,-0.02,-0.05,1.49,-5.74,3.97,12.08,904.15,33.94
2506841,-0.03,-0.04,1.48,-5.49,4.21,12.15,904.21,33.94
2506879,-0.02,-0.05,1.45,-5.55,4.21,12.02,904.22,33.94
2506917,-0.03,-0.05,1.45,-5.31,4.21,11.84,904.17,33.95
2506955,-0.02,-0.05,1.45,-5.55,4.7,11.84,904.21,33.94
2506994,-0.02,-0.05,1.45,-5.55,4.58,11.84,904.27,33.94
2507032,-0.03,-0.05,1.44,-5.92,4.27,11.6,904.29,33.94
2507081,-0.02,-0.06,1.41,-5.86,4.76,11.66,904.32,33.94
2507120,-0.02,-0.06,1.4,-6.16,4.76,11.47,904.31,33.94
2507158,-0.02,-0.06,1.37,-6.35,4.88,11.41,904.31,33.93
2507196,-0.03,-0.06,1.38,-6.59,4.33,11.72,904.38,33.95
2507234,-0.02,-0.06,1.38,-6.71,4.52,11.47,904.35,33.94
2507272,-0.02,-0.06,1.41,-6.84,4.58,11.17,904.32,33.94
2507310,-0.02,-0.06,1.41,-6.9,4.39,11.35,904.29,33.94
2507348,-0.03,-0.06,1.44,-6.77,3.97,11.29,904.31,33.95
2507386,-0.02,-0.06,1.44,-7.08,4.33,11.23,904.34,33.94
2507462,-0.03,-0.05,1.47,-7.26,4.33,11.35,904.32,33.91
2507500,-0.03,-0.06,1.46,-7.2,4.58,11.29,904.37,33.91
2507538,-0.02,-0.05,1.48,-7.26,4.33,10.99,904.37,33.92
2507628,-0.01,-0.06,1.48,-6.96,4.39,10.8,904.43,33.89
2507666,-0.02,-0.05,1.48,-7.02,4.21,10.74,904.37,33.9
2507704,-0.02,-0.06,1.42,-6.59,4.94,10.86,904.45,33.91
2507742,-0.03,-0.06,1.42,-6.29,4.15,10.62,904.41,33.91
2507780,-0.02,-0.06,1.42,-6.16,4.7,10.56,904.4,33.93
2507818,-0.02,-0.06,1.42,-5.68,4.88,10.56,904.5,33.92
2507868,-0.02,-0.07,1.4,-5.13,4.94,10.31,904.5,33.92
2507906,-0.02,-0.07,1.35,-5.13,5.25,10.38,904.46,33.91
2507944,-0.01,-0.07,1.36,-4.58,4.94,10.19,904.53,33.91
2507982,-0.02,-0.06,1.33,-4.82,5.0,10.07,904.52,33.92
2508020,-0.04,-0.07,1.33,-4.58,4.88,10.01,904.5,33.91
2508059,-0.01,-0.07,1.32,-4.88,4.94,9.77,904.55,33.93
2508097,-0.0,-0.06,1.34,-5.07,4.52,9.7,904.47,33.93
2508135,-0.02,-0.07,1.33,-5.25,4.94,9.77,904.48,33.92
2508173,-0.0,-0.07,1.32,-5.43,5.31,9.77,904.49,33.93
2508211,-0.01,-0.06,1.37,-5.55,5.13,9.46,904.51,33.93
2508261,-0.03,-0.07,1.34,-5.55,5.25,9.64,904.59,33.94
2508299,-0.02,-0.06,1.33,-5.43,5.07,9.34,904.56,33.93
2508337,-0.01,-0.07,1.32,-5.68,5.25,9.34,904.56,33.94
2508375,-0.02,-0.07,1.29,-5.13,4.39,9.46,904.57,33.93
2508413,-0.02,-0.07,1.28,-5.13,4.64,9.64,904.54,33.93
2508451,-0.03,-0.07,1.28,-4.82,4.33,9.22,904.53,33.92
2508489,-0.03,-0.07,1.28,-4.82,3.66,9.22,904.55,33.94
2508527,-0.03,-0.08,1.27,-4.82,3.3,9.16,904.54,33.94
2508565,-0.04,-0.07,1.24,-4.82,3.23,9.09,904.55,33.94
2508615,-0.04,-0.06,1.25,-4.39,2.69,8.85,904.6,33.93
2508653,-0.03,-0.07,1.26,-4.21,2.01,8.97,904.58,33.92
2508691,-0.03,-0.07,1.24,-4.46,2.38,8.85,904.57,33.92
2508729,-0.03,-0.08,1.25,-3.91,1.83,8.91,904.57,33.94
2508767,-0.04,-0.08,1.24,-3.66,1.95,8.85,904.59,33.93
2508805,-0.02,-0.06,1.3,-3.11,0.18,8.91,904.61,33.93
2508843,-0.03,-0.07,1.25,-3.23,0.98,8.79,904.6,33.93
2508881,-0.04,-0.07,1.25,-2.87,0.18,9.09,904.57,33.92
2508919,-0.04,-0.07,1.26,-2.87,0.24,9.03,904.63,33.93
2508958,-0.05,-0.07,1.25,-2.5,-0.73,8.85,904.61,33.94
2509007,-0.05,-0.07,1.21,-2.32,-0.24,8.91,904.63,33.92
2509045,-0.03,-0.07,1.2,-2.38,0.0,8.85,904.61,33.92
2509083,-0.04,-0.07,1.18,-2.32,-0.55,8.91,904.58,33.92
2509121,-0.04,-0.08,1.09,-2.62,0.79,8.85,904.62,33.92
2509159,-0.04,-0.07,1.14,-1.83,0.06,8.73,904.62,33.93
2509197,-0.05,-0.08,1.07,-2.26,1.59,8.91,904.62,33.92
2509235,-0.05,-0.08,1.07,-2.26,0.61,8.85,904.63,33.93
2509274,-0.04,-0.07,1.08,-2.01,1.77,8.91,904.63,33.93
2509312,-0.03,-0.08,1.1,-2.14,1.83,8.91,904.72,33.93
2509361,-0.05,-0.08,1.13,-2.2,1.1,9.09,904.69,33.92
2509399,-0.05,-0.09,1.14,-1.95,1.46,9.22,904.69,33.93
2509438,-0.06,-0.07,1.14,-2.01,1.28,9.52,904.68,33.94
2509476,-0.05,-0.06,1.17,-1.65,1.71,9.34,904.66,33.92
2509514,-0.05,-0.06,1.15,-1.34,2.44,9.58,904.73,33.94
2509552,-0.05,-0.06,1.16,-0.73,2.99,9.46,904.69,33.92
2509590,-0.05,-0.07,1.17,-0.06,2.99,9.64,904.71,33.94
2509628,-0.05,-0.07,1.1,0.31,4.64,9.64,904.71,33.93
2509666,-0.07,-0.08,1.07,0.92,5.13,9.89,904.7,33.93
2509704,-0.05,-0.09,1.01,0.67,5.62,9.95,904.67,33.95
2509754,-0.04,-0.08,0.96,0.43,5.8,9.89,904.7,33.91
2509792,-0.06,-0.09,0.92,-0.37,6.04,10.25,904.71,33.92
2509830,-0.04,-0.08,0.92,-0.67,5.68,10.44,904.7,33.94
2509868,-0.05,-0.09,0.89,-1.4,5.8,10.56,904.66,33.94
2509906,-0.04,-0.09,0.91,-2.08,5.8,10.56,904.71,33.93
2509944,-0.05,-0.09,0.9,-2.99,6.41,10.8,904.77,33.94
2509982,-0.05,-0.08,0.91,-3.72,5.74,10.86,904.73,33.93
2510020,-0.05,-0.08,0.92,-4.33,5.8,10.99,904.67,33.94
2510058,-0.05,-0.08,0.95,-4.94,6.77,11.17,904.7,33.94
2510108,-0.04,-0.07,0.99,-5.43,6.77,11.23,904.73,33.92
2510146,-0.06,-0.07,1.02,-5.98,6.96,11.41,904.76,33.93
2510184,-0.03,-0.08,1.08,-5.86,7.45,11.6,904.81,33.93
2510222,-0.04,-0.07,1.14,-6.29,7.57,11.47,904.76,33.92
2510260,-0.04,-0.07,1.18,-6.29,7.51,11.66,904.72,33.93
2510299,-0.03,-0.07,1.22,-6.65,8.0,11.66,904.75,33.94
2510337,-0.03,-0.06,1.27,-6.65,7.75,11.78,904.83,33.94
2510375,-0.04,-0.06,1.31,-6.59,7.81,11.84,904.8,33.93
2510413,-0.02,-0.07,1.34,-6.47,7.51,11.96,904.82,33.94
2510488,-0.04,-0.06,1.33,-6.77,7.08,12.15,904.87,33.91
2510526,-0.04,-0.06,1.36,-6.35,6.71,12.39,904.88,33.92
2510565,-0.02,-0.05,1.35,-6.84,6.77,12.15,904.84,33.92
2510654,-0.02,-0.06,1.41,-6.65,6.16,12.33,904.88,33.9
2510692,-0.03,-0.05,1.45,-6.41,5.31,12.39,904.84,33.9
2510730,-0.03,-0.05,1.44,-6.47,5.55,12.57,904.9,33.92
2510768,-0.04,-0.05,1.43,-6.23,5.07,12.45,904.82,33.9
2510806,-0.02,-0.06,1.42,-5.86,6.41,12.39,904.93,33.92
2510845,-0.03,-0.06,1.38,-5.68,6.59,12.27,904.92,33.92
2510883,-0.03,-0.06,1.37,-5.43,6.65,12.39,904.91,33.91
2510932,-0.04,-0.06,1.35,-5.13,6.77,12.21,904.9,33.92
2510971,-0.02,-0.06,1.35,-5.37,6.84,12.27,904.95,33.93
2511009,-0.01,-0.07,1.36,-5.37,6.16,12.33,904.97,33.92
2511047,-0.03,-0.07,1.35,-5.55,5.62,12.45,904.91,33.92
2511085,-0.03,-0.06,1.36,-5.62,5.25,12.51,905.01,33.93
2511123,-0.01,-0.06,1.35,-5.92,5.31,12.45,904.96,33.92
2511161,-0.03,-0.05,1.38,-5.92,4.39,12.57,905.01,33.92
2511199,-0.03,-0.06,1.38,-6.04,4.7,12.33,905.0,33.92
2511237,-0.02,-0.07,1.4,-5.8,4.09,12.33,905.01,33.92
2511287,-0.02,-0.05,1.42,-5.92,4.76,12.45,905.0,33.92
2511325,-0.02,-0.06,1.41,-5.74,3.78,12.39,904.95,33.93
2511363,-0.02,-0.05,1.42,-5.68,4.33,12.33,905.02,33.93
2511401,-0.01,-0.06,1.42,-5.43,4.64,12.21,905.06,33.92
2511439,-0.01,-0.05,1.46,-5.31,3.78,12.08,905.04,33.93
2511477,-0.02,-0.05,1.45,-5.31,4.21,12.15,905.02,33.92
2511516,-0.02,-0.04,1.5,-5.25,3.85,11.96,905.01,33.92
2511554,-0.01,-0.05,1.5,-5.31,5.25,11.72,905.04,33.93
2511592,-0.02,-0.04,1.47,-5.25,4.88,11.78,905.07,33.93
2511642,-0.02,-0.06,1.46,-4.76,5.74,11.72,905.07,33.92
2511680,-0.0,-0.05,1.42,-4.94,6.47,11.54,905.07,33.92
2511718,-0.02,-0.05,1.41,-4.03,5.74,11.23,905.13,33.93
2511756,-0.01,-0.06,1.36,-3.91,6.77,11.17,905.14,33.94
2511794,-0.01,-0.06,1.35,-2.93,5.98,10.86,905.13,33.92
2511832,-0.01,-0.07,1.33,-2.5,6.29,10.8,905.11,33.93
2511870,-0.01,-0.06,1.32,-1.95,5.55,10.93,905.11,33.94
2511908,-0.02,-0.06,1.28,-1.89,5.37,10.8,905.1,33.92
2511946,-0.01,-0.06,1.27,-1.83,4.82,10.62,905.12,33.92
2511996,-0.01,-0.07,1.22,-2.14,4.94,10.5,905.11,33.91
2512034,-0.02,-0.07,1.19,-3.05,4.46,10.5,905.12,33.92
2512072,-0.01,-0.07,1.22,-3.48,4.27,10.44,905.12,33.92
2512110,-0.01,-0.08,1.2,-4.09,4.64,10.19,905.18,33.93
2512148,-0.02,-0.06,1.22,-4.27,4.33,10.31,905.07,33.92
2512186,-0.02,-0.07,1.22,-4.7,4.64,10.25,905.14,33.92
2512224,-0.02,-0.07,1.25,-4.64,3.85,10.07,905.19,33.94
2512262,-0.02,-0.07,1.21,-5.0,4.15,10.19,905.14,33.92
2512300,-0.02,-0.07,1.22,-4.94,3.78,10.13,905.16,33.92
2512338,-0.02,-0.07,1.25,-5.25,4.27,10.19,905.15,33.93
2512388,-0.01,-0.07,1.22,-5.43,3.97,10.19,905.1,33.92
2512426,-0.02,-0.07,1.22,-5.49,4.27,9.95,905.15,33.92
2512464,-0.01,-0.06,1.21,-5.74,3.97,9.89,905.18,33.92
2512502,-0.0,-0.06,1.22,-6.1,3.97,9.83,905.12,33.92
2512541,-0.01,-0.07,1.21,-5.92,3.54,9.77,905.16,33.92
2512579,-0.01,-0.07,1.24,-5.68,3.05,9.7,905.21,33.93
2512617,-0.01,-0.07,1.2,-5.43,3.54,9.64,905.16,33.92
2512655,-0.02,-0.06,1.18,-4.88,2.81,9.7,905.2,33.93
2512693,-0.02,-0.07,1.17,-4.15,3.54,9.64,905.22,33.92
2512743,-0.01,-0.08,1.1,-3.42,4.27,9.46,905.23,33.91
2512781,-0.01,-0.07,1.09,-3.17,3.78,9.34,905.21,33.92
2512819,-0.01,-0.07,1.06,-2.81,4.82,9.16,905.2,33.92
2512857,-0.01,-0.07,1.06,-2.5,3.91,9.03,905.22,33.93
2512895,-0.01,-0.07,1.08,-2.26,4.7,9.22,905.19,33.92
2512933,-0.03,-0.08,1.07,-2.75,4.76,9.22,905.21,33.94
2512971,-0.02,-0.06,1.14,-2.2,4.39,9.09,905.14,33.91
2513009,-0.02,-0.07,1.12,-2.56,5.37,9.22,905.17,33.92
2513047,-0.01,-0.07,1.16,-2.32,5.19,8.85,905.19,33.93
2513085,-0.03,-0.07,1.15,-2.26,5.68,9.09,905.17,33.93
2513135,-0.03,-0.07,1.15,-2.2,5.43,9.46,905.15,33.9
2513173,-0.02,-0.08,1.19,-2.2,6.23,9.16,905.18,33.91
2513211,-0.02,-0.07,1.16,-2.75,6.41,9.16,905.17,33.93
2513249,-0.03,-0.07,1.17,-2.56,5.98,9.16,905.22,33.92
2513287,-0.02,-0.07,1.17,-3.36,6.16,9.09,905.15,33.92
2513325,-0.01,-0.06,1.22,-3.66,5.86,8.97,905.17,33.93
2513363,-0.02,-0.06,1.23,-4.27,6.47,9.16,905.14,33.92
2513401,-0.02,-0.05,1.28,-4.09,5.86,9.22,905.09,33.92
2513439,-0.02,-0.06,1.31,-4.64,6.35,9.22,905.16,33.92
2513516,-0.03,-0.05,1.4,-5.0,5.98,9.4,905.17,33.89
2513554,-0.02,-0.05,1.4,-5.13,5.98,9.4,905.16,33.89
2513592,-0.03,-0.03,1.45,-4.76,5.86,9.4,905.19,33.9
2513681,-0.02,-0.04,1.5,-4.33,5.0,9.34,905.21,33.88
2513719,-0.04,-0.04,1.49,-4.27,5.49,9.46,905.23,33.91
2513757,-0.02,-0.04,1.48,-3.85,5.55,9.64,905.2,33.88
2513796,-0.01,-0.03,1.53,-3.48,4.94,9.58,905.2,33.89
2513834,-0.03,-0.04,1.46,-3.36,6.16,9.58,905.23,33.91
2513872,-0.02,-0.03,1.48,-2.69,5.31,9.7,905.24,33.91
2513910,-0.02,-0.05,1.44,-2.69,6.16,9.7,905.24,33.9
2513960,-0.01,-0.04,1.45,-2.69,4.33,9.46,905.19,33.9
2513998,-0.04,-0.05,1.46,-2.08,5.19,9.95,905.22,33.91
2514036,-0.02,-0.06,1.36,-3.05,5.37,10.01,905.19,33.91
2514074,-0.0,-0.05,1.39,-2.93,4.76,10.13,905.24,33.9
2514112,-0.03,-0.07,1.29,-3.11,5.74,9.95,905.18,33.91
2514150,-0.02,-0.07,1.28,-2.87,5.19,9.77,905.21,33.93
2514188,-0.01,-0.05,1.32,-2.87,5.0,9.77,905.18,33.91
2514226,0.0,-0.06,1.33,-3.17,4.33,9.7,905.14,33.92
2514264,-0.01,-0.06,1.43,-3.17,2.93,9.77,905.06,33.93
2514314,-0.02,-0.06,1.44,-3.91,3.42,9.7,905.09,33.9
2514352,-0.02,-0.05,1.5,-3.6,3.97,9.28,905.08,33.9
2514390,-0.02,-0.05,1.4,-4.82,5.31,9.34,905.12,33.92
2514428,-0.02,-0.03,1.47,-4.39,4.64,9.09,905.12,33.9
2514466,-0.0,-0.06,1.39,-4.94,8.73,8.61,905.11,33.9
2514504,-0.03,-0.06,1.41,-4.52,8.48,8.61,905.08,33.9
2514542,-0.02,-0.06,1.38,-4.58,9.46,8.61,905.19,33.92
2514580,-0.03,-0.05,1.33,-4.39,8.73,8.42,905.1,33.92
2514618,-0.03,-0.05,1.36,-3.85,9.52,8.67,905.17,33.91
2514656,-0.0,-0.09,1.27,-4.27,9.64,8.73,905.16,33.92
2514706,-0.02,-0.04,1.34,-3.36,7.08,8.73,905.12,33.91
2514744,-0.0,-0.07,1.26,-3.91,8.0,8.91,905.12,33.91
2514782,-0.02,-0.05,1.3,-3.72,5.98,8.91,905.09,33.91
2514820,-0.02,-0.06,1.33,-3.42,5.43,9.09,905.07,33.94
2514858,-0.01,-0.06,1.31,-3.36,4.76,8.85,905.1,33.91
2514896,-0.03,-0.05,1.34,-3.3,4.21,9.09,905.09,33.91
2514934,-0.02,-0.05,1.34,-3.17,4.39,8.91,905.17,33.93
2514973,-0.02,-0.06,1.31,-2.75,4.82,8.91,905.09,33.92
2515011,-0.02,-0.06,1.29,-2.26,4.88,8.91,905.11,33.91
2515060,-0.02,-0.06,1.27,-1.77,4.94,8.61,905.14,33.93
2515099,-0.02,-0.07,1.21,-1.71,6.23,8.42,905.1,33.91
2515137,-0.02,-0.06,1.2,-1.34,6.23,8.48,905.11,33.92
2515175,-0.02,-0.07,1.16,-1.28,6.84,8.48,904.98,33.92
2515213,-0.02,-0.07,1.14,-1.04,6.47,8.3,905.09,33.92
2515251,-0.03,-0.07,1.1,-1.1,7.08,8.42,905.04,33.92
2515289,-0.01,-0.07,1.09,-0.98,6.59,8.3,904.95,33.91
2515327,-0.02,-0.07,1.09,-0.73,6.47,8.36,905.01,33.93
2515365,-0.03,-0.06,1.11,-0.98,7.02,8.24,904.96,33.92
2515403,-0.04,-0.05,1.15,-0.79,8.61,8.06,904.99,33.92
2515453,-0.03,-0.05,1.23,-0.79,10.38,7.87,904.94,33.9
2515491,-0.03,-0.06,1.34,-0.43,11.54,7.81,904.96,33.92
2515529,-0.02,-0.05,1.34,-1.1,12.82,7.87,904.89,33.92
2515567,-0.02,-0.02,1.47,-0.85,11.6,8.18,904.9,33.91
2515606,-0.03,-0.02,1.48,-0.98,11.78,8.48,904.94,33.92
2515644,-0.05,-0.04,1.49,-0.18,9.03,8.67,904.9,33.92
2515682,-0.03,-0.06,1.48,0.12,7.87,8.91,904.94,33.92
2515720,-0.02,-0.06,1.41,-0.24,7.75,9.16,904.92,33.92
2515758,-0.02,-0.03,1.36,0.79,5.68,9.16,904.98,33.91
2515808,-0.03,-0.05,1.25,1.22,5.31,9.09,904.93,33.91
2515846,-0.03,-0.09,1.17,1.34,5.8,8.91,904.96,33.92
2515884,-0.03,-0.07,1.19,1.22,4.7,9.16,904.92,33.92
2515922,-0.05,-0.06,1.16,1.16,4.58,8.85,904.86,33.91
2515960,-0.02,-0.06,1.13,0.55,5.68,8.79,904.84,33.91
2515998,-0.01,-0.06,1.22,0.43,4.39,8.67,904.82,33.91
2516036,-0.03,-0.08,1.15,-0.55,6.77,8.73,904.83,33.92
2516074,-0.05,-0.06,1.2,0.18,5.31,8.61,904.85,33.91
2516112,-0.02,-0.06,1.16,-0.24,8.0,8.48,904.86,33.92
2516150,-0.02,-0.05,1.19,0.18,6.29,8.67,904.78,33.9
2516200,-0.01,-0.07,1.17,0.31,6.29,8.73,904.75,33.9
2516238,-0.03,-0.06,1.17,0.43,4.58,8.79,904.75,33.9
2516276,-0.0,-0.07,1.17,0.18,4.82,8.79,904.72,33.92
2516314,-0.02,-0.07,1.13,-0.37,3.72,8.85,904.68,33.9
2516352,-0.02,-0.06,1.15,-0.24,2.75,8.85,904.76,33.92
2516390,-0.01,-0.07,1.09,-0.92,3.11,8.85,904.71,33.91
2516428,-0.01,-0.07,1.1,-0.49,2.01,8.73,904.65,33.9
2516466,0.01,-0.07,1.07,-1.1,2.2,8.85,904.66,33.92
2516504,-0.01,-0.05,1.07,-1.22,1.65,8.79,904.64,33.9
2516580,-0.01,-0.07,1.05,-0.98,1.34,8.67,904.66,33.88
2516618,-0.03,-0.06,1.07,-0.85,0.92,8.61,904.61,33.9
2516656,-0.03,-0.07,1.05,-0.73,1.22,8.61,904.66,33.9
2516745,-0.01,-0.06,1.03,-0.37,0.85,8.48,904.53,33.87
2516784,-0.02,-0.06,1.02,-0.24,0.55,8.48,904.54,33.89
2516822,-0.02,-0.06,1.03,0.24,1.04,8.48,904.53,33.88
2516860,-0.01,-0.06,1.0,0.06,0.73,8.61,904.44,33.89
2516898,-0.02,-0.06,1.02,0.49,0.79,8.61,904.49,33.9
2516936,-0.02,-0.07,1.0,0.61,1.83,8.54,904.44,33.88
2516974,-0.02,-0.06,1.01,1.16,2.08,8.36,904.4,33.89
2517024,-0.01,-0.07,0.95,0.79,3.66,8.42,904.42,33.89
2517062,-0.04,-0.06,0.91,1.1,3.36,8.42,904.4,33.89
2517100,-0.03,-0.07,0.86,1.22,5.98,8.24,904.34,33.9
2517138,-0.02,-0.06,0.84,1.53,6.29,8.3,904.34,33.89
2517176,-0.03,-0.06,0.86,1.65,7.32,8.3,904.33,33.9
2517214,-0.03,-0.07,0.79,1.28,8.18,8.3,904.32,33.9
2517252,-0.03,-0.07,0.79,1.4,9.22,8.42,904.34,33.9
2517290,-0.01,-0.07,0.77,1.22,10.31,8.42,904.27,33.9
2517328,-0.01,-0.07,0.8,1.34,8.79,8.48,904.22,33.91
2517378,-0.04,-0.07,0.78,1.1,9.83,8.61,904.26,33.9
2517416,-0.0,-0.07,0.77,1.28,10.25,8.48,904.24,33.9
2517454,-0.0,-0.06,0.8,1.34,10.01,8.42,904.19,33.89
2517492,-0.01,-0.07,0.79,0.85,9.64,8.79,904.23,33.9
2517530,-0.01,-0.06,0.84,0.98,9.4,8.48,904.24,33.9
2517568,0.01,-0.08,0.86,0.73,9.46,8.48,904.18,33.9
2517606,0.0,-0.06,0.88,0.37,7.39,8.67,904.25,33.91
2517644,-0.02,-0.07,0.86,-0.06,7.39,8.48,904.21,33.9
2517682,-0.0,-0.07,0.88,-0.12,5.86,8.48,904.2,33.9
2517721,0.0,-0.07,0.88,-0.55,5.98,8.48,904.28,33.91
2517770,0.0,-0.08,0.82,-0.61,5.49,8.48,904.28,33.9
2517808,-0.01,-0.07,0.88,-0.49,4.33,8.3,904.24,33.9
2517847,-0.02,-0.08,0.8,-1.16,5.74,8.24,904.22,33.9
2517885,0.0,-0.06,0.84,-0.92,4.64,8.12,904.23,33.9
2517923,0.01,-0.07,0.88,-1.65,5.37,8.06,904.21,33.92
2517961,-0.02,-0.06,0.91,-1.53,2.93,7.93,904.23,33.91
2517999,-0.03,-0.07,0.95,-1.46,4.39,7.87,904.24,33.9
2518037,-0.01,-0.07,0.95,-1.59,4.64,7.81,904.24,33.89
2518075,0.0,-0.05,1.03,-1.46,3.97,7.51,904.2,33.9
2518113,-0.03,-0.06,1.04,-1.53,5.49,7.57,904.17,33.91
2518163,-0.01,-0.07,1.07,-1.46,6.04,7.63,904.23,33.89
2518201,-0.02,-0.05,1.14,-0.98,5.92,7.39,904.18,33.9
2518239,-0.02,-0.06,1.09,-0.98,6.35,7.51,904.21,33.9
2518277,-0.02,-0.04,1.16,-0.73,3.78,7.45,904.18,33.9
2518315,-0.04,-0.05,1.15,-0.73,4.88,7.69,904.21,33.91
2518353,-0.02,-0.05,1.12,-0.49,2.87,7.87,904.14,33.9
2518391,-0.01,-0.05,1.16,-0.06,2.26,7.81,904.13,33.9
2518430,-0.03,-0.07,1.05,0.06,2.08,8.06,904.18,33.92
2518468,-0.02,-0.06,1.06,0.31,0.37,8.24,904.18,33.91
2518517,-0.04,-0.07,0.95,0.0,0.67,8.3,904.12,33.88
2518555,-0.02,-0.07,0.98,0.43,0.18,8.54,904.12,33.9
2518594,-0.01,-0.07,0.89,0.06,1.71,8.36,904.17,33.9
2518632,-0.03,-0.08,0.86,0.85,1.04,8.48,904.17,33.9
2518670,-0.01,-0.07,0.83,0.92,1.71,8.3,904.08,33.9
2518708,-0.03,-0.07,0.79,1.4,2.01,8.48,904.17,33.91
2518746,-0.03,-0.08,0.74,1.89,3.36,8.36,904.1,33.92
2518784,-0.03,-0.07,0.7,1.89,3.66,8.36,904.04,33.9
2518822,-0.0,-0.08,0.68,1.95,4.58,8.24,904.09,33.92
2518860,-0.01,-0.08,0.69,1.83,5.8,8.24,904.04,33.9
2518910,-0.0,-0.08,0.78,2.08,8.24,8.24,903.99,33.89
2518948,0.01,-0.07,0.72,1.65,9.16,8.0,904.04,33.9
2518986,-0.04,-0.05,0.86,2.08,8.42,8.06,904.03,33.9
2519024,-0.04,-0.09,0.73,0.37,13.0,8.24,904.02,33.9
2519062,-0.03,-0.05,0.89,1.28,10.07,7.93,904.07,33.91
2519100,-0.02,-0.07,0.89,0.43,12.15,8.18,904.0,33.9
2519138,-0.01,-0.06,0.95,0.67,9.64,8.18,904.08,33.9
2519176,-0.02,-0.06,1.02,0.73,9.64,8.42,904.07,33.91
2519214,-0.0,-0.07,0.99,0.06,8.73,8.24,904.11,33.9
2519264,-0.03,-0.05,1.03,0.12,5.86,8.67,904.19,33.9
2519302,-0.02,-0.07,1.0,0.18,5.43,8.48,904.18,33.9
2519340,-0.0,-0.07,0.99,-0.06,5.43,8.42,904.16,33.89
2519378,-0.0,-0.06,1.01,0.37,3.85,8.54,904.17,33.9
2519416,-0.0,-0.06,0.99,0.0,2.62,8.61,904.12,33.91
2519454,0.0,-0.05,1.0,-0.06,1.59,8.36,904.16,33.9
2519492,-0.01,-0.05,1.0,0.31,1.28,8.12,904.1,33.9
2519530,-0.0,-0.06,1.09,0.92,-0.79,7.93,904.17,33.9
2519568,0.02,-0.07,1.09,0.73,-1.16,7.93,904.17,33.91
2519606,0.0,-0.05,1.08,0.55,-1.65,7.45,904.2,33.9
2519682,0.01,-0.06,1.05,0.61,-1.28,7.14,904.12,33.87
2519720,-0.03,-0.04,1.08,0.79,-2.99,6.96,904.2,33.89
2519758,-0.02,-0.06,1.04,0.31,-1.89,6.96,904.19,33.9
2519847,0.0,-0.05,1.06,0.79,-2.01,6.47,904.19,33.85
2519885,-0.03,-0.05,1.08,1.4,-2.5,6.53,904.24,33.87
2519923,-0.02,-0.06,1.08,1.77,-0.92,6.47,904.15,33.87
2519961,-0.02,-0.05,1.03,1.71,-1.16,6.29,904.13,33.86
2520000,-0.05,-0.04,1.09,2.56,-1.34,6.16,904.17,33.87
2520038,-0.02,-0.06,0.97,1.95,1.53,6.35,904.22,33.88
2520076,-0.02,-0.05,1.02,2.75,0.73,6.04,904.15,33.88
2520125,-0.02,-0.07,0.94,2.5,3.23,6.29,904.11,33.86
2520164,-0.02,-0.05,0.99,2.75,2.44,6.16,904.17,33.86
2520202,-0.02,-0.05,0.92,2.2,4.58,6.1,904.13,33.87
2520240,-0.02,-0.05,0.96,2.56,3.72,6.1,904.16,33.88
2520278,-0.0,-0.07,0.92,2.08,5.92,6.04,904.22,33.88
2520316,-0.0,-0.06,0.94,2.14,4.58,5.8,904.16,33.87
2520354,-0.02,-0.06,0.95,2.08,5.0,5.98,904.17,33.88
2520392,-0.01,-0.07,0.91,1.65,5.49,5.86,904.18,33.87
2520430,-0.02,-0.06,0.93,1.77,5.31,5.68,904.17,33.88
2520480,-0.02,-0.07,0.92,1.4,5.49,5.92,904.24,33.87
2520518,-0.0,-0.06,0.94,1.28,4.94,5.68,904.24,33.87
2520556,-0.01,-0.06,0.94,1.28,5.31,5.62,904.2,33.89
2520594,-0.03,-0.06,0.96,1.28,4.94,5.68,904.17,33.88
2520632,-0.02,-0.06,0.96,1.1,5.62,5.8,904.26,33.88
2520670,-0.02,-0.05,0.98,1.28,4.76,5.68,904.27,33.89
2520708,-0.03,-0.06,0.97,1.1,5.74,5.74,904.22,33.88
2520746,-0.02,-0.05,0.98,1.22,5.07,5.74,904.25,33.89
2520784,-0.01,-0.06,1.04,1.34,3.91,5.68,904.28,33.88
2520822,-0.03,-0.06,0.98,0.92,4.15,5.8,904.29,33.88
2520872,-0.03,-0.05,1.01,0.85,4.52,5.8,904.28,33.88
2520910,-0.0,-0.06,0.96,0.18,4.15,5.86,904.24,33.87
2520948,-0.03,-0.04,1.01,0.37,2.5,5.98,904.28,33.88
2520986,-0.03,-0.07,0.97,-0.24,3.66,6.1,904.3,33.89
2521024,-0.02,-0.04,1.03,-0.18,1.04,5.98,904.24,33.88
2521062,-0.05,-0.05,1.08,0.31,2.32,6.23,904.27,33.9
2521100,-0.01,-0.07,1.0,-0.92,2.99,6.41,904.34,33.89
2521138,-0.03,-0.03,1.1,-0.31,0.73,6.23,904.23,33.88
2521176,-0.04,-0.06,0.98,-0.98,2.93,6.41,904.32,33.89
2521226,-0.03,-0.05,1.03,-0.37,2.08,6.47,904.29,33.88
2521264,-0.02,-0.06,0.95,-0.79,2.44,6.59,904.37,33.9
2521302,-0.04,-0.05,0.98,-0.18,0.49,6.41,904.35,33.9
2521340,-0.04,-0.05,0.95,-0.37,2.62,6.47,904.31,33.88
2521378,-0.02,-0.06,0.98,0.12,2.01,6.59,904.4,33.9
2521416,-0.03,-0.06,1.03,0.24,2.38,6.47,904.37,33.9
2521454,-0.04,-0.06,0.96,0.18,4.15,6.47,904.37,33.9
2521492,-0.04,-0.05,1.02,0.79,5.19,6.41,904.37,33.9
2521530,-0.02,-0.05,1.0,0.31,6.23,6.35,904.38,33.9
2521568,-0.05,-0.06,0.98,0.55,6.16,6.41,904.35,33.89
2521618,-0.04,-0.07,1.0,1.04,8.42,6.59,904.32,33.88
2521656,-0.01,-0.05,1.06,1.22,7.81,6.59,904.35,33.88
2521694,-0.04,-0.05,1.05,1.04,8.73,6.84,904.4,33.89
2521732,-0.04,-0.06,1.01,1.22,8.3,6.84,904.45,33.89
2521770,-0.03,-0.05,1.08,1.65,7.93,6.9,904.46,33.88
2521808,0.0,-0.07,1.06,1.34,7.57,7.08,904.45,33.89
2521846,-0.02,-0.06,1.08,1.34,5.43,6.96,904.44,33.9
2521884,-0.02,-0.05,1.05,1.4,4.46,6.9,904.37,33.89
2521922,-0.02,-0.06,1.05,1.4,3.48,7.02,904.46,33.9
2521960,-0.01,-0.06,1.04,1.46,2.32,6.96,904.45,33.89
2522010,-0.01,-0.05,1.06,1.34,0.92,7.08,904.48,33.88
2522048,-0.01,-0.06,1.05,1.1,0.49,6.96,904.47,33.89
2522086,-0.01,-0.06,1.04,0.79,-0.06,6.77,904.47,33.88
2522124,0.01,-0.05,1.11,0.55,-0.24,6.59,904.47,33.89
2522162,-0.01,-0.07,1.04,0.12,-0.37,6.53,904.53,33.89
2522200,-0.02,-0.06,1.03,0.0,-1.34,6.29,904.46,33.89
2522238,-0.0,-0.05,1.08,0.06,-1.65,6.04,904.55,33.89
2522276,-0.02,-0.06,1.1,0.43,-1.1,5.8,904.52,33.88
2522315,0.01,-0.06,1.06,0.55,-0.85,5.8,904.5,33.89
2522364,-0.05,-0.05,1.13,1.53,-0.79,5.37,904.49,33.87
2522402,-0.02,-0.07,1.09,1.04,-0.12,5.07,904.53,33.88
2522440,-0.02,-0.06,1.11,1.1,-1.53,5.07,904.54,33.89
2522478,-0.05,-0.06,1.05,1.22,-1.95,4.88,904.56,33.88
2522517,-0.03,-0.07,1.09,1.34,-2.38,5.0,904.58,33.89
2522555,-0.02,-0.06,1.1,1.16,-3.42,4.94,904.53,33.88
2522593,-0.04,-0.06,1.14,1.59,-5.13,4.88,904.47,33.89
2522631,-0.05,-0.06,1.17,0.98,-4.76,5.0,904.52,33.89
2522669,-0.05,-0.05,1.18,0.55,-4.39,5.0,904.55,33.88
2522707,-0.07,-0.04,1.26,0.98,-4.46,4.64,904.54,33.88
2522835,-0.07,-0.06,1.22,0.92,2.26,4.7,904.61,33.83
2522873,-0.06,-0.03,1.26,1.59,1.65,4.52,904.58,33.84
2522911,-0.08,-0.05,1.19,2.01,2.99,4.64,904.6,33.85
2523000,-0.06,-0.06,1.14,1.59,3.91,5.19,904.62,33.82
2523038,-0.07,-0.06,1.09,0.98,3.05,5.43,904.59,33.84
2523077,-0.07,-0.05,1.04,0.92,3.17,5.55,904.6,33.83
2523115,-0.07,-0.07,0.98,0.43,2.62,5.8,904.6,33.84
2523153,-0.08,-0.08,0.95,-0.06,1.65,6.16,904.65,33.84
2523191,-0.08,-0.08,0.93,-0.12,1.53,6.53,904.62,33.85
2523241,-0.08,-0.08,0.83,-1.04,1.71,6.65,904.56,33.85
2523279,-0.09,-0.06,0.83,-1.59,1.4,6.9,904.57,33.84
2523317,-0.08,-0.06,0.91,-2.2,1.95,7.2,904.6,33.86
2523355,-0.08,-0.09,0.92,-2.93,2.69,7.39,904.55,33.86
2523393,-0.08,-0.07,1.01,-3.54,1.89,7.57,904.58,33.86
2523431,-0.11,-0.07,1.07,-3.6,2.56,8.06,904.62,33.87
2523469,-0.08,-0.06,1.07,-4.33,2.99,8.54,904.66,33.86
2523507,-0.09,-0.06,1.13,-4.03,2.38,8.48,904.69,33.86
2523546,-0.08,-0.08,1.1,-4.15,3.42,8.79,904.67,33.86
2523584,-0.08,-0.08,1.1,-3.91,2.93,9.09,904.68,33.87
2523633,-0.07,-0.07,1.1,-3.97,4.7,9.4,904.72,33.87
2523672,-0.06,-0.05,1.15,-3.91,3.23,9.46,904.72,33.88
2523710,-0.05,-0.06,1.22,-3.72,2.81,9.95,904.73,33.87
2523748,-0.08,-0.08,1.23,-4.21,2.69,10.38,904.72,33.87
2523786,-0.08,-0.07,1.29,-3.78,2.14,10.31,904.78,33.87
2523824,-0.04,-0.07,1.25,-4.21,3.11,10.56,904.69,33.86
2523862,-0.05,-0.06,1.25,-3.97,2.08,10.8,904.83,33.86
2523900,-0.06,-0.07,1.2,-4.09,2.5,10.86,904.75,33.86
2523938,-0.07,-0.07,1.16,-4.09,2.56,11.05,904.72,33.85
2523988,-0.05,-0.06,1.19,-4.03,2.56,11.05,904.81,33.86
2524026,-0.04,-0.06,1.24,-4.52,2.01,11.11,904.81,33.86
2524064,-0.05,-0.07,1.26,-4.58,2.44,11.23,904.87,33.88
2524102,-0.04,-0.07,1.26,-4.7,2.93,11.23,904.82,33.88
2524141,-0.04,-0.07,1.29,-4.82,2.87,11.11,904.91,33.88
2524179,-0.05,-0.07,1.28,-4.52,2.93,11.29,904.84,33.87
2524217,-0.05,-0.06,1.31,-4.15,3.48,11.23,904.82,33.86
2524255,-0.03,-0.07,1.27,-4.15,4.21,11.23,904.87,33.88
2524293,-0.03,-0.07,1.28,-4.46,3.17,11.23,904.85,33.87
2524331,-0.06,-0.07,1.32,-4.27,3.91,11.17,904.93,33.88
2524381,-0.02,-0.07,1.34,-3.72,3.36,11.17,904.84,33.87
2524419,-0.02,-0.07,1.3,-3.97,4.27,11.17,904.9,33.88
2524457,-0.04,-0.07,1.28,-3.85,4.52,11.11,904.88,33.87
2524495,-0.01,-0.08,1.3,-3.78,5.49,11.05,904.86,33.88
2524533,-0.01,-0.07,1.27,-3.91,5.13,11.05,904.88,33.89
2524572,-0.02,-0.08,1.3,-3.72,5.25,10.99,904.93,33.88
2524610,-0.02,-0.07,1.27,-4.21,6.23,10.86,904.88,33.88
2524648,-0.01,-0.06,1.35,-3.91,5.25,10.99,904.82,33.9
2524686,-0.01,-0.08,1.27,-4.39,6.1,11.17,904.91,33.88
2524736,-0.01,-0.07,1.34,-3.91,4.64,10.8,904.84,33.87
2524774,0.0,-0.08,1.34,-4.27,5.62,10.74,904.86,33.86
2524812,0.01,-0.07,1.36,-4.27,4.46,10.38,904.8,33.87
2524850,0.01,-0.07,1.35,-4.15,5.19,10.44,904.73,33.88
2524888,0.01,-0.09,1.34,-4.21,6.1,10.31,904.82,33.88
2524926,0.0,-0.09,1.34,-3.91,6.23,10.31,904.8,33.87
2524964,0.01,-0.08,1.35,-3.72,6.1,10.01,904.75,33.87
2525003,0.01,-0.07,1.34,-3.72,6.65,10.07,904.73,33.88
2525041,0.01,-0.08,1.33,-3.97,7.14,9.7,904.7,33.88
2525090,0.01,-0.07,1.36,-3.6,6.59,9.64,904.71,33.88
2525129,0.02,-0.08,1.36,-3.85,7.32,9.4,904.66,33.88
2525167,0.03,-0.08,1.35,-4.15,6.96,9.09,904.74,33.89
2525205,0.02,-0.08,1.34,-3.97,7.2,8.97,904.73,33.88
2525243,0.02,-0.08,1.32,-3.91,6.71,8.73,904.73,33.9
2525281,0.04,-0.08,1.35,-3.85,6.41,8.42,904.68,33.88
2525319,0.03,-0.09,1.33,-4.27,6.23,8.18,904.64,33.88
2525357,0.01,-0.07,1.41,-3.97,5.98,8.0,904.67,33.88
2525395,0.03,-0.06,1.44,-4.88,6.1,7.81,904.67,33.9
2525434,0.0,-0.08,1.45,-4.7,6.41,7.39,904.69,33.9
2525483,-0.02,-0.06,1.61,-3.72,5.8,7.08,904.67,33.88
2525521,0.02,-0.08,1.54,-3.66,8.18,7.14,904.76,33.87
2525560,-0.03,-0.07,1.51,-3.11,7.14,7.02,904.74,33.87
2525598,-0.02,-0.05,1.53,-2.62,6.84,6.96,904.78,33.89
2525636,0.0,-0.05,1.48,-3.36,7.14,6.9,904.76,33.88
2525674,-0.02,-0.07,1.44,-2.56,7.02,6.96,904.77,33.89
2525712,-0.03,-0.08,1.39,-1.77,7.2,6.9,904.77,33.88
2525750,-0.02,-0.07,1.38,-1.83,6.77,7.08,904.72,33.89
2525788,-0.05,-0.08,1.31,-1.65,6.47,7.26,904.72,33.88
2525864,-0.04,-0.08,1.35,-1.71,7.32,7.26,904.65,33.85
2525902,-0.01,-0.07,1.42,-0.79,4.88,7.63,904.61,33.87
2525940,-0.03,-0.08,1.36,-1.77,6.35,7.81,904.6,33.88
2526030,-0.02,-0.09,1.18,-1.71,9.22,8.06,904.54,33.83
2526068,-0.03,-0.07,1.25,-0.73,8.24,7.81,904.6,33.85
2526106,0.01,-0.09,1.16,-0.92,12.45,7.87,904.56,33.84
2526144,0.03,-0.07,1.14,-0.55,12.57,7.63,904.48,33.86
2526182,-0.01,-0.09,1.15,-0.12,15.08,7.57,904.44,33.84
2526220,0.0,-0.12,1.09,-0.55,17.15,7.75,904.5,33.87
2526258,-0.01,-0.08,1.13,-0.37,16.54,7.26,904.49,33.86
2526308,-0.01,-0.11,1.03,-1.04,19.71,7.2,904.46,33.84
2526346,0.0,-0.09,1.03,-0.79,18.37,7.26,904.48,33.86
2526384,0.0,-0.1,1.0,-0.12,19.17,7.32,904.44,33.86
2526422,0.01,-0.08,0.97,0.12,16.66,7.02,904.49,33.86
2526460,-0.0,-0.09,0.95,0.37,16.36,7.2,904.52,33.86
2526499,0.02,-0.1,0.92,0.0,13.31,7.32,904.59,33.87
2526537,0.0,-0.09,0.99,-0.37,10.25,7.02,904.61,33.88
2526575,0.01,-0.09,0.95,-0.92,7.69,6.77,904.58,33.87
2526613,0.0,-0.08,0.96,-1.16,4.7,7.02,904.61,33.88
2526662,0.01,-0.09,0.97,-1.89,2.99,6.84,904.49,33.86
2526701,0.0,-0.09,1.0,-2.08,1.65,6.65,904.51,33.86
2526739,-0.01,-0.09,1.01,-2.2,2.01,6.65,904.51,33.87
2526777,-0.01,-0.1,1.03,-1.95,1.89,6.41,904.52,33.87
2526815,-0.02,-0.09,1.04,-2.01,1.89,6.23,904.53,33.87
2526853,-0.02,-0.08,1.06,-1.71,2.26,5.86,904.54,33.88
2526891,-0.02,-0.09,1.1,-1.46,3.17,5.98,904.51,33.88
2526929,-0.01,-0.09,1.14,-0.85,3.85,6.23,904.46,33.89
2526967,-0.02,-0.09,1.08,-1.4,6.16,6.04,904.35,33.86
2527006,-0.04,-0.07,1.2,0.18,4.82,6.16,904.38,33.86
2527055,-0.02,-0.08,1.19,0.06,5.37,6.23,904.4,33.86
2527093,-0.03,-0.06,1.24,0.31,5.68,6.29,904.38,33.88
2527132,-0.02,-0.09,1.19,0.98,6.9,6.53,904.34,33.87
2527170,-0.03,-0.07,1.22,1.59,6.35,6.47,904.37,33.87
2527208,-0.01,-0.07,1.22,2.08,5.62,6.59,904.33,33.88
2527246,-0.01,-0.08,1.16,2.32,6.53,6.77,904.34,33.88
2527284,-0.03,-0.06,1.17,3.11,5.31,6.96,904.31,33.87
2527322,-0.01,-0.07,1.15,3.23,5.8,7.2,904.34,33.88
2527360,-0.04,-0.07,1.07,3.72,5.98,7.08,904.3,33.88
2527398,-0.02,-0.08,1.04,4.15,6.84,7.26,904.25,33.87
2527448,0.0,-0.09,0.99,3.42,7.26,7.02,904.18,33.86
2527486,-0.02,-0.08,0.94,2.56,7.14,7.26,904.15,33.86
2527524,-0.02,-0.09,0.94,0.98,7.32,7.39,904.15,33.88
2527562,-0.02,-0.08,1.0,-0.12,7.45,7.32,904.07,33.87
2527601,-0.01,-0.09,1.02,-1.28,8.18,7.2,904.11,33.87
2527639,0.01,-0.08,1.08,-1.59,7.75,7.26,904.1,33.88
2527677,-0.01,-0.08,1.1,-2.26,8.24,7.57,904.06,33.87
2527715,0.0,-0.07,1.14,-2.44,8.12,7.26,904.09,33.88
2527753,0.0,-0.07,1.22,-2.62,8.18,7.26,904.15,33.87
2527803,-0.01,-0.08,1.22,-2.2,9.22,7.26,904.07,33.86
2527841,0.0,-0.07,1.23,-1.65,9.83,7.2,904.14,33.87
2527879,-0.0,-0.07,1.19,-0.67,10.93,7.14,904.07,33.87
2527917,0.02,-0.08,1.19,0.31,11.23,7.14,904.17,33.88
2527955,0.01,-0.08,1.12,0.67,12.15,7.08,904.0,33.86
2527993,0.0,-0.08,1.09,1.46,12.15,7.2,904.06,33.88
2528031,-0.01,-0.08,1.0,1.77,12.51,6.96,903.95,33.87
2528069,0.02,-0.07,0.98,2.01,12.33,6.96,904.0,33.88
2528108,0.02,-0.09,0.96,1.95,12.57,6.9,903.92,33.86
2528146,0.01,-0.09,0.92,1.65,12.57,7.02,903.92,33.87
2528195,0.02,-0.08,0.92,1.46,12.27,6.59,903.91,33.86
2528234,0.0,-0.09,0.87,1.16,11.6,6.9,903.89,33.88
2528272,0.03,-0.08,0.93,1.28,9.89,6.65,903.89,33.87
2528310,0.04,-0.1,0.93,1.65,10.38,6.41,903.94,33.88
2528348,0.02,-0.09,0.93,2.14,8.67,6.23,903.88,33.88
2528386,0.01,-0.07,0.93,2.56,7.51,6.29,903.9,33.88
2528424,0.02,-0.08,0.93,3.05,7.32,6.04,903.87,33.88
2528462,0.01,-0.08,0.95,3.97,6.71,6.1,903.85,33.88
2528500,0.02,-0.09,0.9,4.33,6.65,6.1,903.91,33.88
2528538,0.02,-0.09,0.88,4.94,5.07,5.92,903.81,33.89
2528588,0.03,-0.09,0.83,4.88,5.8,5.49,903.84,33.86
2528626,0.03,-0.09,0.77,4.58,5.13,5.49,903.77,33.87
2528664,0.01,-0.09,0.71,4.52,5.74,5.31,903.7,33.87
2528702,0.01,-0.09,0.69,3.91,5.37,5.19,903.67,33.86
2528740,0.01,-0.09,0.67,3.23,5.98,4.7,903.75,33.88
2528779,0.0,-0.09,0.67,2.75,6.04,4.88,903.68,33.87
2528817,0.03,-0.09,0.71,1.83,6.47,4.46,903.66,33.87
2528855,0.02,-0.09,0.72,1.28,6.53,4.39,903.66,33.87
2528893,0.01,-0.08,0.77,0.79,6.47,4.15,903.63,33.87
2528969,0.02,-0.08,0.82,-0.37,6.16,4.09,903.64,33.84
2529007,0.02,-0.09,0.85,-1.04,6.04,3.97,903.65,33.86
2529045,0.02,-0.09,0.88,-1.4,5.07,3.6,903.63,33.87
2529134,0.02,-0.08,0.99,-1.77,3.54,3.42,903.69,33.84
2529172,0.02,-0.08,1.02,-2.2,3.3,3.23,903.69,33.85
2529211,0.01,-0.08,1.07,-1.89,2.44,2.99,903.68,33.86
2529249,0.0,-0.08,1.06,-1.83,3.17,2.93,903.68,33.85
2529287,0.01,-0.07,1.09,-1.4,3.36,2.69,903.64,33.85
2529325,0.02,-0.07,1.1,-1.22,3.54,2.44,903.7,33.88
2529363,0.01,-0.08,1.07,-1.1,3.54,2.32,903.62,33.86
2529413,-0.0,-0.07,1.09,-0.55,3.97,2.2,903.6,33.86
2529451,0.0,-0.07,1.09,-0.49,3.72,2.2,903.65,33.86
2529489,-0.0,-0.07,1.13,0.49,3.23,2.2,903.62,33.85
2529527,0.0,-0.07,1.12,1.16,3.3,2.14,903.63,33.85
2529565,0.01,-0.07,1.12,1.77,3.17,2.01,903.57,33.84
2529603,0.0,-0.07,1.14,2.5,2.56,1.83,903.59,33.86
2529641,-0.0,-0.07,1.1,2.99,2.01,1.83,903.54,33.86
2529679,-0.01,-0.08,1.07,3.3,1.16,1.83,903.57,33.87
2529717,-0.01,-0.07,1.07,3.85,-0.06,1.59,903.57,33.88
2529755,-0.03,-0.08,1.03,3.91,-0.67,1.71,903.46,33.86
2529805,-0.01,-0.07,0.99,4.27,-1.4,1.46,903.47,33.85
2529843,-0.01,-0.08,0.97,4.39,-1.46,1.34,903.44,33.86
2529881,-0.03,-0.08,0.95,4.82,-1.59,1.28,903.47,33.84
2529920,-0.03,-0.07,0.93,5.07,-1.28,1.34,903.47,33.87
2529958,-0.03,-0.08,0.92,5.31,-1.16,1.22,903.43,33.86
2529996,-0.03,-0.07,0.92,5.8,-0.49,1.28,903.55,33.88
2530034,-0.03,-0.08,0.88,6.29,-0.49,1.16,903.39,33.87
2530072,-0.02,-0.08,0.88,6.77,-0.06,1.28,903.37,33.87
2530110,-0.02,-0.08,0.81,6.77,0.61,1.28,903.43,33.86
2530160,-0.04,-0.07,0.81,6.96,0.12,1.53,903.41,33.86
2530198,-0.04,-0.08,0.8,6.53,0.06,1.53,903.38,33.84
2530236,-0.04,-0.08,0.77,6.16,0.06,1.71,903.4,33.86
2530274,-0.04,-0.08,0.73,6.04,0.0,1.59,903.37,33.86
2530312,-0.04,-0.08,0.73,5.92,-0.79,1.77,903.34,33.85
2530350,-0.04,-0.08,0.71,5.8,-0.55,1.89,903.34,33.87
2530388,-0.03,-0.08,0.67,5.8,-0.67,1.89,903.29,33.86
2530427,-0.02,-0.08,0.69,5.8,-0.67,1.71,903.28,33.86
2530465,-0.03,-0.09,0.66,5.19,-1.16,1.95,903.24,33.85
2530503,-0.05,-0.08,0.65,5.25,-1.53,2.26,903.18,33.86
2530552,-0.04,-0.08,0.66,4.82,-1.77,1.95,903.19,33.84
2530591,-0.04,-0.07,0.7,4.76,-3.66,2.14,903.23,33.87
2530629,-0.02,-0.08,0.72,4.21,-3.42,2.32,903.13,33.85
2530667,-0.04,-0.08,0.74,4.46,-4.21,2.2,903.15,33.86
2530705,-0.05,-0.09,0.73,4.15,-4.21,2.26,903.22,33.86
2530743,-0.05,-0.08,0.72,3.72,-4.64,2.38,903.13,33.86
2530781,-0.03,-0.08,0.71,3.17,-4.58,2.26,903.24,33.86
2530819,-0.05,-0.08,0.7,2.93,-5.0,2.38,903.17,33.88
2530857,-0.04,-0.08,0.72,2.08,-4.7,2.44,903.13,33.86
2530907,-0.03,-0.09,0.75,1.46,-4.03,2.32,903.12,33.85
2530945,-0.06,-0.08,0.85,1.65,-4.46,2.38,903.18,33.86
2530983,-0.06,-0.09,0.83,0.79,-4.09,2.5,903.15,33.85
2531021,-0.06,-0.08,0.9,0.85,-4.58,2.32,903.16,33.86
2531059,-0.07,-0.08,0.87,0.24,-3.72,2.44,903.21,33.86
2531098,-0.07,-0.07,0.92,0.37,-4.7,2.62,903.23,33.86
2531136,-0.07,-0.08,0.89,0.0,-2.99,2.69,903.09,33.86
2531174,-0.06,-0.08,0.91,0.18,-4.7,2.75,903.21,33.87
2531212,-0.06,-0.07,0.94,0.18,-4.88,2.99,903.17,33.86
2531250,-0.08,-0.08,0.87,-0.12,-4.88,3.36,903.18,33.86
2531300,-0.07,-0.07,0.95,0.24,-5.92,3.36,903.14,33.83
2531338,-0.06,-0.08,0.91,-0.12,-4.33,3.36,903.18,33.84
2531376,-0.08,-0.07,0.96,0.55,-5.74,3.54,903.21,33.85
2531414,-0.07,-0.07,0.97,0.24,-4.58,3.91,903.22,33.86
2531452,-0.06,-0.07,1.01,0.06,-5.8,4.33,903.2,33.85
2531490,-0.07,-0.06,1.03,-0.24,-5.13,4.33,903.2,33.86
2531528,-0.08,-0.07,1.06,-0.43,-6.77,4.64,903.17,33.87
2531566,-0.07,-0.09,1.01,-0.73,-6.1,5.13,903.21,33.84
2531605,-0.05,-0.08,0.95,-0.79,-6.59,5.0,903.24,33.84
2531654,-0.07,-0.08,0.86,-0.85,-4.21,5.19,903.25,33.84
2531692,-0.08,-0.07,0.78,-1.28,-4.58,5.49,903.26,33.84
2531731,-0.09,-0.06,0.83,-1.1,-3.42,5.62,903.28,33.86
2531769,-0.07,-0.09,0.82,-1.65,-1.83,5.86,903.24,33.84
2531807,-0.09,-0.07,0.88,-1.28,-1.16,6.23,903.28,33.85
2531845,-0.07,-0.08,0.87,-2.26,0.55,6.29,903.27,33.85
2531883,-0.09,-0.06,0.97,-2.26,1.77,6.59,903.22,33.83
2531921,-0.09,-0.07,1.03,-2.75,3.54,6.77,903.25,33.84
2531959,-0.07,-0.09,1.0,-3.66,5.0,7.14,903.26,33.85
2531997,-0.08,-0.07,1.03,-4.09,4.64,7.32,903.28,33.85
2532147,-0.06,-0.06,1.29,-4.15,3.91,8.36,903.38,33.78
2532186,-0.05,-0.06,1.27,-4.33,5.13,8.73,903.34,33.79
2532224,-0.05,-0.04,1.33,-3.91,3.6,9.16,903.38,33.79
2532313,-0.05,-0.05,1.32,-3.72,3.78,9.4,903.41,33.77
2532351,-0.04,-0.06,1.34,-3.36,3.17,9.34,903.39,33.79
2532389,-0.04,-0.05,1.28,-3.36,3.66,9.64,903.42,33.8
2532428,-0.04,-0.05,1.28,-2.44,3.91,9.7,903.38,33.78
2532466,-0.04,-0.05,1.24,-2.01,4.39,9.83,903.39,33.78
2532504,-0.05,-0.06,1.21,-1.59,4.58,10.01,903.39,33.79
2532554,-0.05,-0.06,1.14,-2.2,4.39,10.07,903.29,33.79
2532592,-0.04,-0.07,1.12,-2.62,5.13,10.19,903.27,33.79
2532630,-0.04,-0.06,1.08,-3.54,4.33,10.5,903.3,33.81
2532668,-0.05,-0.06,1.13,-3.54,4.7,10.56,903.24,33.79
2532706,-0.05,-0.07,1.12,-4.64,5.13,10.93,903.32,33.8
2532744,-0.04,-0.04,1.24,-4.58,3.78,10.74,903.33,33.8
2532782,-0.04,-0.05,1.21,-5.37,4.88,11.41,903.31,33.8
2532821,-0.04,-0.04,1.24,-5.86,3.54,11.41,903.27,33.8
2532859,-0.02,-0.04,1.34,-6.65,3.54,11.6,903.29,33.81
2532908,-0.03,-0.03,1.39,-7.57,2.5,11.66,903.33,33.78
2532947,-0.04,-0.03,1.42,-7.69,3.17,12.02,903.33,33.8
2532985,-0.03,-0.03,1.43,-8.06,3.72,12.15,903.3,33.78
2533023,-0.04,-0.0,1.53,-7.57,2.81,11.96,903.33,33.8
2533061,-0.05,-0.01,1.53,-7.02,3.66,12.27,903.33,33.8
2533099,-0.02,-0.01,1.6,-6.53,2.93,12.33,903.33,33.79
2533137,-0.04,-0.01,1.61,-4.94,3.85,12.27,903.39,33.81
2533175,-0.02,-0.0,1.61,-3.72,3.48,12.39,903.37,33.8
2533213,-0.02,0.01,1.61,-2.14,4.39,12.45,903.28,33.8
2533251,-0.03,-0.02,1.48,-0.98,3.97,12.45,903.31,33.81
2533301,-0.04,-0.02,1.45,0.67,4.27,12.51,903.31,33.8
2533339,-0.0,-0.04,1.35,1.16,4.7,12.45,903.25,33.8
2533377,-0.0,-0.02,1.36,2.56,4.15,12.45,903.28,33.81
2533416,-0.02,-0.04,1.26,3.05,4.33,12.7,903.25,33.81
2533454,-0.01,-0.04,1.23,3.36,4.15,12.94,903.28,33.79
2533492,-0.02,-0.04,1.21,3.78,4.46,12.76,903.26,33.8
2533530,-0.02,-0.05,1.15,3.91,4.64,12.57,903.23,33.82
2533568,-0.02,-0.05,1.11,4.09,5.0,12.88,903.16,33.81
2533606,0.01,-0.06,1.02,3.78,5.74,12.57,903.22,33.8
2533656,0.02,-0.07,0.97,4.15,6.23,12.57,903.16,33.8
2533694,0.02,-0.06,0.92,3.66,6.35,12.45,903.15,33.81
2533732,0.0,-0.06,0.93,3.72,6.16,12.45,903.14,33.81
2533770,-0.02,-0.07,0.89,3.17,6.77,12.33,903.15,33.8
2533808,-0.0,-0.06,0.88,2.5,6.96,12.63,903.16,33.8
2533846,0.01,-0.07,0.87,2.08,7.26,12.39,903.13,33.8
2533885,-0.0,-0.06,0.88,1.34,6.84,12.21,903.09,33.8
2533923,0.03,-0.07,0.91,0.61,7.69,12.27,903.12,33.81
2533961,0.03,-0.06,0.92,0.67,8.24,12.02,903.0,33.8
2533999,0.01,-0.07,0.9,0.43,9.77,12.15,903.03,33.8
2534049,0.02,-0.06,0.94,0.67,10.5,11.9,903.05,33.8
2534087,0.0,-0.07,0.91,0.18,11.23,11.84,903.04,33.81
2534125,0.0,-0.06,0.92,0.06,11.23,11.9,903.06,33.8
2534163,0.04,-0.06,0.96,0.12,11.29,11.78,903.0,33.8
2534201,0.06,-0.07,0.98,-0.24,11.11,11.29,903.06,33.81
2534239,0.05,-0.06,0.98,0.06,10.56,11.23,903.01,33.8
2534277,0.03,-0.05,1.0,0.06,10.07,11.11,902.96,33.81
2534315,0.02,-0.07,0.98,0.06,10.31,10.74,902.93,33.79
2534353,0.01,-0.07,0.98,0.12,9.7,10.5,903.03,33.8
2534403,0.04,-0.05,0.98,-0.12,9.28,10.07,903.06,33.8
2534441,0.03,-0.06,0.95,0.06,9.46,9.89,903.02,33.8
2534479,0.04,-0.07,0.93,0.18,9.95,9.52,902.94,33.81
2534517,0.04,-0.07,0.95,0.18,9.64,9.46,902.96,33.81
2534555,0.03,-0.08,0.89,0.12,10.68,8.97,902.9,33.82
2534594,0.03,-0.06,0.91,0.55,10.56,8.61,903.0,33.81
2534632,0.05,-0.07,0.92,0.37,11.29,8.24,902.96,33.8
2534670,0.05,-0.07,0.91,0.37,10.5,8.12,903.02,33.81
2534708,0.05,-0.07,0.93,0.79,9.95,7.69,903.02,33.82
2534746,0.06,-0.07,0.91,0.92,9.77,7.2,903.03,33.82
2534796,0.05,-0.07,0.92,1.46,8.42,6.71,903.04,33.81
2534834,0.04,-0.07,0.86,1.71,7.63,6.29,903.06,33.81
2534872,0.04,-0.07,0.87,2.2,7.14,5.8,903.01,33.81
2534910,0.05,-0.07,0.86,2.2,6.35,5.49,902.95,33.81
2534948,0.06,-0.07,0.88,2.26,4.58,4.94,903.02,33.81
2534986,0.05,-0.08,0.85,2.01,3.54,4.64,902.92,33.81
2535024,0.04,-0.07,0.85,1.65,1.71,4.33,902.97,33.82
2535062,0.04,-0.07,0.89,1.53,0.98,3.78,902.9,33.8
2535100,0.04,-0.07,0.86,1.28,0.12,3.3,902.97,33.82
2535138,0.03,-0.06,0.89,1.28,-0.12,2.87,903.0,33.82
2535214,0.03,-0.07,0.91,1.53,1.28,2.26,903.06,33.8
2535252,0.0,-0.06,0.88,1.65,1.34,1.95,903.04,33.8
2535290,-0.0,-0.07,0.9,2.08,1.83,1.83,903.11,33.81
2535379,0.0,-0.07,0.81,2.32,2.38,1.1,903.09,33.77
2535417,0.01,-0.08,0.81,2.14,2.08,0.92,903.1,33.8
2535456,-0.01,-0.06,0.86,2.32,1.4,0.85,903.07,33.8
2535494,0.0,-0.07,0.85,1.95,0.79,0.55,903.12,33.8
2535532,-0.02,-0.05,0.91,2.08,0.0,0.43,903.09,33.8
2535570,-0.03,-0.06,0.92,2.01,0.92,0.37,903.12,33.81
2535608,-0.03,-0.07,0.9,1.89,1.83,0.43,903.21,33.81
2535658,-0.02,-0.05,0.94,2.56,1.89,0.06,903.15,33.8
2535696,-0.05,-0.06,0.87,2.62,4.03,0.24,903.15,33.8
2535734,-0.04,-0.05,0.86,2.75,4.76,0.37,903.19,33.81
2535772,-0.04,-0.06,0.93,3.17,6.35,0.37,903.13,33.8
2535810,-0.04,-0.06,0.89,2.81,7.14,0.67,903.13,33.82
2535848,-0.06,-0.06,0.92,3.11,6.84,0.85,903.19,33.81
2535886,-0.03,-0.06,0.92,3.05,6.84,0.92,903.17,33.81
2535924,-0.04,-0.06,0.92,2.93,6.65,1.22,903.16,33.81
2535962,-0.04,-0.06,0.94,3.36,6.04,1.4,903.15,33.81
2536012,-0.04,-0.06,0.88,2.87,6.59,1.77,903.17,33.8
2536050,-0.06,-0.06,0.9,2.75,5.98,2.01,903.15,33.8
2536088,-0.04,-0.06,0.89,2.32,5.92,2.08,903.23,33.81
2536126,-0.05,-0.06,0.91,2.26,5.25,2.14,903.19,33.8
2536164,-0.04,-0.06,0.92,1.77,5.0,2.2,903.22,33.8
2536202,-0.03,-0.06,0.94,1.34,4.76,2.62,903.28,33.81
2536241,-0.03,-0.06,0.88,0.67,4.82,2.62,903.24,33.81
2536279,-0.06,-0.05,0.91,0.18,4.15,2.81,903.26,33.8
2536317,-0.04,-0.07,0.92,-0.73,4.58,3.05,903.27,33.81
2536355,-0.03,-0.06,0.98,-0.67,3.36,2.87,903.26,33.81
2536405,-0.04,-0.05,0.97,-0.73,3.91,2.99,903.29,33.8
2536443,-0.04,-0.05,1.01,0.0,3.36,3.11,903.3,33.79
2536481,-0.04,-0.06,1.02,0.43,3.72,2.99,903.27,33.79
2536519,-0.05,-0.06,1.03,0.98,2.5,3.17,903.27,33.81
2536557,-0.05,-0.05,1.04,1.22,2.5,3.36,903.34,33.81
2536595,-0.05,-0.05,0.99,1.59,2.44,2.99,903.23,33.8
2536633,-0.04,-0.04,1.0,2.08,1.59,3.17,903.33,33.81
2536671,-0.05,-0.06,0.94,2.01,2.32,3.23,903.37,33.81
2536709,-0.04,-0.07,0.91,2.56,2.01,3.3,903.26,33.79
2536747,-0.05,-0.06,0.87,2.5,2.2,3.36,903.3,33.81
2536797,-0.05,-0.06,0.88,2.93,2.87,3.23,903.3,33.79
2536835,-0.04,-0.07,0.85,2.93,2.69,3.11,903.27,33.8
2536873,-0.05,-0.06,0.89,3.11,2.38,3.48,903.34,33.81
2536912,-0.05,-0.07,0.84,2.81,3.3,3.36,903.32,33.8
2536950,-0.05,-0.05,0.87,2.81,2.5,3.23,903.31,33.81
2536988,-0.05,-0.06,0.89,2.81,3.05,3.36,903.3,33.81
2537026,-0.05,-0.06,0.87,2.44,3.6,3.36,903.35,33.8
2537064,-0.05,-0.06,0.87,2.32,3.85,3.48,903.39,33.82
2537102,-0.06,-0.06,0.88,2.44,3.97,3.42,903.32,33.8
2537152,-0.05,-0.06,0.88,2.38,2.87,3.72,903.34,33.81
2537190,-0.07,-0.06,0.86,2.38,2.69,3.72,903.36,33.8
2537228,-0.06,-0.06,0.85,2.26,1.53,4.03,903.35,33.8
2537266,-0.06,-0.06,0.85,2.32,-0.24,4.33,903.32,33.79
2537304,-0.06,-0.07,0.83,2.14,-0.49,4.33,903.33,33.8
2537342,-0.07,-0.06,0.86,2.32,-1.83,4.64,903.29,33.8
2537380,-0.06,-0.07,0.87,2.2,-1.95,4.7,903.34,33.8
2537419,-0.07,-0.06,0.87,2.14,-3.36,4.94,903.36,33.81
2537457,-0.07,-0.06,0.88,2.32,-4.09,5.25,903.33,33.8
2537495,-0.06,-0.06,0.86,1.89,-3.97,5.25,903.38,33.8
2537545,-0.06,-0.06,0.89,2.08,-4.64,5.49,903.38,33.78
2537583,-0.06,-0.06,0.85,1.95,-4.64,5.55,903.37,33.79
2537621,-0.06,-0.06,0.9,2.26,-5.07,5.25,903.41,33.8
2537659,-0.05,-0.07,0.89,2.01,-4.03,5.43,903.43,33.8
2537697,-0.07,-0.06,0.92,2.08,-4.82,5.55,903.5,33.81
2537735,-0.07,-0.06,0.91,1.89,-4.15,5.43,903.47,33.81
2537773,-0.07,-0.06,0.91,1.71,-4.64,5.37,903.45,33.81
2537811,-0.07,-0.05,0.96,1.71,-4.7,5.86,903.49,33.81
2537849,-0.07,-0.06,0.94,1.71,-4.33,5.8,903.48,33.8
2537899,-0.07,-0.05,0.97,2.08,-4.58,5.62,903.53,33.79
2537937,-0.09,-0.06,0.94,1.77,-3.97,5.74,903.49,33.79
2537975,-0.08,-0.06,0.95,1.83,-4.52,5.98,903.49,33.79
2538013,-0.05,-0.06,0.93,1.46,-4.15,5.92,903.53,33.8
2538051,-0.08,-0.06,0.91,1.34,-5.25,6.16,903.51,33.78
2538089,-0.07,-0.05,0.96,1.28,-5.92,6.16,903.55,33.8
2538128,-0.06,-0.07,0.96,0.98,-5.13,6.16,903.48,33.78
2538166,-0.07,-0.05,0.99,0.92,-6.35,6.04,903.53,33.8
2538204,-0.08,-0.06,0.99,0.92,-6.35,6.29,903.56,33.8
2538242,-0.06,-0.06,0.98,0.61,-6.9,6.29,903.57,33.79
2538317,-0.09,-0.06,0.96,-0.06,-6.53,6.59,903.58,33.77
2538356,-0.08,-0.06,0.95,-0.37,-7.45,6.65,903.59,33.76
2538394,-0.07,-0.06,0.94,-0.67,-7.08,6.59,903.64,33.78
2538483,-0.09,-0.06,0.95,-1.22,-7.08,7.08,903.75,33.76
2538521,-0.08,-0.07,0.92,-1.65,-5.74,6.96,903.8,33.76
2538559,-0.08,-0.06,0.96,-1.65,-5.68,6.96,903.82,33.76
2538597,-0.09,-0.06,0.95,-1.83,-4.15,7.26,903.74,33.77
2538635,-0.08,-0.06,0.91,-1.83,-3.6,7.08,903.79,33.78
2538673,-0.09,-0.05,0.93,-1.83,-2.81,7.26,903.8,33.78
2538723,-0.09,-0.07,0.93,-1.83,-1.53,7.63,903.85,33.78
2538761,-0.07,-0.07,0.92,-2.26,-1.83,7.75,903.86,33.77
2538799,-0.1,-0.06,0.96,-2.01,-1.16,7.87,903.85,33.79
2538838,-0.09,-0.07,0.9,-2.38,-0.49,8.18,903.86,33.78
2538876,-0.07,-0.05,0.94,-2.62,-1.34,8.42,903.9,33.78
2538914,-0.08,-0.07,0.9,-3.23,-0.43,8.79,903.87,33.79
2538952,-0.09,-0.06,0.9,-3.66,-0.61,8.85,903.94,33.78
2538990,-0.08,-0.06,0.97,-4.09,0.06,8.97,903.91,33.78
2539028,-0.08,-0.06,0.99,-4.82,0.06,9.28,903.99,33.8
2539078,-0.09,-0.06,1.01,-5.31,1.34,9.46,903.94,33.78
2539116,-0.08,-0.05,1.05,-5.8,2.01,9.58,904.0,33.8
2539154,-0.08,-0.05,1.1,-5.8,2.75,9.89,904.05,33.78
2539192,-0.08,-0.06,1.06,-6.71,3.85,10.07,904.01,33.78
2539230,-0.1,-0.05,1.12,-6.59,3.23,10.19,904.06,33.79
2539268,-0.07,-0.05,1.21,-6.84,4.7,10.44,903.98,33.78
2539307,-0.06,-0.04,1.19,-7.81,5.37,10.74,904.06,33.78
2539345,-0.08,-0.02,1.29,-7.51,4.09,10.8,904.09,33.78
2539383,-0.07,-0.03,1.33,-7.81,5.25,10.93,904.13,33.78
2539421,-0.06,-0.04,1.31,-8.42,5.49,11.23,904.14,33.79
2539471,-0.06,-0.01,1.38,-7.93,3.91,11.35,904.2,33.78
2539509,-0.06,-0.02,1.38,-8.0,3.91,11.6,904.18,33.78
2539547,-0.05,-0.02,1.4,-7.87,3.3,11.72,904.23,33.8
2539585,-0.05,-0.02,1.43,-7.75,2.2,11.9,904.27,33.77
2539623,-0.06,-0.02,1.41,-7.32,2.26,11.96,904.31,33.79
2539661,-0.05,-0.02,1.41,-6.9,2.01,11.6,904.3,33.78
2539700,-0.03,-0.02,1.44,-6.59,1.95,11.66,904.28,33.79
2539738,-0.04,-0.02,1.43,-6.65,1.28,11.72,904.28,33.77
2539776,-0.05,-0.01,1.43,-6.41,1.16,11.6,904.36,33.79
2539826,-0.04,-0.02,1.45,-6.47,1.83,11.35,904.4,33.78
2539864,-0.03,-0.02,1.47,-6.29,1.65,11.41,904.43,33.8
2539902,-0.06,-0.02,1.45,-5.98,1.59,11.29,904.42,33.78
2539940,-0.05,-0.04,1.38,-5.8,2.62,11.35,904.43,33.8
2539978,-0.03,-0.03,1.38,-5.55,2.5,11.23,904.46,33.79
2540016,-0.05,-0.03,1.31,-5.43,1.71,11.11,904.48,33.79
2540054,-0.06,-0.03,1.27,-5.62,2.14,11.11,904.53,33.8
2540092,-0.04,-0.04,1.27,-5.62,2.32,11.11,904.49,33.8
2540131,-0.04,-0.04,1.31,-5.49,1.71,11.17,904.46,33.8
2540180,-0.06,-0.03,1.3,-6.1,0.31,11.23,904.48,33.78
2540218,-0.03,-0.03,1.38,-6.35,0.61,11.23,904.48,33.78
2540257,-0.04,-0.03,1.43,-6.59,-0.06,11.29,904.49,33.79
2540295,-0.07,-0.03,1.45,-6.77,-0.67,11.6,904.56,33.8
2540333,-0.06,-0.04,1.42,-6.59,0.43,11.29,904.56,33.8
2540371,-0.04,-0.02,1.4,-6.71,0.0,11.35,904.59,33.8
2540409,-0.06,-0.02,1.4,-6.71,0.0,11.47,904.58,33.8
2540447,-0.04,-0.04,1.38,-6.41,0.49,11.47,904.59,33.8
2540485,-0.05,-0.02,1.4,-6.47,0.18,11.29,904.61,33.81
2540523,-0.04,-0.02,1.41,-6.35,0.61,11.29,904.62,33.8
2540573,-0.05,-0.02,1.41,-6.23,-0.24,11.47,904.63,33.8
2540611,-0.06,-0.03,1.42,-6.47,-0.12,11.54,904.71,33.8
2540649,-0.05,-0.04,1.39,-6.65,0.98,11.66,904.71,33.8
2540687,-0.03,-0.03,1.4,-6.16,-0.18,11.6,904.75,33.79
2540726,-0.05,-0.03,1.35,-5.8,0.18,11.6,904.73,33.79
2540764,-0.05,-0.04,1.31,-5.62,0.18,11.66,904.8,33.8
2540802,-0.04,-0.05,1.27,-5.31,1.1,11.9,904.77,33.81
2540840,-0.05,-0.04,1.26,-4.88,0.24,11.96,904.82,33.81
2540878,-0.05,-0.04,1.21,-5.0,0.06,11.84,904.83,33.8
2540928,-0.04,-0.03,1.25,-4.88,0.06,11.84,904.79,33.79
2540966,-0.03,-0.04,1.24,-5.07,-0.49,12.02,904.8,33.79
2541004,-0.04,-0.04,1.25,-5.25,-0.55,12.21,904.87,33.8
2541042,-0.05,-0.05,1.25,-5.25,-0.55,12.15,904.8,33.8
2541080,-0.03,-0.04,1.27,-5.62,0.24,11.96,904.87,33.8
2541118,-0.04,-0.03,1.27,-5.43,1.04,11.96,904.9,33.81
2541157,-0.03,-0.04,1.27,-5.49,1.34,11.84,904.87,33.8
2541195,-0.03,-0.05,1.28,-5.8,2.01,11.66,904.89,33.8
2541233,-0.03,-0.04,1.28,-6.04,2.44,11.66,904.87,33.8
2541308,-0.04,-0.03,1.31,-6.41,2.99,11.47,904.9,33.78
2541347,-0.03,-0.03,1.33,-6.65,4.15,11.47,904.89,33.78
2541385,-0.03,-0.03,1.35,-6.77,3.78,11.47,904.96,33.8
2541474,-0.03,-0.03,1.34,-6.41,3.23,11.47,905.0,33.76
2541512,-0.03,-0.03,1.35,-6.35,3.48,11.6,904.98,33.78
2541550,-0.05,-0.03,1.3,-6.35,3.23,11.6,905.01,33.78
2541589,-0.04,-0.03,1.3,-6.29,2.62,11.66,905.05,33.78
2541627,-0.02,-0.04,1.27,-6.59,2.81,11.78,905.01,33.78
2541665,-0.03,-0.04,1.26,-6.77,1.89,11.96,905.0,33.78
2541715,-0.03,-0.05,1.21,-7.08,1.59,12.33,905.07,33.78
2541753,-0.02,-0.04,1.2,-7.51,0.37,12.15,905.1,33.79
2541791,-0.05,-0.04,1.2,-7.63,0.49,12.15,904.99,33.78
2541829,-0.03,-0.04,1.23,-7.87,0.49,12.27,905.06,33.78
2541867,-0.0,-0.04,1.28,-8.18,1.53,12.21,905.08,33.78
2541905,-0.03,-0.03,1.31,-8.18,1.95,12.02,905.09,33.8
2541943,-0.04,-0.03,1.33,-8.61,2.5,11.9,905.07,33.81
2541981,-0.01,-0.03,1.37,-8.79,3.6,11.9,905.0,33.78
2542020,-0.03,-0.02,1.39,-8.79,4.58,11.9,905.06,33.79
2542058,-0.03,-0.01,1.41,-8.85,4.82,11.9,905.11,33.8
2542107,-0.03,-0.01,1.45,-8.12,5.55,11.9,905.19,33.78
2542146,-0.0,-0.01,1.49,-7.63,6.1,11.78,905.17,33.8
2542184,-0.01,-0.01,1.51,-7.2,6.41,11.72,905.11,33.79
2542222,-0.03,-0.0,1.5,-6.59,6.96,11.78,905.13,33.8
2542260,-0.02,0.0,1.53,-5.98,6.59,11.66,905.17,33.8
2542298,-0.01,0.0,1.5,-5.8,7.57,11.41,905.23,33.81
2542336,-0.01,0.0,1.52,-5.31,7.32,11.6,905.18,33.79
2542374,-0.01,-0.01,1.51,-5.0,8.06,11.29,905.21,33.81
2542412,-0.01,-0.0,1.51,-4.33,7.69,11.17,905.16,33.8
2542462,-0.01,-0.0,1.52,-3.48,7.81,11.35,905.22,33.79
2542500,-0.0,-0.0,1.48,-2.87,8.0,11.47,905.24,33.79
2542538,-0.02,0.0,1.48,-1.83,7.45,11.29,905.27,33.79
2542576,-0.02,-0.02,1.43,-1.22,7.81,11.41,905.32,33.8
2542614,-0.0,-0.02,1.41,-0.73,7.02,11.23,905.33,33.8
2542653,-0.01,-0.02,1.37,0.18,7.32,11.23,905.33,33.8
2542691,-0.01,-0.04,1.29,0.06,7.51,11.35,905.28,33.81
2542729,-0.01,-0.03,1.26,0.12,6.65,11.35,905.33,33.8
2542767,-0.02,-0.04,1.2,-0.18,6.84,11.35,905.33,33.8
2542817,-0.02,-0.04,1.16,-0.98,6.53,11.35,905.38,33.8
2542855,-0.03,-0.05,1.14,-1.77,6.47,11.47,905.33,33.8
2542893,-0.02,-0.05,1.13,-2.5,6.35,11.47,905.3,33.78
2542931,-0.02,-0.05,1.14,-2.99,6.47,11.54,905.27,33.78
2542969,-0.02,-0.05,1.13,-3.72,7.26,11.47,905.34,33.8
2543007,-0.02,-0.05,1.13,-3.97,7.14,11.41,905.38,33.81
2543045,-0.02,-0.05,1.16,-4.39,7.14,11.54,905.4,33.8
2543083,-0.01,-0.05,1.16,-4.7,7.32,11.54,905.4,33.79
2543122,-0.03,-0.04,1.16,-4.88,6.77,11.6,905.42,33.8
2543160,-0.02,-0.05,1.16,-5.0,7.02,11.78,905.42,33.79
2543209,-0.01,-0.05,1.15,-5.07,6.16,11.9,905.4,33.78
2543248,-0.02,-0.05,1.18,-5.13,5.43,12.02,905.45,33.79
2543286,-0.03,-0.05,1.17,-5.19,5.68,12.21,905.48,33.8
2543324,-0.01,-0.05,1.18,-5.0,5.62,12.21,905.54,33.8
2543362,-0.03,-0.04,1.21,-4.88,4.94,12.15,905.47,33.8
2543400,-0.03,-0.05,1.18,-4.82,5.43,12.33,905.46,33.79
2543438,-0.01,-0.05,1.18,-4.88,5.55,12.21,905.52,33.8
2543476,-0.01,-0.04,1.22,-4.88,5.98,12.08,905.44,33.8
2543515,-0.01,-0.05,1.22,-5.0,5.92,12.39,905.48,33.8
2543564,-0.0,-0.05,1.23,-4.94,6.04,12.15,905.51,33.79
2543602,-0.01,-0.04,1.3,-4.82,4.7,12.27,905.5,33.8
2543641,-0.02,-0.04,1.28,-5.07,5.43,12.21,905.54,33.8
2543679,0.0,-0.03,1.34,-5.0,4.58,12.39,905.53,33.8
2543717,-0.0,-0.02,1.4,-5.0,4.46,12.02,905.44,33.8
2543755,-0.0,-0.03,1.41,-5.0,4.15,12.15,905.54,33.8
2543793,-0.01,-0.01,1.45,-4.94,3.36,12.15,905.51,33.8
2543831,0.0,-0.02,1.5,-4.7,3.42,11.96,905.51,33.8
2543869,-0.0,-0.04,1.44,-5.31,2.99,12.21,905.51,33.8
2543919,-0.02,-0.02,1.48,-5.07,2.2,12.08,905.54,33.8
2543957,0.0,-0.03,1.45,-5.0,2.93,11.84,905.54,33.8
2543995,-0.0,-0.02,1.42,-4.7,1.83,11.96,905.56,33.8
2544033,-0.01,-0.03,1.42,-4.33,2.01,11.96,905.53,33.78
2544071,0.0,-0.04,1.39,-4.46,2.2,11.6,905.55,33.8
2544109,0.0,-0.04,1.41,-4.33,2.38,11.47,905.56,33.8
2544148,-0.01,-0.04,1.38,-4.39,2.56,11.35,905.56,33.8
2544186,-0.01,-0.04,1.37,-4.33,2.75,11.17,905.55,33.8
2544224,-0.0,-0.03,1.38,-4.52,3.36,10.86,905.56,33.79
2544262,-0.01,-0.04,1.38,-4.58,3.42,10.93,905.58,33.8
2544338,-0.0,-0.04,1.4,-4.82,2.62,10.8,905.59,33.78
2544376,-0.0,-0.03,1.42,-4.94,2.44,10.8,905.68,33.8
2544414,-0.01,-0.04,1.41,-5.19,2.56,10.68,905.6,33.79
2544503,-0.02,-0.02,1.43,-5.49,3.17,10.62,905.55,33.76
2544542,-0.01,-0.02,1.45,-5.07,3.97,10.25,905.62,33.77
2544580,-0.01,-0.03,1.39,-5.0,4.7,9.95,905.6,33.78
2544618,-0.02,-0.03,1.41,-5.07,4.46,9.95,905.67,33.78
2544656,-0.02,-0.03,1.4,-5.19,5.13,10.01,905.66,33.78
2544694,-0.01,-0.04,1.39,-4.82,4.76,10.07,905.66,33.78
2544744,-0.02,-0.03,1.32,-4.76,4.58,10.01,905.65,33.77
2544782,-0.0,-0.04,1.32,-4.7,3.91,9.83,905.67,33.77
2544820,0.01,-0.05,1.25,-4.58,3.6,9.64,905.73,33.78
2544858,-0.01,-0.04,1.22,-4.39,1.59,9.77,905.75,33.79
2544896,-0.01,-0.06,1.2,-4.09,1.46,9.4,905.72,33.78
2544934,-0.01,-0.06,1.19,-3.97,0.12,9.22,905.73,33.79
2544972,-0.01,-0.05,1.2,-3.97,-1.1,9.34,905.7,33.79
2545011,0.0,-0.05,1.18,-3.72,-1.77,9.09,905.72,33.8
2545049,-0.02,-0.05,1.16,-3.78,-1.59,8.85,905.74,33.8
2545087,-0.03,-0.05,1.18,-3.48,-1.34,8.91,905.68,33.79
2545136,-0.03,-0.06,1.2,-3.11,-0.85,8.67,905.74,33.79
2545175,-0.04,-0.06,1.15,-3.54,-0.06,8.61,905.74,33.77
2545213,-0.02,-0.05,1.19,-3.05,-0.37,8.54,905.75,33.8
2545251,-0.01,-0.06,1.15,-3.11,1.4,8.48,905.76,33.79
2545289,-0.03,-0.06,1.13,-2.69,2.14,8.42,905.73,33.79
2545327,-0.05,-0.05,1.12,-2.69,3.3,8.48,905.75,33.79
2545365,-0.03,-0.05,1.17,-2.81,3.42,8.54,905.75,33.8
2545403,-0.03,-0.06,1.18,-3.11,4.09,8.24,905.69,33.78
2545441,-0.04,-0.04,1.2,-3.97,4.39,8.48,905.74,33.81
2545491,-0.02,-0.03,1.28,-4.15,5.25,8.3,905.71,33.78
2545529,-0.01,-0.03,1.34,-4.46,4.39,8.3,905.75,33.8
2545567,-0.02,-0.04,1.35,-4.64,5.49,8.48,905.69,33.8
2545606,-0.04,-0.04,1.36,-4.27,5.19,8.3,905.71,33.79
2545644,-0.02,-0.04,1.37,-3.85,4.94,8.42,905.79,33.78
2545682,-0.02,-0.06,1.3,-3.91,4.33,8.73,905.8,33.8
2545720,-0.01,-0.05,1.23,-3.72,4.03,8.61,905.81,33.8
2545758,-0.02,-0.07,1.18,-3.05,3.78,8.73,905.87,33.8
2545796,-0.03,-0.06,1.09,-3.11,3.3,8.67,905.76,33.79
2545846,-0.01,-0.06,1.12,-2.75,3.42,8.67,905.75,33.78
2545884,-0.0,-0.06,1.09,-3.3,3.48,8.54,905.73,33.79
2545922,-0.02,-0.06,1.13,-3.11,2.93,8.67,905.77,33.8
2545960,-0.03,-0.08,1.09,-2.99,4.21,8.61,905.76,33.79
2545998,0.02,-0.08,1.15,-2.56,2.87,8.3,905.78,33.8
2546037,0.01,-0.06,1.11,-3.48,3.36,8.67,905.69,33.78
2546075,-0.04,-0.04,1.16,-2.69,2.32,8.54,905.72,33.79
2546113,0.0,-0.06,1.13,-3.42,5.19,8.36,905.76,33.79
2546151,0.01,-0.06,1.17,-3.6,3.91,8.3,905.7,33.8
2546189,-0.01,-0.05,1.28,-3.42,2.69,8.42,905.73,33.8
2546239,-0.02,-0.05,1.22,-4.03,3.6,8.18,905.79,33.79
2546277,-0.02,-0.03,1.33,-3.6,2.62,8.24,905.78,33.79
2546315,0.03,-0.08,1.23,-4.58,5.07,8.06,905.8,33.81
2546353,-0.01,-0.07,1.2,-4.21,2.62,7.75,905.8,33.79
2546391,-0.01,-0.06,1.17,-3.85,4.27,7.81,905.85,33.79
2546429,0.02,-0.06,1.13,-3.42,4.09,7.51,905.87,33.8
2546467,0.0,-0.05,1.17,-2.99,3.54,7.32,905.82,33.78
2546506,-0.02,-0.07,1.09,-2.99,3.91,7.45,905.88,33.8
2546544,-0.03,-0.06,1.11,-2.75,3.72,7.51,905.89,33.8
2546582,-0.0,-0.06,1.1,-3.17,3.72,7.32,905.89,33.8
2546632,-0.02,-0.06,1.13,-3.11,3.11,7.26,905.84,33.79
2546670,-0.02,-0.07,1.12,-3.36,3.72,7.45,905.87,33.8
2546708,-0.02,-0.06,1.15,-3.48,3.54,7.2,905.94,33.79
2546746,-0.03,-0.06,1.12,-3.97,3.72,7.14,905.87,33.8
2546784,-0.03,-0.06,1.15,-3.6,3.72,7.08,905.89,33.81
2546822,-0.02,-0.05,1.15,-3.97,4.94,7.2,905.89,33.79
2546860,-0.02,-0.05,1.16,-3.72,4.58,7.14,905.93,33.8
2546898,-0.03,-0.06,1.17,-4.03,4.39,7.08,905.92,33.8
2546936,-0.04,-0.05,1.17,-4.15,4.27,7.32,905.99,33.81
2546986,-0.03,-0.05,1.17,-4.03,5.07,7.2,905.91,33.8
2547024,-0.03,-0.05,1.18,-4.15,4.52,7.45,905.97,33.79
2547063,-0.04,-0.05,1.17,-4.09,4.94,7.45,906.02,33.81
2547101,-0.03,-0.05,1.18,-3.78,5.07,7.39,905.96,33.8
2547139,-0.03,-0.05,1.16,-4.15,5.62,7.57,905.94,33.79
2547177,-0.04,-0.05,1.15,-3.66,5.13,7.51,905.98,33.8
2547215,-0.04,-0.05,1.15,-3.6,5.62,7.63,905.99,33.81
2547253,-0.05,-0.05,1.15,-3.6,5.19,7.69,906.0,33.8
2547291,-0.04,-0.05,1.17,-3.36,5.0,7.81,906.01,33.81
2547329,-0.04,-0.05,1.17,-2.87,4.82,8.06,906.04,33.8
2547405,-0.04,-0.05,1.18,-1.22,5.25,8.42,906.02,33.77
2547443,-0.04,-0.05,1.17,-0.24,4.82,8.3,906.05,33.78
2547481,-0.05,-0.06,1.12,0.18,4.88,8.42,906.04,33.78
2547571,-0.04,-0.06,1.02,1.16,4.94,8.67,906.12,33.76
2547609,-0.05,-0.07,0.98,1.4,4.88,8.73,906.03,33.77
2547647,-0.05,-0.06,0.94,1.04,5.07,8.97,906.07,33.77
2547685,-0.05,-0.06,0.93,1.04,5.25,9.16,906.12,33.8
2547723,-0.05,-0.07,0.91,0.49,5.86,9.28,906.08,33.77
2547761,-0.05,-0.06,0.9,0.31,5.49,9.58,906.12,33.78
2547811,-0.05,-0.07,0.89,-0.24,6.53,9.77,906.11,33.77
2547849,-0.05,-0.06,0.89,-0.49,6.53,9.83,906.15,33.79
2547887,-0.05,-0.06,0.91,-0.61,6.65,9.89,906.08,33.78
2547925,-0.06,-0.07,0.89,-0.85,7.26,10.07,906.11,33.78
2547963,-0.05,-0.06,0.92,-1.16,7.39,10.25,906.12,33.8
2548002,-0.04,-0.06,0.94,-1.34,7.63,10.44,906.1,33.8
2548040,-0.05,-0.07,0.94,-1.4,7.93,10.62,906.15,33.8
2548078,-0.06,-0.06,0.95,-1.59,7.93,10.86,906.15,33.78
2548116,-0.04,-0.07,0.96,-1.83,8.24,10.99,906.18,33.8
2548154,-0.05,-0.06,0.97,-1.83,8.06,11.11,906.12,33.78
2548204,-0.04,-0.06,0.99,-2.32,8.06,11.47,906.11,33.76
2548242,-0.04,-0.06,1.01,-2.44,7.93,11.66,906.19,33.78
2548280,-0.04,-0.06,1.03,-2.93,7.75,11.72,906.19,33.79
2548318,-0.05,-0.06,1.06,-3.3,7.39,11.84,906.28,33.79
2548356,-0.03,-0.06,1.09,-3.54,7.75,12.02,906.17,33.77
2548394,-0.03,-0.05,1.1,-3.91,6.59,12.27,906.24,33.79
2548432,-0.04,-0.05,1.14,-4.03,6.35,12.63,906.32,33.8
2548471,-0.04,-0.06,1.1,-4.58,6.84,12.7,906.29,33.79
2548509,-0.02,-0.05,1.16,-4.27,5.68,12.57,906.32,33.79
2548558,-0.03,-0.06,1.13,-4.64,5.68,12.57,906.35,33.77
2548597,-0.03,-0.05,1.15,-4.27,4.94,12.63,906.34,33.77
2548635,-0.02,-0.05,1.17,-4.52,5.74,12.45,906.37,33.78
2548673,-0.03,-0.05,1.2,-4.46,4.39,12.45,906.4,33.78
2548711,-0.03,-0.06,1.2,-4.46,4.33,12.63,906.43,33.78
2548749,-0.03,-0.05,1.22,-4.33,4.27,12.45,906.47,33.78
2548787,-0.01,-0.05,1.23,-4.21,4.33,12.45,906.45,33.8
2548825,-0.02,-0.05,1.23,-4.03,3.97,12.45,906.42,33.77
2548864,-0.03,-0.05,1.23,-3.91,4.21,12.21,906.49,33.78
2548913,-0.03,-0.05,1.26,-3.66,4.15,12.15,906.47,33.77
2548951,-0.02,-0.05,1.26,-3.23,3.05,12.02,906.5,33.77
2548990,-0.02,-0.05,1.26,-3.23,3.23,12.21,906.53,33.77
2549028,-0.02,-0.05,1.23,-2.87,2.56,12.02,906.55,33.78
2549066,-0.02,-0.05,1.23,-2.81,2.08,11.96,906.54,33.79
2549104,-0.02,-0.05,1.21,-2.69,1.34,11.78,906.58,33.78
2549142,-0.02,-0.05,1.18,-2.5,1.28,11.78,906.57,33.78
2549180,-0.02,-0.05,1.19,-2.69,0.98,11.72,906.58,33.78
2549218,-0.01,-0.05,1.2,-2.62,0.92,11.35,906.61,33.79
2549268,-0.01,-0.06,1.18,-2.99,0.18,11.11,906.6,33.77
2549306,-0.02,-0.06,1.15,-2.93,0.43,10.99,906.6,33.77
2549344,-0.02,-0.06,1.16,-2.81,0.0,10.93,906.62,33.77
2549382,-0.01,-0.06,1.17,-2.93,-0.31,10.8,906.63,33.78
2549421,-0.02,-0.06,1.17,-2.99,-0.67,10.44,906.7,33.79
2549459,-0.02,-0.05,1.19,-2.93,-0.24,10.5,906.6,33.78
2549497,-0.01,-0.06,1.21,-3.17,0.18,10.13,906.62,33.77
2549535,-0.01,-0.06,1.24,-3.3,-0.43,10.07,906.68,33.78
2549573,-0.03,-0.05,1.27,-3.36,-1.16,10.01,906.67,33.78
2549611,-0.02,-0.05,1.35,-3.36,-0.24,9.64,906.64,33.77
2549661,-0.0,-0.05,1.36,-3.17,1.04,9.46,906.75,33.76
2549699,-0.01,-0.04,1.37,-3.05,0.79,9.4,906.74,33.78
2549737,-0.04,-0.03,1.38,-2.81,0.67,8.97,906.65,33.77
2549775,-0.01,-0.04,1.5,-2.14,1.65,8.67,906.78,33.78
2549813,0.01,-0.05,1.5,-2.99,2.38,8.54,906.74,33.78
2549852,-0.04,-0.05,1.53,-2.26,1.04,8.48,906.79,33.78
2549890,-0.04,-0.05,1.45,-2.38,2.69,8.36,906.88,33.78
2549928,0.0,-0.04,1.47,-1.95,1.46,7.87,906.83,33.78
2549966,-0.04,-0.05,1.37,-1.59,1.77,7.81,906.78,33.79
2550016,-0.03,-0.06,1.24,-1.83,1.34,7.32,906.86,33.78
2550054,-0.01,-0.05,1.31,-1.77,1.22,7.26,906.85,33.78
2550092,-0.04,-0.06,1.19,-2.32,1.22,7.26,906.83,33.78
2550130,-0.04,-0.06,1.26,-2.01,0.43,7.14,906.81,33.78
2550168,-0.02,-0.07,1.24,-2.14,1.83,6.96,906.86,33.78
2550206,-0.03,-0.05,1.26,-2.14,0.18,6.9,906.88,33.78
2550244,-0.05,-0.06,1.23,-2.26,0.67,7.02,906.86,33.78
2550283,-0.04,-0.07,1.22,-2.14,0.79,6.9,906.86,33.78
2550321,-0.04,-0.07,1.23,-2.08,0.85,6.65,906.91,33.78
2550359,-0.05,-0.06,1.21,-2.26,-0.43,6.77,906.98,33.79
2550435,-0.07,-0.07,1.14,-2.5,0.31,6.84,906.89,33.74
2550473,-0.06,-0.08,1.13,-2.99,0.0,7.08,906.93,33.76
2550511,-0.06,-0.07,1.12,-3.23,-0.92,7.14,907.03,33.79
2550600,-0.06,-0.06,1.12,-3.85,-0.31,7.45,906.98,33.74
2550638,-0.06,-0.08,1.09,-4.27,0.18,7.63,906.98,33.74
2550677,-0.07,-0.07,1.12,-4.21,-0.24,7.75,907.04,33.76
2550715,-0.07,-0.07,1.13,-4.33,0.85,7.81,907.03,33.75
2550753,-0.05,-0.07,1.15,-3.91,0.73,8.0,907.03,33.76
2550791,-0.06,-0.07,1.1,-3.72,1.89,8.18,907.13,33.77
2550841,-0.05,-0.07,1.12,-3.23,1.89,8.36,907.11,33.75
2550879,-0.05,-0.07,1.08,-3.05,2.99,8.24,907.12,33.76
2550917,-0.05,-0.07,1.1,-3.17,2.62,8.36,907.14,33.76
2550955,-0.05,-0.08,1.11,-2.99,2.93,8.61,907.09,33.75
2550993,-0.05,-0.08,1.06,-3.36,3.17,8.54,907.16,33.78
2551031,-0.05,-0.07,1.11,-3.23,2.38,8.61,907.11,33.77
2551069,-0.03,-0.08,1.1,-3.72,2.38,8.73,907.15,33.78
2551108,-0.04,-0.07,1.13,-3.66,1.16,8.97,907.14,33.77
2551146,-0.06,-0.08,1.12,-3.72,1.1,8.91,907.11,33.78
2551184,-0.06,-0.08,1.13,-3.85,0.24,8.91,907.16,33.76
2551234,-0.05,-0.07,1.14,-3.78,-0.24,9.09,907.14,33.76
2551272,-0.05,-0.07,1.13,-3.91,-0.67,9.03,907.19,33.77
2551310,-0.06,-0.07,1.11,-3.91,-0.12,9.03,907.2,33.77
2551348,-0.05,-0.07,1.09,-3.97,0.0,9.09,907.19,33.78
2551386,-0.07,-0.07,1.11,-3.66,-0.12,9.09,907.26,33.77
2551424,-0.07,-0.07,1.1,-3.97,1.34,9.16,907.23,33.79
2551462,-0.06,-0.07,1.15,-3.91,1.34,9.09,907.25,33.79
2551500,-0.05,-0.07,1.14,-4.33,2.26,9.34,907.22,33.78
2551538,-0.06,-0.06,1.16,-4.27,2.14,9.46,907.29,33.78
2551588,-0.05,-0.06,1.17,-4.82,3.23,9.52,907.25,33.77
2551626,-0.05,-0.06,1.2,-4.76,2.75,9.64,907.28,33.78
2551664,-0.07,-0.07,1.21,-5.19,2.87,9.89,907.33,33.79
2551702,-0.07,-0.07,1.22,-5.43,2.81,10.01,907.34,33.78
2551741,-0.07,-0.06,1.24,-5.62,3.05,9.89,907.31,33.77
2551779,-0.07,-0.06,1.23,-5.8,3.48,10.31,907.42,33.78
2551817,-0.06,-0.06,1.23,-5.74,3.48,10.31,907.33,33.77
2551855,-0.07,-0.06,1.22,-5.68,3.97,10.38,907.4,33.78
2551893,-0.06,-0.06,1.21,-6.1,4.09,10.62,907.46,33.78
2551943,-0.06,-0.06,1.24,-6.23,3.3,10.56,907.43,33.77
2551981,-0.05,-0.06,1.25,-6.04,2.44,10.8,907.43,33.77
2552019,-0.05,-0.06,1.27,-5.92,2.56,10.8,907.4,33.78
2552057,-0.06,-0.06,1.26,-5.86,2.38,10.8,907.44,33.77
2552095,-0.06,-0.06,1.25,-5.8,1.95,10.99,907.53,33.76
2552133,-0.05,-0.06,1.26,-5.86,2.5,10.99,907.47,33.78
2552171,-0.07,-0.06,1.29,-5.98,1.71,10.99,907.57,33.78
2552210,-0.05,-0.06,1.31,-5.98,1.65,11.29,907.52,33.78
2552248,-0.06,-0.05,1.34,-6.04,1.22,11.17,907.57,33.78
2552286,-0.05,-0.05,1.39,-6.04,1.95,11.41,907.54,33.77
2552336,-0.05,-0.04,1.46,-6.1,0.98,11.6,907.52,33.76
2552374,-0.08,-0.06,1.47,-6.23,2.01,11.6,907.62,33.76
2552412,-0.06,-0.04,1.45,-6.59,2.69,11.54,907.64,33.77
2552450,-0.06,-0.04,1.51,-5.86,3.36,11.41,907.65,33.77
2552488,-0.03,-0.06,1.52,-5.92,4.27,11.41,907.54,33.76
2552526,-0.05,-0.04,1.56,-5.43,2.69,11.41,907.61,33.76
2552564,-0.06,-0.03,1.57,-5.49,3.17,11.54,907.66,33.77
2552602,-0.06,-0.03,1.58,-5.92,3.91,11.66,907.66,33.78
2552641,-0.04,-0.03,1.63,-5.68,3.3,11.41,907.65,33.78
2552690,-0.08,-0.03,1.59,-5.68,3.54,11.72,907.62,33.77
2552728,-0.06,-0.01,1.6,-5.74,3.91,11.6,907.62,33.76
2552767,-0.05,-0.02,1.63,-5.43,4.39,11.72,907.66,33.77
2552805,-0.04,-0.03,1.63,-5.49,4.03,11.84,907.71,33.77
2552843,-0.06,-0.05,1.62,-5.31,3.91,11.9,907.67,33.77
2552881,-0.08,-0.05,1.53,-5.31,5.86,11.6,907.72,33.77
2552919,-0.03,-0.06,1.51,-5.25,5.19,11.78,907.79,33.77
2552957,-0.06,-0.06,1.39,-5.13,4.88,11.6,907.84,33.78
2552995,-0.06,-0.07,1.32,-5.0,4.88,11.96,907.82,33.78
2553045,-0.02,-0.08,1.23,-4.76,4.82,11.78,907.91,33.77
2553083,-0.05,-0.07,1.14,-5.0,4.64,12.08,907.87,33.75
2553121,-0.04,-0.08,1.11,-5.62,3.54,11.9,907.84,33.77
2553160,-0.03,-0.08,1.15,-5.74,4.03,11.66,907.89,33.78
2553198,-0.02,-0.09,1.14,-6.53,3.48,11.66,907.89,33.78
2553236,-0.03,-0.08,1.19,-7.2,3.05,11.6,907.94,33.77
2553274,-0.04,-0.09,1.18,-7.45,3.97,11.66,907.87,33.78
2553312,-0.03,-0.07,1.17,-8.06,4.15,11.54,907.95,33.77
2553350,-0.02,-0.07,1.22,-8.12,3.78,11.35,907.96,33.79
2553388,-0.04,-0.08,1.23,-8.48,3.54,11.47,907.96,33.77
2553466,-0.04,-0.07,1.34,-8.85,2.14,11.47,907.96,33.74
2553504,-0.04,-0.07,1.36,-9.16,2.56,11.47,907.99,33.76
2553542,-0.03,-0.06,1.4,-9.09,2.38,11.23,907.98,33.75
2553632,-0.03,-0.06,1.51,-8.3,1.89,11.35,908.07,33.73
2553670,-0.05,-0.05,1.55,-7.26,2.08,11.17,908.06,33.74
2553708,-0.04,-0.06,1.5,-6.41,2.75,11.17,908.06,33.74
2553746,-0.03,-0.06,1.5,-5.37,1.89,11.35,908.1,33.74
2553784,-0.02,-0.06,1.48,-5.19,2.44,11.17,908.13,33.74
2553822,-0.04,-0.05,1.44,-4.21,2.75,11.11,908.08,33.76
2553872,-0.04,-0.06,1.41,-3.85,2.2,11.29,908.04,33.73
2553910,-0.04,-0.05,1.37,-4.39,2.44,11.05,908.01,33.75
2553948,-0.04,-0.06,1.34,-5.0,2.38,11.11,908.03,33.75
2553987,-0.04,-0.06,1.34,-5.49,3.42,11.17,908.06,33.76
2554025,-0.04,-0.06,1.38,-6.16,3.05,11.05,908.06,33.75
2554063,-0.05,-0.06,1.37,-6.71,3.48,11.29,908.05,33.76
2554101,-0.05,-0.05,1.4,-7.45,3.11,11.41,908.05,33.75
2554139,-0.05,-0.06,1.39,-8.12,4.27,11.35,908.1,33.76
2554177,-0.07,-0.06,1.43,-8.06,3.97,11.47,908.07,33.75
2554227,-0.05,-0.05,1.49,-8.18,5.8,11.72,908.09,33.73
2554265,-0.03,-0.04,1.55,-8.42,5.31,11.66,908.14,33.76
2554304,-0.06,-0.03,1.6,-8.67,6.29,11.9,908.1,33.76
2554342,-0.05,-0.02,1.64,-8.67,5.55,12.33,908.12,33.75
2554380,-0.02,-0.02,1.76,-8.42,5.68,12.51,908.05,33.74
2554418,-0.04,-0.02,1.78,-8.91,4.27,12.63,908.11,33.75
2554456,-0.07,-0.01,1.81,-8.42,2.93,12.88,908.1,33.76
2554494,-0.03,-0.01,1.8,-8.06,3.78,13.0,908.06,33.76
2554532,-0.02,-0.01,1.78,-8.06,3.6,13.24,908.09,33.76
2554582,-0.04,-0.02,1.75,-7.39,4.33,13.06,908.13,33.74
2554620,-0.03,-0.02,1.73,-6.71,4.88,12.82,908.16,33.76
2554658,-0.03,-0.02,1.72,-6.77,5.43,13.06,908.22,33.75
2554696,-0.02,-0.02,1.7,-6.23,4.64,12.88,908.16,33.75
2554735,-0.04,-0.03,1.68,-5.68,5.55,12.88,908.22,33.76
2554773,-0.02,-0.04,1.64,-5.8,6.71,12.76,908.21,33.75
2554811,-0.01,-0.02,1.67,-5.19,5.13,12.7,908.19,33.76
2554849,-0.01,-0.04,1.61,-5.13,5.92,12.57,908.22,33.76
2554887,-0.03,-0.03,1.63,-4.64,5.98,12.63,908.19,33.76
2554925,-0.03,-0.05,1.57,-4.88,6.65,12.63,908.24,33.76
2554975,-0.01,-0.06,1.56,-4.82,5.92,12.63,908.18,33.76
2555013,-0.04,-0.06,1.49,-5.19,5.98,12.7,908.24,33.76
2555051,-0.02,-0.03,1.51,-4.94,5.25,12.7,908.21,33.76
2555089,0.01,-0.06,1.49,-5.49,6.1,12.57,908.23,33.76
2555127,-0.02,-0.08,1.43,-4.94,5.13,12.57,908.17,33.75
2555166,-0.04,-0.07,1.4,-4.7,4.39,12.63,908.22,33.75
2555204,-0.03,-0.08,1.37,-4.7,5.19,12.63,908.27,33.76
2555242,-0.02,-0.07,1.35,-4.52,3.66,12.33,908.29,33.77
2555280,-0.03,-0.08,1.32,-4.7,3.97,12.39,908.28,33.77
2555330,-0.02,-0.08,1.25,-4.64,4.39,12.45,908.29,33.77
2555368,-0.01,-0.08,1.27,-4.58,3.3,12.57,908.28,33.75
2555406,-0.03,-0.09,1.21,-5.13,4.09,12.45,908.32,33.78
2555444,-0.01,-0.08,1.22,-4.82,4.27,12.27,908.29,33.75
2555482,-0.02,-0.07,1.18,-4.82,4.76,12.33,908.27,33.76
2555520,-0.02,-0.09,1.2,-5.13,4.15,12.33,908.25,33.76
2555558,-0.04,-0.08,1.19,-5.0,5.0,12.15,908.28,33.77
2555597,-0.02,-0.07,1.21,-5.25,5.74,12.21,908.27,33.76
2555635,-0.02,-0.08,1.23,-5.19,5.07,12.15,908.32,33.77
2555684,-0.03,-0.08,1.18,-5.43,5.07,12.08,908.28,33.74
2555723,-0.01,-0.07,1.25,-5.31,4.76,12.08,908.24,33.76
2555761,-0.02,-0.08,1.18,-5.62,4.7,12.27,908.32,33.77
2555799,-0.04,-0.07,1.22,-4.94,3.78,12.33,908.3,33.76
2555837,-0.03,-0.09,1.19,-4.94,4.76,12.33,908.26,33.76
2555875,-0.01,-0.09,1.2,-5.07,5.0,12.21,908.26,33.76
2555913,-0.03,-0.06,1.26,-4.58,3.91,12.51,908.28,33.75
2555951,-0.05,-0.07,1.25,-4.88,4.46,12.45,908.28,33.77
2555989,-0.04,-0.07,1.32,-4.7,4.27,12.21,908.2,33.75
2556028,-0.03,-0.09,1.33,-4.7,5.07,12.51,908.25,33.76
2556078,-0.05,-0.08,1.34,-4.27,4.64,12.51,908.28,33.74
2556116,-0.04,-0.07,1.22,-4.58,5.92,12.51,908.29,33.76
2556154,-0.03,-0.06,1.27,-3.3,4.52,12.45,908.29,33.76
2556192,-0.01,-0.1,1.2,-3.91,5.68,12.76,908.32,33.76
2556230,-0.06,-0.09,1.2,-3.97,2.81,12.76,908.33,33.76
2556268,-0.06,-0.08,1.2,-4.09,2.99,13.31,908.26,33.75
2556306,-0.03,-0.08,1.13,-4.76,3.85,13.37,908.33,33.78
2556345,-0.01,-0.07,1.19,-4.15,4.03,13.12,908.3,33.75
2556383,-0.03,-0.08,1.22,-4.52,5.43,13.24,908.27,33.76
2556458,-0.04,-0.06,1.33,-4.76,6.04,13.24,908.22,33.74
2556497,-0.03,-0.07,1.29,-5.62,6.9,13.43,908.28,33.75
2556535,-0.01,-0.06,1.44,-5.07,4.88,13.61,908.3,33.75
2556624,0.01,-0.05,1.47,-4.88,4.7,13.55,908.29,33.72
2556663,0.01,-0.07,1.4,-5.0,5.49,13.49,908.25,33.73
2556701,0.01,-0.07,1.43,-4.58,3.85,13.37,908.24,33.73
2556739,0.02,-0.08,1.42,-4.64,5.25,13.18,908.3,33.75
2556777,0.01,-0.07,1.4,-4.27,4.09,13.24,908.24,33.74
2556815,-0.0,-0.07,1.42,-4.09,3.3,13.18,908.23,33.74
2556865,0.02,-0.06,1.42,-4.52,3.78,12.51,908.23,33.73
2556903,0.0,-0.05,1.44,-4.15,6.47,12.21,908.26,33.74
2556941,0.03,-0.07,1.4,-4.52,6.04,12.08,908.2,33.75
2556979,0.04,-0.05,1.51,-4.03,4.39,11.96,908.21,33.75
2557017,-0.0,-0.08,1.38,-4.39,6.71,11.84,908.18,33.75
2557056,0.01,-0.07,1.4,-4.09,5.25,11.66,908.26,33.75
2557094,0.01,-0.08,1.36,-3.72,6.84,11.29,908.22,33.76
2557132,0.02,-0.07,1.31,-3.54,4.03,11.29,908.2,33.76
2557170,0.03,-0.06,1.38,-4.15,2.08,11.35,908.17,33.76
2557208,-0.01,-0.06,1.35,-3.72,1.71,11.23,908.17,33.76
2557258,0.02,-0.07,1.4,-3.85,1.65,10.8,908.21,33.74
2557296,0.04,-0.09,1.42,-3.72,2.99,10.68,908.16,33.76
2557334,0.01,-0.08,1.34,-3.78,2.69,10.31,908.22,33.75
2557372,0.02,-0.07,1.41,-2.87,3.05,10.07,908.22,33.76
2557410,0.04,-0.07,1.31,-3.42,5.43,9.89,908.25,33.76
2557449,0.04,-0.07,1.34,-2.87,3.48,9.58,908.16,33.76
2557487,0.02,-0.08,1.33,-2.99,4.7,9.46,908.16,33.75
2557525,0.02,-0.08,1.32,-3.36,3.78,9.09,908.13,33.76
2557563,0.03,-0.08,1.36,-3.23,4.09,8.97,908.22,33.77
2557613,0.03,-0.07,1.29,-3.6,2.62,8.54,908.23,33.76
2557651,0.03,-0.07,1.29,-3.17,3.78,8.3,908.23,33.76
2557689,0.05,-0.1,1.2,-4.27,3.66,8.24,908.14,33.76
2557727,0.03,-0.08,1.24,-3.48,2.62,7.69,908.18,33.75
2557765,0.01,-0.09,1.18,-3.72,2.93,7.63,908.12,33.76
2557803,0.03,-0.07,1.24,-4.09,2.2,7.45,908.14,33.76
2557841,0.03,-0.08,1.28,-4.15,2.93,7.32,908.18,33.75
2557879,0.03,-0.09,1.25,-4.21,2.62,7.2,908.2,33.77
2557917,0.01,-0.09,1.23,-3.6,2.38,6.96,908.21,33.76
2557956,0.01,-0.08,1.21,-3.97,3.42,6.65,908.23,33.76
2558005,0.02,-0.08,1.26,-3.97,3.85,6.41,908.25,33.75
2558043,0.02,-0.1,1.25,-3.42,5.31,6.41,908.2,33.74
2558082,0.01,-0.1,1.28,-3.72,5.19,6.1,908.28,33.76
2558120,-0.0,-0.09,1.28,-4.58,6.47,6.04,908.24,33.75
2558158,-0.0,-0.08,1.3,-4.21,5.74,5.92,908.19,33.75
2558196,-0.01,-0.09,1.23,-4.58,5.98,5.8,908.26,33.76
2558234,0.01,-0.07,1.29,-4.21,5.19,5.86,908.21,33.76
2558272,-0.01,-0.09,1.28,-4.03,5.07,5.98,908.2,33.76
2558310,-0.0,-0.1,1.26,-3.78,4.52,5.86,908.25,33.76
2558348,0.0,-0.08,1.23,-3.54,5.43,5.8,908.23,33.74
2558398,0.0,-0.08,1.24,-3.48,7.26,5.8,908.26,33.76
2558436,-0.02,-0.1,1.17,-3.17,8.91,5.86,908.3,33.75
2558474,-0.04,-0.09,1.19,-2.87,10.62,5.19,908.18,33.75
2558512,-0.02,-0.08,1.26,-3.23,11.96,5.37,908.2,33.75
2558551,0.01,-0.08,1.3,-3.85,11.41,5.43,908.23,33.77
2558589,-0.02,-0.07,1.32,-3.78,10.8,5.55,908.18,33.75
2558627,-0.05,-0.09,1.33,-3.42,11.96,5.68,908.32,33.76
2558665,-0.04,-0.08,1.38,-3.66,12.33,5.86,908.18,33.75
2558703,-0.06,-0.09,1.35,-2.87,13.12,6.29,908.27,33.75
2558753,0.01,-0.09,1.28,-2.99,12.15,5.98,908.26,33.76
2558791,-0.03,-0.09,1.22,-3.11,12.21,6.1,908.25,33.76
2558829,-0.02,-0.09,1.25,-2.75,9.46,6.53,908.27,33.76
2558867,-0.05,-0.1,1.21,-3.05,8.85,6.9,908.3,33.75
2558905,-0.04,-0.08,1.18,-3.3,7.2,6.71,908.31,33.74
2558943,-0.06,-0.07,1.21,-2.62,5.49,7.14,908.29,33.76
2558981,-0.06,-0.1,1.1,-3.05,6.47,7.2,908.3,33.76
2559020,-0.04,-0.1,1.1,-2.26,5.49,7.08,908.32,33.77
2559058,-0.04,-0.11,0.99,-2.69,6.9,7.26,908.26,33.75
2559096,-0.06,-0.09,0.94,-2.14,5.74,7.51,908.35,33.75
2559145,-0.09,-0.09,0.81,-2.56,6.41,7.81,908.27,33.74
2559184,-0.08,-0.1,0.94,-1.4,5.0,7.93,908.3,33.75
2559222,-0.04,-0.11,0.92,-2.01,6.59,7.87,908.23,33.74
2559260,-0.08,-0.08,0.98,-1.53,6.41,8.06,908.24,33.75
2559298,-0.08,-0.1,0.96,-1.53,9.09,8.54,908.22,33.75
2559336,-0.06,-0.09,0.95,-1.83,11.6,8.36,908.18,33.76
2559374,-0.06,-0.09,0.96,-1.46,11.6,8.73,908.2,33.75
2559412,-0.09,-0.08,0.89,-1.53,13.06,9.16,908.22,33.76
2559450,-0.07,-0.1,0.89,-0.92,13.73,9.22,908.16,33.75
2559526,-0.06,-0.09,0.92,-0.85,11.35,9.95,908.23,33.72
2559564,-0.07,-0.09,0.91,-1.4,11.23,10.44,908.25,33.73
2559602,-0.07,-0.09,0.94,-1.28,9.89,10.44,908.26,33.75
2559692,-0.05,-0.1,1.02,-1.77,5.62,11.23,908.28,33.71
2559730,-0.03,-0.09,1.05,-2.32,4.76,11.17,908.23,33.71
2559768,-0.06,-0.09,1.06,-2.08,4.27,11.66,908.35,33.73
2559806,-0.04,-0.09,1.05,-2.62,3.85,11.9,908.3,33.74
2559844,-0.04,-0.08,1.1,-2.69,3.91,11.84,908.34,33.74
2559882,-0.04,-0.09,1.11,-2.69,4.03,11.78,908.27,33.73
2559932,-0.05,-0.08,1.14,-2.56,3.6,12.02,908.35,33.73
2559970,-0.04,-0.1,1.18,-2.38,4.21,11.84,908.29,33.73
2560008,-0.02,-0.09,1.21,-2.2,4.82,12.08,908.31,33.73
2560046,-0.03,-0.08,1.25,-2.01,5.25,12.21,908.31,33.73
2560085,-0.03,-0.08,1.24,-2.2,5.43,12.45,908.29,33.73
2560123,-0.04,-0.08,1.28,-1.77,5.55,12.27,908.32,33.73
2560161,-0.03,-0.09,1.29,-1.95,6.41,12.39,908.29,33.73
2560199,-0.0,-0.09,1.33,-1.53,5.25,12.39,908.26,33.74
2560237,-0.01,-0.07,1.38,-1.4,5.43,12.33,908.24,33.74
2560275,-0.03,-0.09,1.33,-1.22,6.53,12.33,908.24,33.73
2560325,0.01,-0.08,1.36,-0.79,7.08,12.21,908.22,33.72
2560363,-0.01,-0.08,1.32,-0.73,7.87,12.02,908.2,33.73
2560401,0.0,-0.09,1.31,-0.31,8.0,12.02,908.22,33.74
2560439,0.01,-0.08,1.27,0.0,9.7,11.6,908.19,33.73
2560477,0.03,-0.08,1.27,0.37,9.4,11.54,908.19,33.73
2560515,0.02,-0.1,1.21,0.67,11.05,11.6,908.2,33.74
2560554,0.01,-0.09,1.19,1.53,10.68,11.23,908.21,33.73
2560592,-0.0,-0.08,1.26,1.83,10.68,11.47,908.18,33.73
2560630,0.01,-0.11,1.2,1.28,10.56,11.41,908.14,33.73
2560680,0.0,-0.09,1.24,1.77,9.52,11.05,908.2,33.73
2560718,0.04,-0.1,1.17,0.98,11.6,10.99,908.14,33.73
2560756,0.03,-0.08,1.16,0.79,9.52,11.11,908.17,33.73
2560794,0.04,-0.09,1.19,0.98,9.89,10.62,908.15,33.74
2560832,0.0,-0.1,1.14,0.55,10.19,10.56,908.18,33.73
2560870,-0.0,-0.09,1.14,0.55,9.89,10.13,908.18,33.74
2560908,0.03,-0.09,1.13,0.12,11.35,10.13,908.21,33.73
2560946,0.02,-0.1,1.05,0.06,10.74,9.64,908.19,33.73
2560984,0.03,-0.08,0.96,-0.12,9.34,9.46,908.26,33.73
2561022,0.03,-0.1,1.02,1.04,8.24,9.4,908.29,33.75
2561072,0.04,-0.1,0.87,-0.12,6.59,8.91,908.22,33.73
2561110,0.01,-0.09,0.92,-0.24,6.23,8.85,908.2,33.73
2561148,0.03,-0.11,0.87,-1.53,6.16,8.54,908.21,33.74
2561187,0.02,-0.1,0.92,-1.34,5.43,8.24,908.24,33.74
2561225,0.04,-0.11,0.96,-1.65,6.53,7.93,908.21,33.74
2561263,0.03,-0.11,0.88,-1.77,7.69,7.63,908.2,33.74
2561301,0.04,-0.09,0.85,-1.4,7.63,7.02,908.23,33.74
2561339,0.03,-0.1,0.88,-1.28,7.63,6.84,908.25,33.75
2561377,0.03,-0.11,0.83,-1.77,9.03,6.65,908.27,33.75
2561427,0.04,-0.08,0.95,-1.34,8.97,5.92,908.24,33.73
2561465,0.01,-0.12,0.89,-1.46,10.74,5.98,908.31,33.74
2561503,0.02,-0.09,0.87,-1.4,8.85,5.98,908.28,33.74
2561541,0.02,-0.1,0.96,-1.22,9.89,5.37,908.3,33.74
2561579,0.03,-0.11,0.9,-1.53,10.25,5.31,908.33,33.74
2561618,0.01,-0.08,0.98,-1.04,7.45,5.13,908.32,33.76
2561656,0.01,-0.09,0.91,-1.46,9.95,4.94,908.33,33.75
2561694,-0.01,-0.09,1.01,-1.16,6.65,4.76,908.33,33.74
2561732,0.0,-0.12,1.02,-1.65,8.79,4.76,908.34,33.74
2561770,-0.0,-0.11,1.02,-1.4,7.51,4.39,908.32,33.74
2561820,-0.01,-0.1,1.12,-1.1,9.46,4.27,908.34,33.74
2561858,0.0,-0.11,1.11,-1.34,8.48,4.33,908.36,33.74
2561896,-0.03,-0.08,1.16,-1.34,8.0,4.39,908.39,33.75
2561934,-0.03,-0.1,1.11,-1.1,7.75,4.7,908.39,33.74
2561972,-0.05,-0.1,1.15,-0.79,6.59,4.82,908.41,33.76
2562010,-0.03,-0.09,1.11,-1.22,6.1,4.58,908.36,33.75
2562049,-0.05,-0.06,1.23,-0.67,4.58,4.88,908.38,33.75
2562087,0.0,-0.09,1.24,-1.28,6.71,5.13,908.28,33.75
2562125,-0.0,-0.07,1.35,-0.12,6.16,4.94,908.3,33.74
2562175,-0.04,-0.11,1.3,-0.61,9.77,5.55,908.28,33.74
2562213,-0.03,-0.08,1.4,-0.67,8.54,5.62,908.22,33.74
2562251,-0.02,-0.09,1.36,-1.22,12.21,5.07,908.25,33.74
2562289,-0.03,-0.08,1.37,-1.65,10.86,5.49,908.31,33.76
2562327,0.01,-0.08,1.45,-1.1,10.5,5.74,908.22,33.74
2562365,0.02,-0.09,1.34,-2.2,11.9,5.49,908.24,33.74
2562403,-0.01,-0.05,1.46,-1.16,10.01,5.68,908.32,33.74
2562441,0.02,-0.09,1.44,-1.77,12.08,5.98,908.29,33.74
2562479,0.01,-0.09,1.43,-2.08,9.34,5.49,908.21,33.74
2562517,-0.01,-0.07,1.46,-2.38,10.07,5.74,908.23,33.75
2562593,0.03,-0.07,1.44,-4.39,10.31,5.8,908.2,33.71
2562631,-0.01,-0.08,1.42,-5.07,10.74,5.86,908.17,33.73
2562669,0.0,-0.07,1.45,-5.07,10.5,5.98,908.26,33.73
2562759,0.01,-0.06,1.52,-4.88,9.7,6.04,908.23,33.71
2562797,0.01,-0.06,1.55,-4.33,8.97,6.16,908.27,33.72
2562835,0.01,-0.07,1.54,-3.23,8.97,5.74,908.21,33.71
2562873,-0.01,-0.07,1.53,-2.2,8.79,5.92,908.26,33.71
2562911,0.01,-0.07,1.48,-1.22,8.73,5.86,908.22,33.73
2562949,0.01,-0.08,1.45,-0.18,8.67,5.68,908.17,33.72
2562999,0.02,-0.08,1.39,0.0,9.09,5.49,908.13,33.7
2563037,0.03,-0.08,1.33,0.12,8.97,5.49,908.07,33.73
2563075,0.0,-0.08,1.29,0.31,9.58,5.43,908.05,33.71
2563113,0.02,-0.09,1.27,-0.12,10.56,5.19,908.02,33.72
2563151,0.02,-0.08,1.27,-0.61,10.56,5.0,908.01,33.74
2563189,0.02,-0.08,1.27,-0.92,10.13,4.7,907.99,33.73
2563227,0.01,-0.09,1.26,-0.92,10.25,5.0,908.0,33.73
2563266,0.04,-0.1,1.23,-1.28,10.8,4.82,908.0,33.72
2563304,0.02,-0.07,1.31,-0.73,8.18,4.58,907.99,33.73
2563342,0.03,-0.08,1.26,-0.98,8.48,4.52,908.02,33.72
2563392,0.05,-0.08,1.32,-0.24,5.74,4.21,908.03,33.74
2563430,0.04,-0.12,1.28,0.06,5.68,4.03,907.98,33.74
2563468,0.04,-0.09,1.26,0.37,4.09,3.85,907.99,33.73
2563506,0.03,-0.09,1.21,0.92,3.72,3.11,907.95,33.74
2563544,0.05,-0.09,1.17,1.34,3.23,2.93,907.98,33.73
2563582,0.04,-0.09,1.09,1.95,3.78,2.5,907.93,33.73
2563620,0.03,-0.1,1.05,2.32,3.42,2.01,907.93,33.74
2563658,0.02,-0.1,0.99,2.2,3.97,1.59,907.86,33.72
2563697,0.02,-0.1,0.93,2.14,4.76,1.28,907.87,33.74
2563735,0.03,-0.09,0.93,1.65,4.82,1.04,907.82,33.73
2563784,0.04,-0.11,0.86,0.49,6.59,0.61,907.77,33.73
2563823,0.02,-0.1,0.86,0.12,5.98,0.24,907.78,33.73
2563861,0.0,-0.09,0.87,-0.55,6.53,0.06,907.8,33.74
2563899,0.02,-0.09,0.9,-1.04,5.8,-0.18,907.78,33.75
2563937,0.01,-0.09,0.96,-1.22,5.55,-0.18,907.75,33.73
2563975,0.01,-0.1,0.95,-1.59,5.37,-0.31,907.77,33.73
2564013,-0.0,-0.09,1.04,-1.16,4.27,-0.43,907.7,33.71
2564051,0.01,-0.1,1.04,-0.85,5.31,-0.49,907.82,33.73
2564089,0.0,-0.09,1.04,-1.04,4.82,-0.61,907.74,33.74
2564139,-0.03,-0.09,1.08,-0.24,5.68,-0.55,907.73,33.73
2564177,-0.01,-0.09,1.09,0.0,5.68,-0.85,907.71,33.72
2564215,-0.01,-0.09,1.1,-0.06,6.71,-0.85,907.77,33.73
2564253,-0.01,-0.08,1.07,0.24,6.53,-0.92,907.7,33.73
2564291,-0.02,-0.08,1.09,0.18,7.08,-0.85,907.68,33.74
2564330,-0.01,-0.1,1.07,0.24,6.41,-0.85,907.64,33.74
2564368,-0.02,-0.08,1.09,0.18,6.59,-0.98,907.65,33.73
2564406,-0.02,-0.08,1.1,0.92,6.77,-0.85,907.67,33.74
2564444,-0.02,-0.09,1.06,1.34,6.53,-0.85,907.67,33.73
2564482,-0.03,-0.08,1.06,2.01,5.37,-0.85,907.64,33.73
2564532,-0.02,-0.09,0.99,2.14,5.62,-0.61,907.66,33.73
2564570,-0.03,-0.08,0.96,2.62,4.09,-0.67,907.51,33.72
2564608,-0.05,-0.08,0.87,2.81,4.64,-0.55,907.55,33.73
2564646,-0.03,-0.09,0.81,2.99,4.39,-0.55,907.51,33.74
2564684,-0.04,-0.07,0.84,3.72,4.21,-0.55,907.46,33.73
2564722,-0.05,-0.08,0.81,3.72,5.31,-0.43,907.5,33.73
2564761,-0.05,-0.08,0.86,4.09,6.04,-0.24,907.43,33.73
2564799,-0.03,-0.08,0.87,4.15,6.41,-0.12,907.48,33.74
2564837,-0.07,-0.08,0.9,4.39,6.35,0.0,907.45,33.75
2564887,-0.04,-0.08,0.85,4.27,8.0,0.06,907.42,33.72
2564925,-0.04,-0.08,0.89,4.58,7.69,0.24,907.34,33.73
2564963,-0.04,-0.08,0.84,4.09,8.61,0.49,907.32,33.74
2565001,-0.06,-0.08,0.84,4.27,8.18,0.79,907.29,33.74
2565039,-0.06,-0.09,0.83,4.15,8.85,0.73,907.3,33.73
2565077,-0.02,-0.08,0.85,3.6,9.58,1.04,907.3,33.74
2565115,-0.07,-0.08,0.86,3.85,9.09,1.04,907.29,33.74
2565153,-0.04,-0.09,0.79,3.05,9.52,1.34,907.28,33.74
2565192,-0.03,-0.07,0.9,4.09,8.24,1.34,907.33,33.74
2565230,-0.06,-0.09,0.74,2.69,10.8,1.59,907.27,33.75
2565280,-0.05,-0.07,0.85,3.85,9.89,1.77,907.22,33.72
2565318,-0.03,-0.08,0.81,3.05,10.19,1.89,907.22,33.73
2565356,-0.04,-0.07,0.83,3.6,7.69,2.14,907.21,33.73
2565394,-0.03,-0.08,0.82,2.87,8.61,2.44,907.21,33.73
2565432,-0.02,-0.08,0.83,3.17,6.71,2.32,907.15,33.73
2565470,-0.03,-0.08,0.84,3.05,5.8,2.56,907.17,33.73
2565508,-0.03,-0.08,0.82,3.17,4.7,2.69,907.13,33.75
2565546,-0.03,-0.08,0.83,3.3,4.58,2.75,907.12,33.73
2565585,-0.04,-0.08,0.77,3.66,3.78,2.69,907.08,33.73
2565623,-0.04,-0.07,0.77,3.72,2.5,2.69,907.11,33.74
2565698,-0.04,-0.08,0.75,3.54,2.5,2.87,907.08,33.71
2565737,-0.03,-0.08,0.79,3.66,2.32,2.81,907.08,33.72
2565775,-0.02,-0.09,0.76,2.81,2.87,3.05,907.07,33.74
2565864,-0.03,-0.08,0.78,2.5,2.32,3.17,907.01,33.69
2565902,-0.03,-0.08,0.8,2.75,1.71,2.99,906.99,33.69
2565940,-0.02,-0.08,0.79,2.81,1.89,3.17,906.99,33.71
2565978,-0.01,-0.07,0.83,3.23,1.34,3.11,907.09,33.71
2566017,-0.03,-0.08,0.78,3.05,1.65,3.42,906.99,33.72
2566055,-0.01,-0.08,0.78,3.05,1.83,3.36,906.98,33.71
2566104,-0.03,-0.08,0.81,3.11,2.01,3.05,907.02,33.71
2566143,-0.02,-0.08,0.74,2.99,3.3,3.11,906.94,33.71
2566181,-0.01,-0.08,0.81,3.23,3.05,2.99,907.03,33.71
2566219,-0.02,-0.08,0.81,3.11,5.68,2.99,906.95,33.71
2566257,-0.0,-0.08,0.82,3.11,4.88,3.05,906.98,33.72
2566295,-0.01,-0.08,0.83,3.17,7.32,2.93,906.96,33.72
2566333,-0.04,-0.07,0.83,3.23,5.98,2.99,906.96,33.72
2566371,-0.02,-0.07,0.87,3.3,6.16,3.11,906.9,33.7
2566410,0.02,-0.08,0.86,3.66,6.71,2.69,906.86,33.71
2566448,0.01,-0.07,0.93,4.27,5.92,2.81,906.82,33.71
2566497,0.01,-0.08,0.89,4.46,5.62,2.81,906.82,33.71
2566536,0.0,-0.07,0.89,4.58,5.37,2.62,906.85,33.71
2566574,0.0,-0.08,0.84,3.97,4.52,2.32,906.87,33.72
2566612,0.0,-0.07,0.83,3.6,3.6,2.44,906.86,33.72
2566650,-0.0,-0.08,0.8,3.23,4.33,2.08,906.92,33.73
2566688,0.01,-0.07,0.82,3.05,3.11,1.71,906.91,33.72
2566726,-0.0,-0.06,0.91,2.93,2.38,1.89,906.83,33.71
2566764,0.0,-0.07,0.94,3.36,2.14,2.08,906.89,33.72
2566802,-0.0,-0.07,1.0,3.97,1.89,1.77,906.9,33.72
2566841,-0.0,-0.07,0.99,4.52,2.01,1.59,906.9,33.73
2566890,-0.01,-0.07,0.93,4.76,0.98,1.59,906.79,33.69
2566928,0.0,-0.07,0.9,4.64,1.1,1.46,906.8,33.71
2566967,-0.0,-0.07,0.86,4.21,1.04,1.28,906.8,33.7
2567005,-0.02,-0.07,0.82,3.85,0.98,1.4,906.83,33.72
2567043,-0.0,-0.07,0.84,3.66,0.73,1.22,906.77,33.71
2567081,-0.01,-0.08,0.83,3.11,1.1,0.98,906.78,33.71
2567119,-0.01,-0.07,0.83,2.87,0.67,0.98,906.72,33.71
2567157,0.0,-0.08,0.85,2.44,1.71,0.79,906.76,33.71
2567195,-0.01,-0.07,0.85,1.83,1.95,0.73,906.72,33.71
2567245,-0.02,-0.06,0.88,1.59,2.81,0.73,906.76,33.69
2567283,-0.01,-0.07,0.89,1.16,3.3,0.55,906.79,33.71
2567321,-0.01,-0.07,0.95,1.04,3.48,0.55,906.76,33.69
2567359,-0.02,-0.07,0.92,0.55,4.21,0.61,906.73,33.7
2567397,-0.01,-0.05,1.0,0.79,3.72,0.49,906.78,33.71
2567435,-0.01,-0.07,0.99,0.24,5.68,0.37,906.7,33.69
2567473,-0.01,-0.05,1.04,0.37,4.7,0.31,906.76,33.71
2567511,-0.02,-0.05,1.07,0.49,5.62,0.43,906.74,33.7
2567549,-0.02,-0.05,1.07,0.43,5.68,0.43,906.74,33.7
2567587,-0.03,-0.05,1.08,0.73,5.8,0.49,906.73,33.71
2567637,-0.02,-0.06,1.05,0.61,7.2,0.31,906.74,33.7
2567675,-0.01,-0.05,1.06,0.79,7.69,0.24,906.76,33.7
2567713,-0.02,-0.04,1.03,0.73,8.0,0.24,906.78,33.71
2567751,-0.02,-0.05,1.04,1.28,7.69,0.31,906.71,33.7
2567790,-0.02,-0.06,1.03,1.59,8.36,0.24,906.71,33.7
2567828,-0.02,-0.06,1.06,1.71,7.08,0.18,906.71,33.7
2567866,-0.02,-0.06,1.05,1.59,7.08,0.18,906.75,33.7
2567904,-0.02,-0.06,1.06,1.83,6.04,0.06,906.77,33.7
2567942,-0.03,-0.06,1.03,1.83,6.59,0.0,906.76,33.69
2567980,-0.01,-0.06,1.02,1.71,6.29,0.06,906.73,33.71
2568030,-0.01,-0.05,1.0,1.83,5.8,0.06,906.72,33.69
2568068,-0.04,-0.06,0.98,1.77,5.68,0.24,906.73,33.71
2568106,-0.04,-0.05,1.0,2.2,5.0,0.06,906.71,33.7
2568144,-0.04,-0.06,1.0,2.38,4.64,0.12,906.67,33.71
2568182,-0.02,-0.06,1.01,2.38,3.85,0.0,906.72,33.71
2568220,-0.03,-0.05,1.03,2.56,2.81,0.0,906.72,33.71
2568258,-0.02,-0.05,1.02,2.56,2.2,0.24,906.64,33.69
2568296,-0.03,-0.05,0.98,2.5,2.01,0.24,906.63,33.7
2568334,-0.02,-0.04,1.03,2.62,1.04,0.24,906.63,33.71
2568384,-0.02,-0.06,0.97,2.2,0.12,0.31,906.66,33.7
2568422,-0.03,-0.04,1.0,2.2,-0.55,0.12,906.63,33.71
2568460,-0.02,-0.05,1.01,2.01,-0.18,0.06,906.61,33.7
2568498,-0.03,-0.05,1.0,1.89,-0.24,0.12,906.7,33.72
2568537,-0.04,-0.05,1.03,2.14,-0.12,0.24,906.64,33.71
2568575,-0.05,-0.05,1.02,2.08,0.55,0.24,906.65,33.71
2568613,-0.05,-0.05,1.03,2.14,0.67,0.18,906.67,33.72
2568651,-0.05,-0.04,1.05,2.14,0.61,0.37,906.65,33.71
2568689,-0.04,-0.04,1.09,2.2,0.85,0.37,906.67,33.71
2568727,-0.04,-0.04,1.06,1.89,2.38,0.55,906.63,33.72
2568803,-0.05,-0.05,1.12,2.2,3.6,0.61,906.56,33.68
2568841,-0.05,-0.04,1.1,2.32,3.66,0.61,906.64,33.71
2568879,-0.04,-0.03,1.12,2.69,3.48,0.73,906.62,33.7
2568968,-0.04,-0.04,1.07,2.87,4.82,0.79,906.6,33.68
2569007,-0.04,-0.05,1.06,2.75,5.37,1.1,906.57,33.68
2569045,-0.05,-0.05,1.07,2.56,4.76,1.16,906.56,33.69
2569083,-0.05,-0.04,1.08,2.69,4.88,1.34,906.55,33.68
2569121,-0.05,-0.05,1.06,2.44,5.25,1.53,906.56,33.68
2569159,-0.03,-0.05,1.07,2.56,4.64,1.71,906.55,33.69
2569197,-0.05,-0.04,1.08,2.75,4.21,1.89,906.56,33.71
2569247,-0.03,-0.05,1.02,2.32,5.49,2.01,906.61,33.69
2569285,-0.05,-0.04,1.09,2.75,4.27,2.08,906.49,33.69
2569323,-0.05,-0.06,1.02,2.26,5.31,2.38,906.53,33.7
2569361,-0.04,-0.05,1.02,2.26,3.78,2.56,906.59,33.7
2569399,-0.03,-0.05,1.0,2.2,4.76,2.5,906.52,33.71
2569437,-0.04,-0.06,0.95,2.44,3.72,2.87,906.52,33.7
2569475,-0.02,-0.06,0.91,1.95,4.33,2.93,906.54,33.71
2569513,-0.03,-0.06,0.93,2.44,4.09,2.81,906.51,33.71
2569552,-0.03,-0.07,0.89,2.26,4.27,2.93,906.52,33.71
2569601,-0.03,-0.05,0.91,2.5,2.87,3.05,906.52,33.68
2569639,-0.02,-0.07,0.88,2.26,3.78,2.81,906.52,33.71
2569678,-0.03,-0.07,0.91,2.38,2.87,3.05,906.54,33.71
2569716,-0.04,-0.06,0.92,2.38,3.23,2.99,906.44,33.69
2569754,-0.03,-0.07,0.91,2.08,3.36,2.75,906.48,33.7
2569792,-0.05,-0.06,0.91,1.89,4.33,3.17,906.51,33.69
2569830,-0.04,-0.07,0.88,2.14,4.64,3.05,906.5,33.71
2569868,-0.03,-0.07,0.86,1.89,4.58,2.99,906.52,33.72
2569906,-0.04,-0.06,0.83,2.08,4.33,2.99,906.46,33.7
2569944,-0.04,-0.07,0.82,2.08,4.64,3.11,906.47,33.71
2569994,-0.03,-0.06,0.81,2.2,5.0,3.11,906.5,33.71
2570032,-0.02,-0.06,0.82,2.32,4.82,3.3,906.37,33.69
2570070,-0.02,-0.07,0.82,1.89,3.91,3.3,906.4,33.71
2570108,-0.05,-0.06,0.86,1.83,3.72,3.42,906.41,33.69
2570146,-0.03,-0.07,0.89,1.95,4.39,3.48,906.47,33.7
2570184,-0.02,-0.06,0.9,1.83,4.21,3.6,906.4,33.7
2570223,-0.03,-0.06,0.91,1.83,3.23,3.72,906.42,33.71
2570261,-0.01,-0.06,0.93,1.46,2.93,3.6,906.44,33.71
2570299,-0.02,-0.05,0.98,1.65,2.44,3.72,906.4,33.7
2570337,-0.02,-0.05,1.04,1.46,2.56,3.6,906.42,33.69
2570387,-0.02,-0.06,1.07,1.28,2.93,3.72,906.38,33.69
2570425,-0.02,-0.04,1.1,1.4,2.56,3.54,906.38,33.69
2570463,-0.03,-0.05,1.11,1.22,2.99,3.48,906.32,33.7
2570501,-0.01,-0.04,1.13,1.46,2.81,3.48,906.38,33.7
2570539,-0.01,-0.04,1.13,1.34,3.42,3.66,906.37,33.7
2570577,-0.01,-0.04,1.12,1.4,3.72,3.42,906.35,33.7
2570615,-0.02,-0.04,1.14,1.77,3.91,3.42,906.32,33.71
2570653,-0.01,-0.05,1.16,1.59,4.21,3.3,906.32,33.71
2570691,-0.01,-0.05,1.15,1.65,4.21,3.54,906.34,33.7
2570741,-0.02,-0.04,1.17,1.77,4.15,3.23,906.36,33.7
2570779,0.0,-0.05,1.17,2.2,4.58,3.3,906.29,33.71
2570817,-0.0,-0.05,1.1,1.89,5.43,3.11,906.3,33.69
2570856,0.01,-0.04,1.11,2.5,5.07,3.11,906.29,33.7
2570894,-0.01,-0.04,1.06,2.5,5.13,2.93,906.26,33.69
2570932,0.01,-0.05,1.04,2.44,4.88,3.05,906.23,33.69
2570970,0.0,-0.05,1.05,2.44,5.25,2.69,906.19,33.69
2571008,-0.01,-0.05,1.02,2.32,5.25,2.62,906.27,33.71
2571046,0.02,-0.06,1.05,2.01,5.62,2.32,906.27,33.71
2571084,-0.0,-0.04,1.04,1.95,5.74,2.14,906.24,33.71
2571134,0.01,-0.05,1.08,2.2,5.37,2.26,906.23,33.7
2571172,0.02,-0.06,1.06,2.2,5.98,1.77,906.27,33.71
2571210,0.01,-0.05,1.03,2.26,5.55,1.71,906.19,33.7
2571248,0.01,-0.05,1.02,2.56,5.55,1.65,906.15,33.69
2571286,0.01,-0.06,0.94,2.44,5.31,1.4,906.14,33.68
2571324,0.0,-0.06,0.91,2.32,4.94,0.98,906.16,33.71
2571362,0.01,-0.06,0.89,2.44,4.52,1.1,906.15,33.7
2571401,0.01,-0.06,0.86,2.26,4.46,0.79,906.1,33.71
2571439,0.02,-0.05,0.92,2.26,3.17,0.49,906.16,33.7
2571477,0.01,-0.06,0.91,2.26,3.3,0.31,906.16,33.7
2571527,-0.0,-0.06,0.95,2.01,3.17,0.37,906.13,33.69
2571565,0.02,-0.06,0.95,1.77,2.87,-0.12,906.2,33.71
2571603,-0.0,-0.05,0.94,1.46,3.66,-0.49,906.11,33.7
2571641,-0.0,-0.05,0.9,1.65,3.42,-0.49,906.19,33.71
2571679,-0.01,-0.07,0.82,1.46,4.58,-0.85,906.2,33.7
2571717,-0.02,-0.06,0.83,2.14,2.93,-0.98,906.19,33.71
2571755,-0.01,-0.06,0.84,2.38,4.21,-1.04,906.2,33.7
2571793,-0.01,-0.06,0.85,2.69,4.58,-1.16,906.17,33.72
2571832,-0.01,-0.06,0.84,2.81,4.27,-1.46,906.15,33.69
2571907,-0.03,-0.06,0.85,2.56,4.39,-1.46,906.06,33.67
2571945,-0.03,-0.06,0.87,2.26,4.09,-1.28,906.11,33.69
2571983,-0.03,-0.04,0.94,2.26,1.22,-1.28,906.15,33.69
2572147,-0.02,-0.04,1.14,1.4,0.92,-0.92,906.06,33.62
2572185,-0.04,-0.03,1.15,1.89,0.43,-0.67,906.06,33.65
2572224,-0.03,-0.04,1.11,2.14,1.71,-0.85,906.13,33.66
2572262,-0.05,-0.03,1.03,2.01,1.95,-0.67,906.09,33.65
2572300,-0.05,-0.02,1.01,2.75,1.77,-0.79,906.1,33.67
2572338,-0.04,-0.04,0.96,2.69,3.05,-0.67,906.13,33.67
2572376,-0.04,-0.04,0.98,3.42,2.14,-0.61,906.07,33.67
2572426,-0.04,-0.06,0.95,3.78,4.15,-0.43,906.12,33.67
2572464,-0.02,-0.05,0.98,4.21,3.72,-0.55,906.11,33.66
2572502,-0.06,-0.04,0.92,4.21,4.15,-0.31,906.07,33.67
2572540,-0.05,-0.05,0.89,4.21,3.17,-0.24,906.04,33.67
2572578,-0.04,-0.05,0.86,3.91,3.72,-0.31,906.05,33.67
2572616,-0.03,-0.05,0.87,3.85,3.11,-0.06,906.02,33.67
2572654,-0.03,-0.05,0.88,3.91,3.36,0.06,906.06,33.67
2572693,-0.04,-0.04,0.89,3.54,2.87,0.12,906.01,33.68
2572731,-0.04,-0.05,0.96,3.72,2.87,0.43,906.04,33.67
2572780,-0.04,-0.04,0.9,3.05,2.56,0.61,906.04,33.67
2572819,-0.04,-0.04,0.94,3.23,1.83,0.73,905.99,33.67
2572857,-0.01,-0.05,0.88,2.62,2.56,0.73,905.99,33.68
2572895,-0.03,-0.06,0.92,2.93,0.85,1.16,906.01,33.68
2572933,-0.03,-0.06,0.89,2.26,0.61,1.28,905.97,33.69
2572971,-0.05,-0.05,0.97,2.69,-0.73,1.65,905.95,33.68
2573009,-0.03,-0.05,0.95,2.44,0.24,1.4,905.99,33.69
2573047,-0.04,-0.05,0.91,2.44,-0.61,1.65,906.05,33.69
2573085,-0.05,-0.04,0.93,2.62,-0.61,1.71,905.98,33.7
2573124,-0.05,-0.06,0.88,2.5,-0.55,1.89,906.05,33.7
2573173,-0.04,-0.04,0.84,2.81,0.06,1.83,905.98,33.67
2573211,-0.03,-0.05,0.84,2.69,1.83,1.95,906.02,33.69
2573250,-0.05,-0.06,0.8,2.93,2.01,1.83,906.01,33.68
2573288,-0.05,-0.06,0.82,2.87,2.56,1.89,905.97,33.69
2573326,-0.04,-0.06,0.86,2.87,3.11,1.71,905.97,33.69
2573364,-0.06,-0.06,0.85,2.75,3.42,1.95,905.9,33.68
2573402,-0.05,-0.06,0.81,3.05,4.03,2.08,905.92,33.68
2573440,-0.05,-0.06,0.86,3.48,5.25,2.01,905.96,33.69
2573478,-0.04,-0.07,0.79,3.17,4.82,2.26,905.96,33.69
2573516,-0.06,-0.05,0.8,3.42,4.15,2.38,905.96,33.69
2573566,-0.07,-0.05,0.77,3.36,4.64,2.81,905.96,33.69
2573604,-0.04,-0.05,0.8,3.3,4.46,2.99,905.95,33.68
2573642,-0.07,-0.05,0.82,3.11,4.09,3.42,905.93,33.69
2573680,-0.06,-0.05,0.81,2.93,3.78,3.72,905.9,33.7
2573719,-0.09,-0.05,0.81,2.69,3.48,3.72,905.98,33.69
2573757,-0.04,-0.05,0.83,2.56,2.93,3.85,905.95,33.69
2573795,-0.05,-0.06,0.84,2.32,3.17,4.03,905.91,33.69
2573833,-0.05,-0.05,0.85,2.32,3.23,4.33,905.94,33.7
2573871,-0.06,-0.03,0.88,2.14,3.11,4.7,905.93,33.69
2573921,-0.05,-0.05,0.89,2.08,3.42,4.76,905.9,33.68
2573959,-0.03,-0.05,0.91,1.83,3.17,4.88,905.91,33.68
2573997,-0.04,-0.04,0.94,1.77,2.99,5.13,905.96,33.69
2574035,-0.04,-0.05,0.91,1.4,3.23,5.31,905.94,33.69
2574073,-0.04,-0.03,1.0,1.83,2.75,5.49,905.95,33.69
2574111,-0.05,-0.04,0.98,1.77,3.66,5.62,905.97,33.68
2574150,-0.05,-0.04,1.01,1.95,2.56,5.86,905.98,33.7
2574188,-0.03,-0.04,1.02,1.77,2.93,5.98,905.96,33.69
2574226,-0.02,-0.04,1.03,2.01,2.81,6.04,906.01,33.7
2574264,-0.02,-0.04,1.02,2.01,2.44,6.29,905.9,33.69
2574314,-0.03,-0.04,1.0,2.38,1.83,6.29,905.97,33.68
2574352,-0.04,-0.04,0.99,2.44,2.08,6.35,906.01,33.68
2574390,-0.04,-0.04,0.99,2.38,1.89,6.41,905.97,33.68
2574428,-0.03,-0.05,0.96,2.2,2.81,6.29,906.0,33.69
2574466,-0.02,-0.03,0.98,2.62,2.44,6.47,906.02,33.67
2574504,-0.02,-0.04,0.99,2.5,3.05,6.47,905.98,33.68
2574542,-0.02,-0.04,0.99,2.44,2.93,6.41,905.98,33.69
2574581,-0.05,-0.04,1.03,2.56,3.66,6.35,905.95,33.68
2574619,-0.01,-0.05,0.99,1.83,4.88,6.53,906.02,33.69
2574657,-0.02,-0.04,1.02,1.77,3.97,6.59,905.99,33.69
2574707,-0.02,-0.04,0.97,1.34,3.66,6.65,905.99,33.68
2574745,-0.01,-0.03,0.99,0.92,2.75,6.53,906.04,33.68
2574783,-0.01,-0.04,0.99,0.37,3.23,6.77,906.01,33.69
2574821,-0.02,-0.04,1.0,0.37,3.6,6.71,906.03,33.69
2574859,-0.03,-0.04,1.02,0.18,4.15,6.59,906.06,33.69
2574897,-0.01,-0.04,1.07,0.61,5.31,6.53,905.98,33.69
2574935,0.0,-0.04,1.06,0.79,6.41,6.53,906.04,33.69
2574973,-0.01,-0.04,1.02,1.22,6.71,6.16,906.03,33.7
2575012,-0.0,-0.05,0.99,1.77,8.24,6.35,906.02,33.68
2575087,-0.02,-0.04,0.89,2.2,8.18,6.16,906.01,33.65
2575125,0.0,-0.07,0.84,2.08,8.24,6.23,905.99,33.68
2575164,0.02,-0.06,0.88,2.5,8.12,5.74,906.0,33.67
2575253,0.01,-0.05,0.9,2.93,6.9,5.86,906.04,33.64
2575291,0.01,-0.05,0.9,3.17,6.96,5.74,906.0,33.65
2575329,0.01,-0.06,0.89,3.48,6.16,5.49,905.97,33.65
2575367,0.01,-0.05,0.85,3.48,5.8,5.49,905.95,33.66
2575405,0.02,-0.05,0.84,2.93,5.8,5.25,905.97,33.67
2575444,0.03,-0.04,0.87,2.44,5.19,5.13,905.98,33.66
2575482,0.01,-0.04,0.94,1.95,4.27,5.19,905.97,33.68
2575531,0.01,-0.03,1.05,1.59,2.75,5.0,905.89,33.67
2575570,0.01,-0.03,1.11,0.79,3.3,4.88,905.95,33.67
2575608,0.01,-0.04,1.13,0.67,1.71,4.88,905.92,33.67
2575646,-0.0,-0.03,1.13,0.61,1.77,4.82,905.97,33.67
2575684,0.02,-0.02,1.13,0.73,1.83,4.82,906.01,33.69
