timestamp,acc_x,acc_y,acc_z,rot_x,rot_y,rot_z,qfe,temp
5761518,-0.02,-0.09,0.92,0.55,3.54,-1.65,926.72,31.08
5761568,-0.04,-0.08,0.96,0.79,2.62,-1.65,926.73,31.07
5761606,-0.05,-0.09,0.99,1.1,2.26,-1.53,926.63,31.07
5761644,-0.05,-0.09,1.04,1.04,2.87,-1.71,926.67,31.08
5761682,-0.05,-0.09,1.11,0.85,4.39,-1.53,926.74,31.08
5761721,-0.04,-0.07,1.22,0.67,3.91,-1.71,926.69,31.08
5761759,-0.03,-0.09,1.28,0.79,6.16,-1.71,926.64,31.08
5761797,-0.02,-0.08,1.39,0.67,4.64,-1.65,926.58,31.08
5761835,-0.03,-0.03,1.58,1.1,3.11,-1.28,926.61,31.09
5761873,-0.03,-0.05,1.58,1.34,4.15,-1.1,926.61,31.09
5761923,-0.08,-0.05,1.56,1.04,0.98,-0.98,926.64,31.06
5761961,-0.08,-0.08,1.61,1.83,0.37,-0.79,926.61,31.07
5761999,-0.06,-0.1,1.41,2.14,3.11,-1.04,926.64,31.08
5762037,-0.04,-0.06,1.34,2.75,3.36,-1.1,926.63,31.08
5762075,-0.03,-0.07,1.23,3.17,3.11,-0.85,926.62,31.08
5762114,-0.07,-0.09,1.04,3.05,3.54,-0.92,926.64,31.09
5762152,-0.07,-0.08,1.05,3.11,4.27,-0.85,926.64,31.09
5762190,-0.05,-0.1,1.05,3.23,3.54,-0.85,926.6,31.08
5762228,-0.07,-0.09,1.06,3.11,3.48,-0.49,926.54,31.09
5762266,-0.05,-0.1,1.02,3.23,4.52,-0.61,926.62,31.09
5762316,-0.05,-0.09,1.05,3.23,4.15,-0.49,926.53,31.07
5762354,-0.04,-0.1,1.01,3.3,3.17,-0.12,926.52,31.09
5762392,-0.08,-0.09,0.97,3.11,2.26,-0.37,926.6,31.08
5762430,-0.09,-0.09,0.91,2.87,2.87,-0.18,926.48,31.08
5762468,-0.04,-0.1,0.91,2.93,3.23,-0.12,926.59,31.1
5762507,-0.06,-0.1,0.87,2.38,2.81,-0.06,926.52,31.08
5762545,-0.06,-0.1,0.81,2.2,3.85,0.18,926.56,31.09
5762583,-0.04,-0.09,0.85,2.44,3.48,0.0,926.49,31.09
5762621,-0.05,-0.09,0.81,1.89,3.36,0.37,926.49,31.08
5762671,-0.05,-0.1,0.87,2.08,2.56,0.49,926.46,31.07
5762709,-0.05,-0.1,0.82,1.89,4.58,0.31,925.79,31.08
5762747,-0.11,-0.1,0.96,3.66,1.16,0.49,925.13,31.08
5762785,-0.06,-0.15,0.84,1.53,3.54,0.31,927.14,31.08
5762823,-0.03,-0.12,0.87,1.65,2.14,0.06,928.09,31.09
5762861,-0.05,-0.21,0.81,0.73,8.06,0.37,928.55,31.08
5762900,-0.05,-0.2,0.6,0.37,4.94,0.31,928.97,31.09
5762938,-0.07,-0.12,0.78,2.38,1.89,0.06,928.96,31.09
5762976,0.02,-0.18,0.28,0.92,8.06,0.18,928.99,31.09
5763014,-0.04,-0.05,0.58,0.49,1.71,0.0,929.02,31.1
5763064,-0.02,-0.2,0.35,2.75,7.57,-0.18,929.13,31.08
5763102,-0.02,-0.13,0.44,1.71,0.49,0.0,929.1,31.09
5763140,-0.05,-0.17,0.42,2.01,5.31,-0.12,929.13,31.08
5763178,-0.01,-0.17,0.33,1.59,3.6,-0.12,929.07,31.1
5763216,-0.06,-0.17,0.45,0.12,2.5,0.12,929.08,31.08
5763254,-0.03,-0.18,0.46,-0.12,3.3,-0.06,929.13,31.1
5763292,-0.02,-0.19,0.53,0.12,0.31,-0.18,929.17,31.1
5763331,-0.01,-0.17,0.48,-0.67,3.36,-0.18,929.06,31.1
5763369,-0.03,-0.15,0.71,0.49,1.28,-0.06,929.14,31.11
5763444,-0.05,-0.16,0.8,0.67,-1.46,-0.31,928.97,31.05
5763483,-0.0,-0.19,0.85,0.55,2.2,-0.37,929.06,31.06
5763521,-0.04,-0.16,0.9,0.43,1.04,-0.37,928.93,31.08
5763610,-0.01,-0.18,0.98,1.65,2.75,-0.55,928.91,31.05
5763648,-0.02,-0.16,1.08,2.62,2.32,-0.92,929.02,31.05
5763686,-0.01,-0.15,0.91,3.42,3.05,-0.92,928.97,31.06
5763725,-0.04,-0.16,0.98,4.27,1.95,-0.92,929.04,31.06
5763763,-0.01,-0.14,0.92,4.15,1.53,-1.4,928.94,31.06
5763801,-0.04,-0.14,0.97,4.76,0.31,-1.71,928.94,31.07
5763839,-0.04,-0.16,1.0,4.94,0.31,-1.59,929.08,31.05
5763889,-0.02,-0.16,0.93,4.82,0.31,-1.83,929.03,31.05
5763927,-0.03,-0.16,0.9,4.27,-0.24,-1.83,929.01,31.05
5763965,-0.03,-0.16,0.93,4.88,0.79,-1.95,929.11,31.06
5764003,-0.04,-0.16,0.79,4.58,2.2,-2.14,929.04,31.06
5764041,-0.03,-0.16,0.81,5.31,2.2,-2.2,929.25,31.06
5764080,-0.02,-0.17,0.67,5.37,2.56,-2.14,929.18,31.06
5764118,-0.03,-0.16,0.7,5.31,2.14,-2.38,929.18,31.06
5764156,-0.06,-0.15,0.71,5.19,3.11,-2.44,929.12,31.06
5764194,-0.0,-0.2,0.69,4.46,2.32,-2.32,929.17,31.07
5764244,-0.06,-0.16,0.64,4.39,1.95,-2.44,929.21,31.05
5764282,-0.02,-0.18,0.66,3.3,2.62,-2.38,929.12,31.06
5764320,-0.06,-0.16,0.76,2.81,1.83,-2.56,929.14,31.04
5764358,-0.03,-0.18,0.76,2.26,2.26,-2.32,929.15,31.06
5764396,-0.02,-0.17,0.8,0.98,2.99,-2.32,929.08,31.05
5764435,-0.06,-0.15,0.82,1.16,2.81,-2.32,929.12,31.06
5764473,-0.06,-0.17,0.78,0.61,3.91,-2.14,929.2,31.06
5764511,-0.08,-0.15,0.85,1.28,2.81,-2.26,929.17,31.05
5764549,-0.07,-0.16,0.89,1.16,4.39,-2.14,929.2,31.06
5764587,-0.09,-0.14,0.88,1.4,3.48,-1.89,929.16,31.07
5764637,-0.04,-0.15,0.93,1.1,4.7,-1.83,929.26,31.04
5764675,-0.05,-0.16,0.93,1.34,4.33,-1.65,929.18,31.04
5764713,-0.08,-0.18,0.87,2.38,3.91,-1.77,929.18,31.06
5764751,-0.13,-0.15,0.88,3.48,2.26,-1.71,929.34,31.06
5764790,-0.09,-0.16,0.8,2.81,4.46,-1.1,929.3,31.07
5764828,-0.11,-0.13,0.91,3.85,1.83,-1.34,929.34,31.06
5764866,-0.1,-0.14,0.91,2.87,3.3,-1.34,929.24,31.05
5764904,-0.09,-0.17,0.91,2.44,5.19,-1.04,929.37,31.06
5764942,-0.09,-0.16,0.98,2.44,4.7,-0.67,929.39,31.05
5764992,-0.12,-0.17,0.94,3.97,4.39,-0.61,929.35,31.04
5765030,-0.11,-0.14,1.02,3.97,3.66,-0.49,929.43,31.05
5765068,-0.12,-0.19,0.91,4.46,4.76,-0.12,929.5,31.04
5765106,-0.06,-0.16,0.98,4.09,4.15,-0.06,929.46,31.05
5765144,-0.07,-0.17,0.92,4.39,5.37,0.12,929.45,31.06
5765183,-0.04,-0.16,0.84,4.33,4.21,0.24,929.53,31.06
5765221,-0.02,-0.17,0.95,3.85,4.58,0.55,929.54,31.05
5765259,-0.05,-0.19,0.85,3.23,4.52,0.55,929.5,31.05
5765297,-0.02,-0.16,0.87,2.5,5.43,0.98,929.6,31.05
5765335,-0.07,-0.19,0.8,2.87,7.14,1.1,929.55,31.05
5765385,-0.09,-0.18,0.84,0.92,4.82,1.34,929.52,31.03
5765423,-0.04,-0.21,0.82,0.79,5.25,1.34,929.61,31.04
5765461,-0.03,-0.2,0.83,0.12,3.91,1.34,929.67,31.05
5765500,-0.02,-0.16,0.89,-0.06,4.39,1.22,929.7,31.04
5765538,-0.03,-0.18,0.84,-1.16,3.91,1.28,929.67,31.04
5765576,-0.04,-0.15,0.95,-0.98,3.05,1.4,929.67,31.03
5765614,-0.01,-0.17,0.87,-1.16,4.15,1.04,929.76,31.03
5765652,-0.05,-0.15,0.9,-2.26,2.69,1.1,929.73,31.05
5765690,-0.01,-0.18,1.06,-1.95,1.83,0.79,929.74,31.04
5765740,-0.05,-0.14,1.06,-2.14,2.01,0.85,929.6,31.03
5765778,-0.03,-0.18,1.09,-1.22,1.46,0.73,929.74,31.04
5765817,-0.04,-0.15,1.24,-1.28,0.73,0.37,929.61,31.05
5765855,0.0,-0.13,1.18,-0.49,3.54,0.37,929.59,31.03
5765893,-0.01,-0.16,1.17,-0.85,5.68,0.12,929.76,31.03
5765931,-0.05,-0.15,1.15,0.31,5.07,-0.06,929.66,31.03
5765969,-0.04,-0.18,1.06,0.85,5.25,-0.24,929.73,31.04
5766007,-0.02,-0.2,1.05,1.59,6.59,-0.31,929.83,31.05
5766046,-0.03,-0.17,1.07,1.46,6.1,-0.24,929.87,31.03
5766084,-0.08,-0.16,1.03,1.95,4.58,-0.24,929.77,31.05
5766134,-0.03,-0.17,1.03,1.77,6.29,-0.55,929.75,31.03
5766172,-0.01,-0.14,1.07,2.08,4.27,-0.61,929.81,31.03
5766210,0.02,-0.17,1.08,1.95,4.94,-0.55,929.76,31.04
5766248,-0.01,-0.16,1.11,2.14,4.64,-0.79,929.65,31.02
5766286,-0.03,-0.18,1.01,0.79,6.65,-0.79,929.93,31.03
5766324,-0.01,-0.17,1.01,-0.67,6.35,-0.67,929.75,31.04
5766362,-0.04,-0.17,0.98,-0.61,6.71,-0.73,929.79,31.02
5766400,-0.06,-0.17,1.03,-0.73,7.51,-0.98,929.73,31.03
5766439,-0.05,-0.19,1.15,0.18,2.32,-1.04,929.84,31.03
5766514,0.01,-0.12,1.2,-1.46,7.26,-1.28,929.87,31.0
5766553,-0.02,-0.13,1.14,-0.49,8.73,-1.46,929.99,31.02
5766591,-0.02,-0.17,1.14,-0.61,7.69,-1.53,929.9,31.02
5766680,-0.03,-0.18,1.11,0.12,8.48,-1.59,929.88,30.99
5766718,0.01,-0.17,1.12,0.12,7.93,-1.59,929.93,31.01
5766757,-0.02,-0.13,1.16,0.37,6.71,-1.71,929.93,31.01
5766795,-0.02,-0.16,1.18,0.92,4.64,-1.83,929.92,31.01
5766833,-0.03,-0.15,1.17,1.16,5.43,-1.71,929.85,31.02
5766871,-0.01,-0.15,1.15,1.89,4.27,-1.89,929.92,31.03
5766909,-0.01,-0.16,1.18,1.59,6.35,-1.89,929.88,31.0
5766959,-0.02,-0.17,1.15,1.1,5.98,-1.89,929.88,31.01
5766997,-0.05,-0.17,1.1,1.65,6.84,-1.83,929.91,31.01
5767035,0.0,-0.16,1.01,1.4,8.24,-1.83,930.0,31.01
5767073,-0.01,-0.14,1.05,1.65,5.92,-1.95,929.9,31.02
5767112,-0.09,-0.15,0.99,2.01,6.41,-1.89,930.04,31.02
5767150,-0.04,-0.16,1.02,2.38,4.15,-1.95,930.15,31.03
5767188,-0.01,-0.14,1.02,1.34,6.47,-1.89,930.04,31.03
5767226,-0.01,-0.17,1.05,1.22,7.63,-1.89,930.1,31.03
5767264,-0.04,-0.14,0.95,1.89,7.69,-1.89,929.88,31.01
5767314,-0.05,-0.17,1.04,1.22,8.36,-1.83,930.05,31.01
5767352,0.02,-0.17,1.01,-0.18,10.13,-1.65,930.05,31.02
5767390,-0.05,-0.16,1.01,0.31,9.09,-1.65,930.08,31.02
5767428,-0.03,-0.14,1.04,0.31,8.79,-1.71,929.99,31.01
5767467,-0.06,-0.13,1.08,0.85,7.39,-1.53,929.94,31.01
5767505,-0.04,-0.15,1.1,0.49,7.39,-1.46,930.05,31.03
5767543,-0.02,-0.16,1.08,1.77,6.1,-1.53,929.98,31.02
5767581,-0.05,-0.16,1.11,2.26,6.35,-1.4,930.1,31.02
5767619,-0.02,-0.15,1.07,1.65,7.87,-1.1,930.02,31.02
5767657,-0.05,-0.14,1.03,1.4,7.75,-1.1,929.98,31.03
5767707,-0.04,-0.16,0.97,2.32,7.51,-1.04,930.04,31.0
5767745,-0.05,-0.16,1.0,1.95,6.16,-0.85,930.07,31.01
5767783,-0.06,-0.17,0.98,1.53,5.68,-0.61,930.17,31.02
5767821,-0.03,-0.15,0.92,1.83,4.52,-0.61,930.07,31.02
5767860,-0.07,-0.18,0.92,1.1,6.16,-0.43,930.26,31.02
5767898,0.01,-0.17,0.89,0.85,5.49,-0.49,930.12,31.02
5767936,-0.05,-0.16,0.82,1.04,5.86,-0.61,930.15,31.02
5767974,-0.07,-0.15,0.76,1.4,5.37,-0.49,930.33,31.03
5768012,-0.01,-0.15,0.82,1.77,4.21,-0.67,930.2,31.03
5768062,-0.06,-0.17,0.75,1.89,5.19,-0.79,930.16,31.01
5768100,-0.03,-0.16,0.76,1.59,5.25,-0.61,930.18,31.01
5768138,-0.0,-0.16,0.75,1.89,5.68,-0.67,930.25,31.03
5768176,-0.02,-0.15,0.73,1.83,4.58,-0.55,930.32,31.02
5768214,-0.02,-0.18,0.77,2.26,4.27,-0.67,930.32,31.03
5768253,-0.05,-0.16,0.75,2.62,3.23,-0.85,930.22,31.02
5768291,0.0,-0.16,0.78,1.89,3.17,-0.73,930.31,31.02
5768329,-0.01,-0.17,0.75,0.98,5.43,-0.61,930.26,31.02
5768367,-0.06,-0.19,0.79,1.65,5.8,-0.67,930.23,31.01
5768405,-0.05,-0.16,0.83,2.38,2.26,-0.67,930.27,31.03
5768455,-0.08,-0.16,0.76,1.16,4.76,-0.67,930.3,31.0
5768493,-0.06,-0.17,0.83,2.01,3.85,-0.73,930.3,31.02
5768531,-0.04,-0.16,0.88,2.93,3.23,-0.85,930.46,31.02
5768570,-0.05,-0.16,0.84,2.75,3.6,-0.98,930.38,31.01
5768608,-0.03,-0.16,0.82,2.32,4.15,-0.85,930.33,31.01
5768646,-0.06,-0.16,0.79,2.26,4.46,-0.92,930.44,31.02
5768684,-0.04,-0.16,0.76,1.53,4.82,-0.92,930.47,31.02
5768722,-0.04,-0.16,0.84,2.26,3.48,-1.04,930.42,31.01
5768760,-0.04,-0.18,0.84,1.77,3.3,-0.98,930.4,31.01
5768810,-0.01,-0.14,0.88,1.1,3.66,-1.04,930.46,31.0
5768848,-0.02,-0.15,0.89,1.53,4.7,-1.04,930.44,31.01
5768886,-0.06,-0.16,0.86,1.95,3.66,-0.79,930.52,31.01
5768924,-0.09,-0.17,0.89,2.26,1.71,-1.04,930.47,31.01
5768962,-0.02,-0.13,0.88,1.28,3.23,-0.85,930.65,31.01
5769001,-0.04,-0.15,0.86,1.4,2.38,-0.67,930.7,31.01
5769039,-0.03,-0.18,0.82,1.77,1.71,-0.79,930.49,31.01
5769077,-0.06,-0.18,0.81,1.53,1.71,-0.79,930.59,31.0
5769115,-0.04,-0.17,0.82,1.71,0.49,-0.79,930.77,31.01
5769153,-0.05,-0.17,0.78,1.04,2.5,-0.67,930.73,31.01
5769203,-0.04,-0.16,0.85,1.83,1.53,-0.79,930.66,31.0
5769241,-0.05,-0.17,0.92,2.2,2.01,-0.67,930.59,30.99
5769279,-0.04,-0.18,0.9,2.62,2.44,-0.85,930.68,31.02
5769317,-0.05,-0.17,0.94,2.08,3.6,-0.85,930.69,31.0
5769355,-0.07,-0.16,0.93,2.01,3.48,-0.73,930.7,31.0
5769394,-0.03,-0.17,0.87,2.2,3.72,-0.79,930.77,31.0
5769432,-0.03,-0.16,0.93,2.5,4.64,-0.85,930.8,31.01
5769470,-0.06,-0.2,0.87,3.23,6.04,-0.61,930.82,31.0
5769508,-0.01,-0.18,0.85,3.42,4.7,-0.85,930.8,31.0
5769584,-0.03,-0.17,0.82,2.93,5.68,-0.67,930.84,30.97
5769622,-0.05,-0.16,0.83,3.11,5.55,-0.79,930.88,30.98
5769660,-0.04,-0.18,0.77,4.03,5.07,-0.85,930.85,30.98
5769749,-0.03,-0.16,0.78,2.93,6.04,-0.85,930.94,30.97
5769788,0.01,-0.17,0.81,2.75,5.92,-0.92,930.95,30.97
5769826,-0.05,-0.17,0.85,2.99,4.88,-0.92,930.87,30.99
5769864,-0.07,-0.18,0.86,2.14,4.52,-1.04,930.97,30.99
5769902,-0.0,-0.16,0.93,2.14,3.17,-1.04,930.98,30.98
5769940,-0.0,-0.18,0.85,2.69,4.88,-1.1,930.93,30.99
5769978,-0.05,-0.16,0.93,2.26,4.88,-1.1,931.06,30.99
5770028,-0.09,-0.17,0.86,2.93,3.97,-1.22,931.14,30.97
5770066,-0.04,-0.16,0.93,2.56,2.75,-1.16,931.13,30.99
5770104,0.02,-0.17,0.95,2.5,3.6,-1.4,931.17,30.98
5770142,-0.03,-0.16,0.94,2.62,3.72,-1.28,931.18,30.97
5770180,-0.05,-0.18,0.93,2.44,5.68,-1.22,931.13,30.98
5770219,-0.05,-0.17,0.96,2.32,3.36,-1.16,931.26,30.99
5770257,0.01,-0.18,0.97,2.44,4.33,-1.16,931.23,30.98
5770295,-0.05,-0.16,0.97,3.23,4.82,-1.22,931.35,31.0
5770333,-0.09,-0.17,0.98,3.11,3.72,-1.16,931.38,30.99
5770383,-0.04,-0.17,0.96,3.17,4.46,-1.4,931.33,30.98
5770421,0.0,-0.18,1.01,2.14,6.04,-1.16,931.43,30.98
5770459,0.01,-0.17,0.96,2.75,5.92,-1.1,931.31,30.99
5770497,-0.04,-0.16,0.97,2.81,5.07,-1.4,931.43,31.0
5770535,-0.04,-0.18,0.86,2.99,3.72,-1.22,931.48,30.99
5770573,-0.0,-0.18,0.95,1.53,4.39,-0.92,931.51,31.0
5770611,-0.01,-0.18,0.87,1.53,4.82,-1.04,931.61,31.0
5770650,-0.06,-0.18,0.86,2.14,3.48,-1.1,931.48,30.99
5770688,-0.03,-0.17,0.9,1.95,1.53,-0.98,931.53,31.0
5770726,-0.01,-0.21,0.89,0.92,1.77,-1.28,931.54,31.0
5770776,0.01,-0.16,0.91,1.95,1.65,-1.28,931.68,30.99
5770814,-0.06,-0.21,0.87,1.77,2.56,-1.46,931.63,30.99
5770852,-0.09,-0.18,0.93,0.73,2.5,-1.65,931.73,30.99
5770890,-0.03,-0.18,0.83,0.49,2.44,-1.65,931.65,31.0
5770928,-0.02,-0.17,0.88,0.18,3.97,-1.59,931.77,30.99
5770966,-0.05,-0.18,0.84,0.98,5.8,-1.65,931.78,30.99
5771004,-0.06,-0.18,0.8,1.65,2.99,-2.01,931.8,30.98
5771043,-0.06,-0.18,0.83,1.1,3.54,-1.77,931.91,31.01
5771081,0.01,-0.16,0.85,1.28,3.72,-1.77,931.78,30.99
5771130,-0.04,-0.18,0.83,1.4,4.03,-1.71,932.01,30.99
5771169,-0.04,-0.15,0.85,1.16,3.48,-1.53,931.84,30.99
5771207,-0.05,-0.19,0.88,1.46,3.66,-1.53,932.14,30.99
5771245,-0.06,-0.17,0.85,1.1,3.23,-1.65,932.05,31.0
5771283,-0.04,-0.17,0.88,1.28,2.99,-1.53,932.12,30.99
5771321,-0.08,-0.18,0.82,1.22,4.58,-1.4,932.09,30.99
5771359,-0.04,-0.19,0.87,1.65,3.66,-1.28,932.04,30.99
5771397,-0.07,-0.19,0.88,1.4,3.42,-1.22,932.08,30.99
5771436,-0.08,-0.18,0.89,1.28,2.5,-0.98,932.15,30.99
5771474,-0.03,-0.18,0.91,1.53,2.69,-0.85,932.28,30.98
5771523,-0.04,-0.18,0.93,1.59,1.34,-0.92,932.21,30.98
5771562,-0.04,-0.17,1.01,2.08,3.11,-0.79,932.17,30.96
5771600,-0.05,-0.17,0.91,2.01,3.11,-0.92,932.31,30.98
5771638,-0.1,-0.18,0.93,2.26,3.36,-0.85,932.18,30.98
5771676,-0.08,-0.18,0.93,0.79,3.36,-0.73,932.3,30.98
5771714,-0.05,-0.18,0.98,1.04,2.01,-0.61,932.4,30.98
5771752,-0.0,-0.19,0.98,0.98,3.23,-0.67,932.35,30.99
5771790,-0.07,-0.18,0.94,0.92,3.05,-0.67,932.27,30.98
5771828,-0.02,-0.18,0.98,0.61,2.99,-0.49,932.44,30.98
5771878,-0.04,-0.19,1.03,0.67,1.95,-0.49,932.35,30.97
5771916,-0.0,-0.18,1.05,0.92,2.62,-0.49,932.4,30.99
5771954,-0.01,-0.18,1.03,0.92,3.6,-0.43,932.33,30.97
5771993,-0.07,-0.18,1.04,1.1,1.28,-0.55,932.36,30.99
5772031,-0.05,-0.17,1.0,0.61,1.1,-0.49,932.45,30.98
5772069,-0.01,-0.16,1.04,0.61,0.73,-0.67,932.51,30.99
5772107,-0.02,-0.16,1.0,0.79,0.92,-0.61,932.5,30.99
5772145,-0.04,-0.2,1.01,0.06,2.32,-0.79,932.49,30.98
5772183,-0.03,-0.18,1.01,0.61,0.55,-0.98,932.7,31.0
5772221,-0.04,-0.17,1.04,1.46,-1.65,-0.79,932.69,30.98
5772271,-0.03,-0.17,0.99,1.22,-0.18,-1.1,932.66,30.97
5772309,-0.02,-0.16,0.96,1.28,0.67,-1.22,932.59,31.0
5772348,-0.04,-0.17,0.93,1.46,2.87,-1.16,932.73,31.0
5772386,-0.02,-0.18,0.91,1.28,0.85,-1.28,932.76,31.0
5772424,-0.03,-0.15,0.92,0.43,2.14,-1.4,932.88,31.0
5772462,-0.03,-0.19,0.92,0.43,3.23,-1.28,932.85,31.0
5772500,-0.04,-0.18,1.0,0.85,2.87,-1.53,932.86,31.01
5772538,-0.06,-0.19,0.98,1.22,2.38,-1.53,932.84,31.0
5772576,-0.06,-0.17,0.94,0.37,2.26,-1.59,932.85,31.0
5772725,-0.04,-0.16,0.99,0.61,2.26,-1.46,933.07,30.94
5772763,-0.04,-0.16,0.98,0.06,3.85,-1.28,933.1,30.96
5772802,-0.01,-0.2,1.0,1.1,3.17,-1.65,933.0,30.95
5772891,-0.09,-0.19,0.99,0.79,3.23,-1.22,933.21,30.94
5772929,-0.06,-0.16,0.98,0.24,2.01,-1.46,933.11,30.95
5772967,-0.04,-0.17,1.06,-0.12,2.81,-1.16,933.25,30.95
5773005,-0.04,-0.17,1.03,0.06,2.99,-1.34,933.3,30.95
5773044,-0.05,-0.15,0.98,1.22,2.81,-1.65,933.17,30.96
5773082,-0.08,-0.17,1.03,1.22,2.2,-1.59,933.3,30.96
5773132,-0.07,-0.16,1.04,0.67,1.95,-1.59,933.44,30.96
5773170,-0.0,-0.16,0.98,0.85,2.87,-1.71,933.4,30.96
5773208,-0.04,-0.17,1.0,0.73,5.49,-1.59,933.45,30.98
5773246,-0.06,-0.14,1.0,0.49,6.29,-1.28,933.4,30.96
5773284,-0.06,-0.18,1.02,0.73,4.09,-1.22,933.36,30.97
5773322,-0.04,-0.15,1.08,0.85,4.39,-1.4,933.43,30.98
5773361,-0.07,-0.2,1.04,1.04,6.04,-1.28,933.54,30.98
5773399,-0.08,-0.18,1.0,2.14,3.91,-1.34,933.51,30.96
5773437,-0.06,-0.18,0.93,1.89,2.81,-1.16,933.59,30.97
5773475,-0.05,-0.15,0.94,1.95,3.66,-1.1,933.53,30.96
5773525,-0.03,-0.14,0.86,2.08,4.64,-0.79,933.77,30.96
5773563,-0.12,-0.19,0.9,2.99,2.62,-0.85,933.68,30.96
5773601,-0.08,-0.18,0.87,2.26,1.65,-0.55,933.83,30.96
5773639,-0.08,-0.16,0.85,2.2,2.08,-0.49,933.92,30.96
5773677,-0.08,-0.18,0.9,2.56,2.2,-0.37,933.9,30.96
5773715,-0.08,-0.17,0.92,2.08,0.49,0.06,934.0,30.96
5773754,-0.05,-0.18,0.87,2.14,2.01,0.06,933.89,30.97
5773792,-0.09,-0.18,0.86,2.14,2.01,0.24,933.97,30.96
5773830,-0.06,-0.19,0.92,2.44,-0.67,0.12,934.04,30.95
5773880,-0.05,-0.2,0.98,2.69,-1.34,0.43,934.05,30.95
5773918,0.0,-0.19,0.86,2.32,0.98,0.06,934.09,30.97
5773956,-0.02,-0.16,0.93,1.71,2.08,0.18,934.17,30.97
5773994,-0.06,-0.19,0.91,1.65,2.5,0.06,934.15,30.96
5774032,-0.08,-0.2,0.89,2.01,-0.18,0.0,934.24,30.97
5774070,-0.06,-0.15,0.93,0.92,0.61,0.24,934.34,30.97
5774108,-0.03,-0.21,0.9,1.53,0.0,0.06,934.37,30.99
5774146,-0.03,-0.19,0.97,0.85,0.61,0.12,934.31,30.97
5774185,-0.06,-0.17,0.9,0.92,2.2,0.31,934.49,30.97
5774223,-0.06,-0.18,0.88,0.49,2.2,0.12,934.3,30.97
5774273,-0.08,-0.17,0.92,0.18,2.2,-0.06,934.49,30.97
5774311,-0.0,-0.18,0.96,0.43,1.16,0.18,934.56,30.98
5774349,0.02,-0.19,0.93,-0.18,2.75,-0.12,934.44,30.97
5774387,-0.04,-0.18,0.97,0.55,2.99,-0.24,934.59,30.98
5774425,-0.02,-0.19,0.98,1.1,-0.12,-0.31,934.46,30.98
5774463,0.02,-0.2,1.07,0.31,1.22,-0.18,934.61,30.98
5774501,-0.02,-0.18,1.02,0.31,2.26,-0.31,934.57,30.99
5774540,-0.07,-0.17,1.06,1.1,1.46,-0.49,934.48,30.98
5774578,0.01,-0.18,1.04,0.85,0.73,-0.43,934.54,30.97
5774616,-0.02,-0.15,1.15,0.55,-0.49,-0.55,934.55,30.99
5774666,-0.02,-0.13,1.13,0.67,0.79,-0.61,934.57,30.96
5774704,-0.02,-0.16,1.2,1.34,2.44,-0.73,934.59,30.98
5774742,-0.03,-0.18,1.26,1.59,2.93,-0.79,934.64,30.98
5774780,-0.05,-0.16,1.34,1.46,1.22,-0.73,934.47,30.98
5774818,-0.03,-0.15,1.3,1.53,4.64,-0.85,934.58,30.96
5774856,-0.01,-0.17,1.34,2.56,2.38,-1.1,934.73,30.96
5774895,-0.04,-0.13,1.26,2.26,1.59,-1.04,934.86,30.97
5774933,-0.01,-0.13,1.16,2.26,1.59,-1.28,934.77,30.98
5774971,0.02,-0.2,1.14,3.42,5.49,-1.34,934.86,30.98
5775021,-0.02,-0.17,1.13,3.3,2.69,-1.46,934.95,30.96
5775059,-0.02,-0.16,1.05,3.6,3.3,-1.65,934.93,30.97
5775097,0.01,-0.15,1.03,3.36,2.93,-1.89,934.84,30.98
5775135,-0.01,-0.18,1.04,3.42,4.15,-1.89,934.96,30.96
5775173,-0.06,-0.2,0.94,3.6,3.3,-1.95,935.03,30.96
5775211,0.01,-0.16,1.04,2.62,3.42,-2.08,935.05,30.97
5775249,-0.01,-0.16,0.94,2.99,4.21,-2.26,935.0,30.97
5775288,-0.02,-0.18,0.93,2.75,1.59,-2.32,935.05,30.98
5775326,0.04,-0.18,0.97,2.81,4.21,-2.26,935.22,30.97
5775364,-0.03,-0.19,0.85,3.17,4.46,-2.69,935.21,30.98
5775414,-0.02,-0.16,0.91,1.59,5.07,-2.44,935.3,30.96
5775452,-0.03,-0.18,0.9,1.83,3.66,-2.62,935.17,30.97
5775490,-0.02,-0.2,0.94,2.01,2.93,-2.75,935.35,30.97
5775528,-0.05,-0.19,0.89,2.56,3.78,-2.69,935.3,30.97
5775566,-0.04,-0.16,0.91,2.08,2.62,-2.75,935.36,30.96
5775604,-0.02,-0.14,0.92,1.1,3.66,-2.87,935.34,30.96
5775643,0.0,-0.19,0.96,1.59,3.66,-2.44,935.26,30.98
5775681,-0.07,-0.17,0.99,0.49,3.72,-2.38,935.38,30.96
5775719,-0.06,-0.16,0.96,1.89,2.2,-2.56,935.45,30.96
5775795,-0.0,-0.15,1.0,1.04,3.97,-2.44,935.47,30.93
5775833,-0.07,-0.18,1.06,1.4,4.46,-2.81,935.55,30.95
5775871,-0.09,-0.19,1.01,2.44,1.77,-2.62,935.51,30.94
5775960,-0.06,-0.16,1.01,2.14,3.05,-2.38,935.76,30.91
5775999,-0.01,-0.21,0.85,2.32,2.26,-2.44,935.73,30.93
5776037,-0.06,-0.15,1.0,2.01,3.3,-2.69,935.82,30.92
5776075,-0.08,-0.19,0.92,2.14,2.44,-2.5,935.85,30.93
5776113,-0.0,-0.16,1.0,1.65,1.04,-2.14,935.79,30.94
5776151,-0.03,-0.16,1.0,2.2,3.54,-2.38,935.8,30.94
5776189,-0.13,-0.17,0.87,2.2,2.62,-2.2,935.87,30.93
5776239,-0.07,-0.19,0.9,2.56,2.87,-2.08,935.95,30.92
5776277,-0.11,-0.18,0.78,1.77,0.49,-2.08,936.05,30.94
5776315,-0.08,-0.13,0.83,2.01,0.73,-1.77,935.94,30.94
5776353,-0.07,-0.17,0.78,1.22,3.72,-1.46,936.02,30.93
5776392,-0.09,-0.17,0.8,1.59,2.08,-1.53,935.96,30.93
5776430,-0.13,-0.17,0.77,1.4,2.44,-1.16,936.07,30.95
5776468,-0.05,-0.16,0.82,1.65,1.77,-1.04,936.04,30.95
5776506,-0.05,-0.18,0.88,2.38,1.83,-0.98,936.05,30.94
5776544,-0.12,-0.17,0.79,2.14,1.53,-0.85,936.23,30.95
5776594,-0.12,-0.16,0.8,1.4,1.4,-0.43,936.21,30.94
5776632,-0.08,-0.18,0.8,1.46,1.46,-0.43,936.28,30.94
5776670,-0.09,-0.15,0.8,1.28,0.85,-0.31,936.24,30.94
5776708,-0.1,-0.17,0.86,1.1,2.14,0.06,936.37,30.95
5776746,-0.07,-0.19,0.87,1.77,1.71,15.5,936.18,30.94
5776785,-0.07,-0.17,0.95,0.79,2.81,0.18,936.32,30.95
5776823,-0.05,-0.16,0.96,1.34,2.2,0.49,936.46,30.95
5776861,-0.08,-0.16,0.99,1.28,1.22,0.61,936.43,30.94
5776899,-0.07,-0.17,1.0,1.46,0.67,0.85,936.41,30.94
5776937,-0.07,-0.18,1.06,0.67,1.83,0.73,936.55,30.94
5776987,-0.07,-0.15,0.98,1.22,1.04,1.04,936.45,30.92
5777025,-0.13,-0.17,1.01,1.46,-0.55,0.98,936.59,30.93
5777063,-0.09,-0.19,1.01,1.59,-1.83,1.04,936.59,30.95
5777101,-0.05,-0.17,1.02,0.06,0.06,1.46,936.66,30.94
5777139,-0.05,-0.14,0.99,0.37,2.38,1.59,936.6,30.95
5777177,-0.07,-0.16,0.95,0.61,1.89,1.34,936.59,30.95
5777216,-0.05,-0.15,1.0,0.24,1.59,1.28,936.63,30.94
5777254,-0.06,-0.18,1.0,1.16,1.65,1.28,936.75,30.95
5777292,-0.06,-0.18,0.97,1.04,3.11,1.46,936.82,30.96
5777342,-0.08,-0.17,1.01,0.85,4.21,1.22,936.76,30.94
5777380,-0.04,-0.17,1.11,1.16,3.3,1.65,936.9,30.96
5777418,-0.05,-0.17,1.03,1.59,2.81,1.4,936.84,30.95
5777456,-0.05,-0.13,1.04,0.73,3.54,1.4,936.82,30.94
5777494,-0.06,-0.16,1.04,0.92,4.88,1.65,936.91,30.95
5777532,-0.02,-0.16,1.02,1.46,4.82,1.83,936.88,30.94
5777570,-0.11,-0.16,1.01,2.26,6.41,1.65,936.94,30.94
5777609,-0.08,-0.18,0.95,2.62,3.91,1.77,937.13,30.95
5777647,-0.03,-0.16,1.01,2.2,3.6,1.95,937.06,30.93
5777685,-0.04,-0.16,0.91,2.5,5.98,1.4,937.17,30.94
5777735,-0.03,-0.16,0.98,2.2,5.37,1.95,937.17,30.93
5777773,-0.04,-0.19,0.95,2.44,3.78,1.59,937.15,30.95
5777811,-0.09,-0.16,0.98,1.59,0.61,1.77,937.3,30.95
5777849,-0.02,-0.17,0.92,1.83,1.65,1.95,937.32,30.94
5777887,-0.02,-0.16,0.9,1.65,2.38,1.89,937.37,30.95
5777925,-0.07,-0.19,0.91,2.38,1.22,1.65,937.37,30.94
5777964,-0.07,-0.18,0.89,1.59,1.1,1.89,937.25,30.94
5778002,-0.04,-0.17,0.97,1.34,0.79,1.65,937.37,30.94
5778040,-0.02,-0.17,0.96,1.28,1.89,1.53,937.47,30.94
5778078,-0.04,-0.18,0.98,1.1,1.83,1.53,937.44,30.94
5778128,-0.05,-0.17,0.98,1.65,2.2,1.4,937.49,30.95
5778166,-0.04,-0.16,1.0,1.1,1.89,1.22,937.66,30.94
5778204,-0.05,-0.18,1.02,1.83,1.4,1.28,937.49,30.95
5778242,-0.03,-0.16,0.97,1.28,2.75,1.22,937.73,30.95
5778280,-0.05,-0.19,0.98,2.01,2.99,1.04,937.66,30.94
5778319,-0.03,-0.17,1.0,1.83,2.08,0.79,937.71,30.95
5778357,-0.03,-0.14,1.03,1.71,2.44,0.85,937.78,30.94
5778395,-0.01,-0.16,1.01,1.89,3.48,0.98,937.61,30.96
5778433,-0.09,-0.17,1.06,1.71,3.72,0.61,937.7,30.95
5778483,-0.04,-0.17,1.0,1.95,4.88,0.61,937.82,30.93
5778521,-0.08,-0.19,1.01,2.75,2.99,0.49,937.84,30.94
5778559,-0.04,-0.14,1.01,2.2,4.09,0.55,937.85,30.95
5778597,-0.0,-0.17,1.01,2.38,4.46,0.49,937.76,30.94
5778635,-0.1,-0.15,0.97,2.62,5.31,0.37,937.83,30.93
5778673,-0.08,-0.15,1.0,2.69,4.52,0.49,937.85,30.95
5778712,-0.04,-0.16,1.03,2.56,5.43,0.55,937.93,30.95
5778750,-0.03,-0.16,1.0,2.93,5.37,0.43,937.99,30.94
5778788,-0.07,-0.17,0.96,2.08,8.06,0.55,938.08,30.95
5778826,-0.07,-0.17,0.88,2.38,5.92,0.61,937.93,30.94
5778902,-0.02,-0.17,0.93,2.87,5.8,0.61,938.23,30.92
5778940,-0.08,-0.19,0.92,2.32,6.04,0.85,938.21,30.92
5778978,-0.05,-0.16,0.88,2.08,5.68,0.85,938.23,30.93
5779068,-0.03,-0.15,0.92,1.59,4.7,0.73,938.37,30.9
5779106,-0.01,-0.19,0.85,1.28,6.59,0.92,938.42,30.91
5779144,-0.01,-0.17,0.94,1.53,3.48,0.67,938.36,30.92
5779182,-0.02,-0.17,0.96,1.04,4.09,0.79,938.4,30.92
5779220,-0.05,-0.17,0.99,1.28,3.17,0.85,938.56,30.92
5779258,-0.05,-0.16,1.05,0.85,4.03,0.92,938.38,30.93
5779297,-0.05,-0.18,1.03,0.85,3.36,0.92,938.39,30.92
5779346,-0.04,-0.15,1.06,0.98,2.75,0.67,938.61,30.91
5779384,0.01,-0.16,1.02,1.53,2.56,0.73,938.65,30.92
5779423,-0.01,-0.16,1.06,1.4,2.56,0.79,938.55,30.93
5779461,-0.06,-0.17,0.95,1.22,4.58,0.61,938.63,30.93
5779499,-0.07,-0.16,0.98,1.65,2.08,0.43,938.59,30.94
5779537,-0.01,-0.15,1.03,1.65,3.54,0.43,938.77,30.94
5779575,-0.02,-0.16,0.97,1.65,4.76,0.18,938.73,30.93
5779613,-0.06,-0.17,0.99,2.26,4.58,0.0,938.76,30.92
5779651,-0.01,-0.16,0.98,2.2,3.3,0.18,938.72,30.93
5779701,-0.04,-0.15,1.05,1.1,4.09,0.06,938.71,30.92
5779739,-0.02,-0.13,0.99,1.04,5.68,0.0,938.81,30.91
5779777,-0.05,-0.14,1.02,1.46,6.77,0.18,938.76,30.93
5779815,-0.08,-0.16,1.03,2.14,4.76,-0.18,938.81,30.91
5779853,-0.02,-0.17,1.07,2.08,2.38,-0.31,938.91,30.92
5779892,-0.01,-0.16,1.07,1.71,5.25,0.0,939.06,30.93
5779930,-0.06,-0.16,1.1,1.83,4.76,0.24,938.85,30.94
5779968,-0.07,-0.15,1.14,1.46,3.05,0.06,938.99,30.92
5780006,-0.01,-0.14,1.09,1.59,0.67,0.12,938.93,30.92
5780044,-0.05,-0.17,1.22,1.16,4.46,0.18,939.08,30.92
5780094,-0.02,-0.18,1.11,1.83,4.64,-0.18,939.02,30.92
5780132,-0.07,-0.14,1.16,2.38,3.97,-0.31,939.05,30.92
5780170,-0.02,-0.15,1.15,2.81,2.14,-0.37,939.21,30.93
5780208,-0.02,-0.18,1.12,2.75,2.32,-0.24,939.21,30.94
5780246,-0.02,-0.16,1.11,2.56,6.04,-0.24,939.06,30.93
5780285,-0.07,-0.17,1.07,2.75,4.88,-0.37,939.12,30.93
5780323,-0.07,-0.17,1.14,2.81,2.08,-0.49,939.35,30.93
5780361,0.01,-0.16,1.04,2.26,5.19,-0.31,939.38,30.94
5780399,-0.04,-0.17,0.99,2.75,6.65,-0.49,939.38,30.93
5780449,-0.08,-0.18,1.0,3.23,5.55,-0.55,939.53,30.93
5780487,-0.04,-0.17,1.05,2.32,4.76,-0.43,939.43,30.92
5780525,-0.05,-0.17,1.0,1.95,6.96,-0.67,939.51,30.92
5780563,-0.03,-0.15,1.08,2.38,6.1,-0.61,939.43,30.92
5780601,-0.04,-0.17,1.08,2.26,7.02,-0.43,939.4,30.92
5780640,-0.03,-0.16,1.04,1.1,7.81,-0.37,939.55,30.92
5780678,-0.02,-0.14,1.13,2.2,5.92,-0.31,939.51,30.92
5780716,-0.03,-0.18,1.05,2.44,7.32,-0.31,939.7,30.92
5780754,-0.04,-0.18,1.06,1.89,5.86,-0.24,939.65,30.92
5780792,-0.07,-0.18,1.06,2.69,5.43,-0.37,939.85,30.94
5780842,-0.03,-0.16,1.04,2.14,4.39,-0.31,939.84,30.91
5780880,-0.0,-0.13,1.06,2.01,4.27,-0.43,939.75,30.92
5780918,-0.0,-0.16,1.03,1.16,4.09,-0.24,939.73,30.92
5780956,-0.04,-0.19,1.08,1.4,3.97,-0.18,939.74,30.92
5780995,-0.06,-0.17,1.05,1.04,5.0,-0.37,939.87,30.93
5781033,-0.02,-0.17,1.14,0.55,2.44,-0.31,939.93,30.93
5781071,0.02,-0.14,1.1,-0.12,4.94,-0.31,939.87,30.93
5781109,-0.04,-0.14,1.11,1.04,5.07,-0.31,939.92,30.94
5781147,-0.03,-0.19,1.09,1.34,4.39,-0.31,939.96,30.93
5781197,-0.07,-0.14,1.17,0.67,4.03,-0.18,939.84,30.91
5781235,-0.01,-0.17,1.24,0.61,3.42,-0.18,940.0,30.93
5781273,-0.03,-0.15,1.17,0.55,4.94,-0.31,939.81,30.92
5781311,-0.05,-0.19,1.18,1.71,5.49,-0.43,940.03,30.94
5781350,-0.03,-0.17,1.24,0.98,3.3,-0.31,939.97,30.92
5781388,-0.03,-0.15,1.21,0.18,3.48,-0.12,940.17,30.94
5781426,-0.05,-0.14,1.15,0.0,4.82,-0.18,940.23,30.94
5781464,-0.06,-0.13,1.17,0.73,5.68,-0.31,940.15,30.92
5781502,-0.03,-0.17,1.23,2.26,4.21,-0.49,940.19,30.93
5781540,0.0,-0.17,1.18,1.77,6.29,-0.61,940.27,30.91
5781590,-0.06,-0.15,1.06,1.71,7.08,-0.55,940.54,30.91
5781628,-0.02,-0.16,1.02,2.32,6.9,-0.49,940.6,30.92
5781666,0.02,-0.19,0.97,2.75,4.82,-0.49,940.55,30.92
5781704,-0.06,-0.14,0.9,2.32,2.75,-0.37,940.6,30.93
5781743,-0.05,-0.18,0.78,1.77,4.39,-0.31,940.55,30.94
5781781,-0.04,-0.2,0.93,1.77,1.65,-0.43,940.58,30.94
5781819,0.02,-0.19,0.87,1.1,3.6,-0.12,940.61,30.93
5781857,-0.01,-0.18,0.9,0.55,2.56,-0.18,940.63,30.94
5781895,-0.04,-0.15,1.04,1.1,0.43,0.06,940.61,30.94
5781971,-0.04,-0.19,1.04,0.73,-0.85,0.31,940.51,30.9
5782009,-0.05,-0.23,1.09,0.37,1.04,0.12,940.65,30.91
5782047,-0.06,-0.19,1.01,-0.12,0.49,-0.06,940.72,30.9
5782137,-0.01,-0.17,0.86,0.06,1.4,0.18,940.77,30.89
5782175,-0.03,-0.17,1.05,0.61,0.12,-0.18,940.77,30.88
5782213,-0.07,-0.18,0.94,0.37,1.53,-0.18,940.85,30.89
5782251,-0.07,-0.15,1.0,0.49,-1.34,-0.18,940.86,30.89
5782289,-0.0,-0.17,0.98,-0.43,3.17,-15.62,940.94,30.9
5782328,0.01,-0.18,1.0,-0.49,1.83,-0.12,940.95,30.91
5782366,-0.03,-0.17,1.03,0.67,3.48,-0.55,940.94,30.9
5782415,-0.02,-0.18,1.0,0.92,5.37,-0.55,940.84,30.89
5782454,-0.05,-0.22,1.0,1.4,6.16,-1.04,940.79,30.9
5782492,-0.06,-0.19,1.01,-0.49,6.1,-1.04,940.74,30.91
5782530,-0.03,-0.14,1.1,-0.24,6.96,-1.22,940.83,30.89
5782568,-0.05,-0.17,1.08,0.67,7.51,-1.22,940.87,30.91
5782606,-0.05,-0.12,1.12,1.04,5.92,-1.16,940.98,30.91
5782644,-0.08,-0.15,1.11,1.59,7.32,-1.28,940.84,30.92
5782682,-0.01,-0.16,1.17,1.28,7.75,-1.4,940.84,30.91
5782721,-0.03,-0.16,1.26,2.38,8.61,-1.53,940.68,30.92
5782770,-0.0,-0.13,1.24,1.28,10.93,-1.59,940.73,30.92
5782809,-0.07,-0.13,1.19,1.46,10.07,-1.4,940.73,30.92
5782847,-0.04,-0.11,1.28,1.77,6.41,-1.22,940.71,30.9
5782885,-0.03,-0.14,1.24,1.89,9.03,-1.22,940.94,30.93
5782923,-0.06,-0.13,1.18,0.92,7.81,-0.92,940.8,30.92
5782961,-0.03,-0.15,1.32,1.65,4.76,-0.92,940.93,30.92
5783000,-0.03,-0.16,1.18,1.89,2.01,-0.55,941.0,30.92
5783038,-0.03,-0.1,1.22,2.32,-1.4,-0.37,940.98,30.92
5783076,-0.09,-0.16,1.1,2.08,3.66,-0.43,941.03,30.92
5783114,-0.05,-0.16,1.04,2.44,-0.43,-0.43,941.02,30.93
5783164,-0.08,-0.18,1.07,1.89,0.0,-0.43,941.01,30.9
5783202,-0.04,-0.16,0.95,1.28,-2.62,-0.49,941.19,30.91
5783240,-0.06,-0.13,1.0,0.61,0.12,-0.43,941.09,30.91
5783278,-0.06,-0.16,0.9,-0.12,2.26,-0.43,941.28,30.92
5783316,-0.06,-0.15,1.01,0.24,0.37,-0.67,941.24,30.91
5783354,-0.08,-0.15,0.94,-0.06,3.23,-0.73,941.32,30.92
5783392,-0.05,-0.14,1.02,0.61,2.75,-0.49,941.23,30.91
5783431,-0.04,-0.14,0.92,0.24,4.27,-0.55,941.12,30.91
5783469,-0.07,-0.16,1.06,0.85,1.89,-0.61,941.23,30.9
5783519,-0.07,-0.14,0.97,1.22,4.33,-0.43,941.17,30.9
5783557,-0.03,-0.14,1.0,0.98,4.21,-0.61,941.28,30.91
5783595,-0.04,-0.14,0.99,1.16,7.26,-0.61,941.25,30.92
5783633,-0.09,-0.18,0.99,1.34,3.66,-0.61,941.32,30.92
5783671,-0.06,-0.13,1.06,1.59,4.15,-0.49,941.26,30.93
5783709,0.01,-0.15,1.0,0.85,5.07,-0.43,941.43,30.93
5783747,-0.07,-0.14,1.1,1.22,4.39,-0.31,941.44,30.93
5783785,-0.07,-0.16,1.06,2.14,4.94,-0.24,941.42,30.92
5783824,-0.06,-0.15,1.1,2.56,4.27,-0.12,941.44,30.93
5783862,-0.05,-0.14,1.06,2.69,5.13,0.12,941.33,30.93
5783911,-0.02,-0.14,1.0,2.44,4.21,0.06,941.51,30.92
5783950,-0.07,-0.14,0.95,2.87,5.25,0.12,941.52,30.91
5783988,-0.09,-0.16,0.98,3.17,3.42,0.31,941.53,30.91
5784026,-0.02,-0.16,0.97,2.69,3.97,0.37,941.53,30.91
5784064,-0.03,-0.15,0.93,2.38,4.94,0.49,941.41,30.91
5784102,-0.08,-0.15,0.97,2.87,3.48,0.31,941.49,30.91
5784140,-0.04,-0.17,0.96,2.56,2.56,0.43,941.54,30.92
5784178,0.0,-0.15,0.95,1.65,5.43,0.73,941.58,30.91
5784217,-0.04,-0.17,0.94,2.69,4.76,0.55,941.6,30.93
5784266,-0.08,-0.16,0.87,2.62,4.21,0.49,941.67,30.91
5784305,-0.05,-0.14,0.93,1.95,2.32,0.73,941.68,30.91
5784343,-0.04,-0.17,0.88,2.5,2.75,0.49,941.7,30.93
5784381,-0.03,-0.15,0.9,2.56,2.62,0.61,941.67,30.92
5784419,-0.08,-0.15,0.84,2.81,2.56,0.67,941.81,30.94
5784457,-0.02,-0.17,0.86,2.01,1.59,0.55,941.82,30.92
5784495,-0.01,-0.13,0.93,1.71,3.23,0.55,941.77,30.93
5784534,-0.03,-0.16,0.87,1.71,5.0,0.67,941.81,30.91
5784572,-0.09,-0.16,0.9,2.08,2.93,0.67,941.74,30.91
5784610,-0.03,-0.18,0.98,2.32,2.56,0.37,941.76,30.91
5784660,-0.04,-0.15,1.02,1.59,2.38,0.49,941.81,30.91
5784698,-0.04,-0.15,0.97,0.98,6.84,0.55,941.72,30.91
5784736,-0.06,-0.17,1.06,1.71,5.74,0.55,941.75,30.9
5784774,-0.03,-0.15,1.07,1.89,3.42,0.61,941.76,30.9
5784812,0.0,-0.12,1.05,1.34,4.82,0.67,941.7,30.9
5784851,-0.07,-0.15,1.01,2.08,4.76,0.67,941.82,30.89
5784889,-0.07,-0.12,1.01,2.62,2.81,0.55,941.94,30.9
5784927,-0.04,-0.16,1.07,2.32,2.14,0.67,941.85,30.91
5784965,-0.02,-0.15,1.05,2.38,3.23,0.67,941.81,30.91
5785003,-0.05,-0.15,1.03,2.26,2.62,0.67,941.82,30.91
5785079,-0.01,-0.14,1.01,1.65,3.48,0.73,941.81,30.88
5785117,-0.09,-0.14,1.05,1.77,3.42,0.79,941.84,30.89
5785155,-0.07,-0.16,1.03,1.46,3.97,0.79,941.85,30.88
5785245,0.02,-0.16,1.08,2.38,4.03,0.73,941.9,30.86
5785283,0.01,-0.15,1.07,2.32,5.62,0.31,941.96,30.87
5785321,-0.05,-0.15,1.07,2.81,4.15,0.18,941.94,30.88
5785359,-0.03,-0.14,1.06,2.81,3.17,0.12,942.02,30.89
5785397,-0.03,-0.13,1.04,2.2,3.97,0.12,942.06,30.89
5785435,-0.04,-0.16,0.97,2.32,4.09,0.12,942.19,30.9
5785485,-0.05,-0.16,0.97,2.75,3.42,0.24,942.08,30.88
5785523,-0.03,-0.16,1.05,2.14,1.89,0.06,942.14,30.89
5785561,-0.0,-0.14,1.04,2.14,2.62,0.18,942.16,30.87
5785599,-0.05,-0.13,0.97,2.44,3.85,0.0,942.04,30.9
5785638,-0.05,-0.12,1.07,2.26,4.27,0.06,942.17,30.9
5785676,-0.04,-0.14,1.0,1.65,5.13,0.12,942.16,30.89
5785714,-0.02,-0.14,1.07,1.1,6.65,-0.12,942.2,30.9
5785752,-0.02,-0.15,1.04,2.81,7.57,-0.31,942.07,30.9
5785790,-0.08,-0.16,1.1,2.56,4.27,-0.24,942.13,30.9
5785828,-0.01,-0.14,1.04,1.28,5.62,-0.12,942.33,30.91
5785878,-0.04,-0.13,1.03,2.56,5.0,-0.06,942.19,30.91
5785916,-0.06,-0.16,0.92,2.93,6.16,0.0,942.32,30.9
5785954,-0.07,-0.15,0.92,2.93,4.03,-0.12,942.28,30.89
5785993,-0.02,-0.12,0.9,1.95,4.76,0.06,942.32,30.9
5786031,-0.01,-0.15,0.9,2.5,4.88,0.06,942.37,30.89
5786069,-0.06,-0.13,0.87,2.99,3.42,-0.12,942.38,30.91
5786107,-0.03,-0.15,0.89,2.38,3.72,0.0,942.43,30.9
5786145,-0.03,-0.16,0.86,2.14,3.17,0.06,942.34,30.9
5786183,-0.05,-0.15,0.87,1.77,5.25,0.18,942.41,30.92
5786222,-0.04,-0.16,0.79,1.4,3.48,-0.12,942.37,30.91
5786272,-0.05,-0.14,0.92,2.32,2.93,-0.06,942.53,30.91
5786310,-0.01,-0.17,0.86,1.71,4.09,0.12,942.47,30.91
5786348,0.0,-0.15,0.87,0.61,5.86,-0.24,942.44,30.89
5786386,-0.05,-0.15,0.91,0.98,4.7,-0.06,942.52,30.91
5786424,-0.05,-0.15,0.93,1.71,2.75,-0.06,942.54,30.91
5786462,-0.02,-0.17,0.81,0.92,6.23,-0.24,942.7,30.9
5786500,0.02,-0.14,0.82,1.4,4.64,-0.31,942.76,30.91
5786538,-0.03,-0.15,0.82,2.62,2.01,-0.37,942.72,30.91
5786577,-0.01,-0.15,0.76,1.34,3.72,-0.43,942.62,30.89
5786626,-0.0,-0.14,0.87,0.67,3.91,-0.24,942.71,30.89
5786664,-0.05,-0.16,0.9,1.1,2.5,-0.12,942.69,30.89
5786703,-0.04,-0.13,0.93,1.65,0.79,-0.31,942.67,30.89
5786741,-0.01,-0.16,1.03,1.22,2.14,-0.49,942.74,30.9
5786779,-0.03,-0.17,1.01,1.77,1.46,-0.37,942.71,30.89
5786817,-0.03,-0.12,1.0,1.59,0.98,-0.31,942.64,30.89
5786855,-0.02,-0.15,1.05,1.71,1.04,-0.49,942.63,30.91
5786893,-0.03,-0.14,1.03,1.89,0.98,-0.43,942.78,30.91
5786931,-0.04,-0.13,1.05,1.28,1.04,-0.43,942.76,30.89
5786969,-0.02,-0.14,1.02,1.53,1.04,-0.49,942.78,30.89
5787019,0.01,-0.13,1.01,2.08,-0.67,-0.73,942.74,30.89
5787057,-0.03,-0.13,1.0,2.08,1.4,-0.67,942.74,30.88
5787095,-0.0,-0.15,0.95,1.77,1.77,-0.98,942.83,30.9
5787133,-0.04,-0.13,1.01,2.5,0.43,-1.16,942.88,30.88
5787172,-0.02,-0.14,0.95,2.56,2.26,-1.1,942.92,30.89
5787210,-0.03,-0.13,0.92,2.38,3.54,-1.34,942.86,30.89
5787248,-0.05,-0.15,0.89,2.01,4.58,-1.53,942.91,30.89
5787286,-0.07,-0.12,0.95,2.32,3.3,-1.65,942.94,30.9
5787324,-0.03,-0.13,0.9,1.53,7.26,-1.65,942.89,30.9
5787374,-0.05,-0.15,0.97,2.01,7.2,-1.71,943.0,30.88
5787412,-0.04,-0.15,0.97,1.83,5.62,-1.34,943.02,30.87
5787450,-0.05,-0.14,0.98,2.14,6.1,-1.28,943.09,30.86
5787488,-0.06,-0.14,0.96,2.38,6.23,-1.4,943.05,30.87
5787526,-0.02,-0.15,0.94,2.32,4.82,-1.16,943.24,30.88
5787565,-0.05,-0.13,0.93,2.32,3.6,-0.92,943.24,30.88
5787603,-0.04,-0.15,0.85,1.95,4.64,-0.92,943.3,30.87
5787641,-0.0,-0.15,0.79,2.08,1.89,-0.85,943.2,30.87
5787679,-0.03,-0.15,0.75,2.08,2.01,-0.79,943.32,30.88
5787717,-0.04,-0.17,0.7,2.08,2.75,-0.98,943.34,30.87
5787767,-0.0,-0.16,0.77,1.46,1.65,-0.85,943.32,30.87
5787805,-0.02,-0.16,0.79,1.1,-0.98,-0.61,943.37,30.88
5787843,-0.04,-0.17,0.84,0.43,0.06,-0.61,943.39,30.88
5787881,-0.04,-0.15,0.83,0.18,0.06,-0.55,943.42,30.88
5787919,-0.09,-0.18,0.86,0.55,-0.98,-0.49,943.24,30.87
5787958,0.01,-0.16,0.89,-1.1,-0.49,-0.24,943.4,30.87
5787996,-0.02,-0.15,0.89,-0.31,0.55,-0.18,943.42,30.87
5788034,-0.08,-0.15,0.85,0.37,-0.73,-0.24,943.39,30.87
5788072,-0.08,-0.12,0.88,1.04,-1.59,-0.24,943.44,30.89
5788148,-0.04,-0.15,0.92,1.4,1.46,-0.31,943.54,30.84
5788186,-0.02,-0.16,0.82,1.77,0.37,-0.37,943.59,30.86
5788224,-0.01,-0.15,1.02,1.71,0.31,-0.31,943.64,30.87
5788313,-0.03,-0.13,1.04,2.62,6.59,-0.55,943.48,30.83
5788352,-0.08,-0.14,0.95,2.81,8.0,-0.24,943.48,30.84
5788390,-0.04,-0.12,0.99,2.69,4.88,-0.43,943.6,30.86
5788428,-0.01,-0.13,1.04,3.42,10.13,-0.55,943.56,30.85
5788466,-0.06,-0.16,0.99,3.85,7.51,-0.49,943.6,30.86
5788504,-0.04,-0.11,1.13,3.91,5.55,-0.31,943.59,30.87
5788554,-0.01,-0.14,1.02,3.36,7.45,-0.37,943.53,30.87
5788592,-0.03,-0.1,1.1,2.87,6.47,0.06,943.58,30.87
5788630,-0.07,-0.15,0.96,3.42,6.59,-0.06,943.66,30.87
5788668,-0.03,-0.12,1.05,1.89,4.03,-0.18,943.74,30.87
5788706,0.01,-0.12,0.97,2.08,6.23,-0.18,943.82,30.88
5788745,-0.01,-0.12,1.02,1.83,5.8,0.0,943.69,30.87
5788783,-0.04,-0.11,1.18,2.32,6.9,0.0,943.74,30.87
5788821,-0.08,-0.13,1.02,2.38,4.88,-0.18,943.69,30.88
5788859,-0.01,-0.11,1.19,1.46,8.67,-0.49,943.76,30.87
5788897,-0.02,-0.14,1.16,1.89,7.32,-0.55,943.64,30.88
5788947,-0.04,-0.08,1.31,2.14,7.45,-0.55,943.73,30.86
5788985,-0.07,-0.12,1.14,3.48,8.42,-0.79,943.79,30.87
5789023,-0.05,-0.1,1.19,2.87,9.16,-0.61,943.79,30.87
5789061,-0.06,-0.13,1.09,3.42,7.51,-0.67,943.97,30.87
5789099,-0.08,-0.12,1.13,3.17,6.77,-0.55,944.07,30.89
5789138,-0.03,-0.14,0.99,3.05,10.31,-0.49,944.0,30.88
5789176,-0.03,-0.11,1.11,3.78,5.8,-0.24,943.95,30.89
5789214,-0.04,-0.12,0.99,2.93,7.63,0.18,943.93,30.88
5789252,-0.07,-0.11,0.96,2.81,5.8,0.24,944.09,30.89
5789302,-0.04,-0.12,1.01,4.03,4.09,0.49,943.89,30.88
5789340,-0.05,-0.18,0.98,2.44,2.87,1.04,944.0,30.89
5789378,-0.05,-0.14,1.0,2.5,4.39,0.92,944.03,30.89
5789416,-0.05,-0.12,1.0,2.75,4.52,0.98,944.06,30.87
5789454,-0.03,-0.14,1.08,2.01,4.09,1.46,944.17,30.88
5789492,-0.06,-0.12,0.98,2.08,6.04,1.28,944.22,30.88
5789530,-0.01,-0.13,1.02,2.93,4.7,1.16,944.11,30.87
5789569,-0.05,-0.13,1.01,2.81,6.1,1.22,944.21,30.89
5789607,-0.04,-0.11,1.0,3.36,4.03,1.16,944.16,30.88
5789645,-0.05,-0.13,1.01,3.17,6.35,1.34,944.16,30.87
5789695,-0.06,-0.16,0.97,3.05,5.0,1.34,944.28,30.88
5789733,-0.04,-0.12,1.03,2.93,2.93,1.4,944.39,30.89
5789771,-0.01,-0.14,0.96,3.17,3.78,1.4,944.15,30.87
5789809,-0.02,-0.12,1.0,2.5,3.97,1.34,944.37,30.88
5789847,-0.03,-0.13,0.97,2.93,2.56,1.4,944.39,30.88
5789885,-0.03,-0.14,0.97,2.5,2.2,1.4,944.34,30.87
5789924,-0.06,-0.13,0.98,2.69,2.69,1.53,944.48,30.89
5789962,-0.04,-0.14,0.94,2.62,3.48,1.34,944.49,30.89
5790000,-0.01,-0.12,0.99,2.44,4.21,1.28,944.54,30.88
5790038,-0.04,-0.15,0.94,2.5,3.42,1.28,944.57,30.87
5790088,-0.04,-0.13,0.94,3.17,2.32,1.34,944.58,30.86
5790126,-0.03,-0.14,0.92,2.75,3.6,1.1,944.59,30.87
5790164,-0.01,-0.15,0.94,2.99,2.14,1.46,944.61,30.88
5790202,-0.04,-0.15,0.9,2.14,3.54,1.28,944.71,30.88
5790241,-0.04,-0.14,0.9,2.2,2.81,1.1,944.8,30.89
5790279,-0.01,-0.14,0.93,2.87,3.3,1.16,944.75,30.87
5790317,-0.02,-0.14,0.86,2.26,4.27,1.1,944.8,30.87
5790355,-0.02,-0.12,0.88,2.62,2.26,0.85,944.75,30.87
5790393,-0.02,-0.15,0.9,2.56,2.81,0.79,944.81,30.87
5790443,-0.02,-0.15,0.96,2.44,2.14,0.67,944.8,30.87
5790481,-0.05,-0.16,0.99,2.93,1.83,0.43,944.93,30.89
5790519,-0.04,-0.14,0.97,2.44,1.95,0.55,944.86,30.88
5790557,-0.03,-0.12,1.04,2.01,1.71,0.61,944.85,30.88
5790596,-0.03,-0.15,1.03,2.01,2.26,0.55,944.83,30.88
5790634,0.01,-0.11,1.04,2.2,2.87,0.24,944.83,30.88
5790672,-0.02,-0.14,1.04,2.14,3.11,0.18,944.8,30.9
5790710,-0.03,-0.14,1.07,2.56,2.62,0.43,944.81,30.88
5790748,-0.03,-0.13,1.04,3.23,3.3,0.18,944.88,30.88
5790786,-0.02,-0.14,1.03,3.3,2.93,0.55,945.0,30.88
5790836,0.0,-0.17,1.02,3.66,2.62,0.31,945.02,30.86
5790874,-0.06,-0.15,1.03,2.56,3.17,0.37,944.98,30.86
5790912,-0.01,-0.14,1.06,3.17,3.11,0.43,945.08,30.89
5790950,-0.01,-0.15,0.97,2.87,3.23,0.37,945.15,30.88
5790988,-0.05,-0.15,0.88,2.87,4.82,0.49,945.06,30.87
5791027,-0.04,-0.13,0.82,2.69,5.31,0.24,945.11,30.88
5791065,-0.02,-0.16,0.88,2.56,4.82,0.31,945.15,30.89
5791103,-0.02,-0.15,0.82,1.95,5.98,0.43,945.04,30.87
5791141,-0.06,-0.14,0.86,2.56,5.74,0.24,945.21,30.89
5791179,-0.05,-0.14,0.91,3.17,5.0,0.43,945.08,30.88
5791255,-0.05,-0.15,0.9,4.15,7.93,0.0,945.21,30.84
5791293,-0.02,-0.15,0.94,3.3,7.14,0.18,945.33,30.86
5791331,-0.0,-0.14,0.86,2.5,9.34,0.49,945.2,30.86
5791421,-0.03,-0.18,0.87,1.95,9.95,0.49,945.34,30.83
5791459,-0.06,-0.12,0.9,2.01,6.47,0.43,945.47,30.86
5791497,-0.03,-0.14,1.0,2.14,7.2,0.49,945.34,30.86
5791535,-0.0,-0.16,0.92,1.83,7.81,0.37,945.44,30.86
5791573,-0.08,-0.12,1.02,2.08,4.09,0.61,945.52,30.86
5791611,-0.05,-0.14,0.92,1.16,7.69,0.73,945.46,30.86
5791661,-0.04,-0.14,0.95,0.98,5.13,0.98,945.48,30.85
5791699,-0.04,-0.13,0.89,0.85,7.02,0.92,945.56,30.87
5791737,-0.03,-0.12,0.91,0.67,5.98,0.92,945.6,30.87
5791775,-0.07,-0.15,0.99,0.67,6.9,1.22,945.5,30.86
5791814,-0.04,-0.13,0.93,0.24,7.39,1.28,945.45,30.86
5791852,-0.04,-0.1,1.03,0.0,6.41,1.46,945.52,30.86
5791890,-0.06,-0.14,0.97,0.85,7.45,1.71,945.47,30.87
5791928,-0.05,-0.13,0.92,0.49,5.0,1.65,945.67,30.87
5791966,-0.07,-0.11,0.99,0.55,7.32,1.71,945.55,30.88
5792004,-0.02,-0.14,0.94,0.43,5.98,2.14,945.56,30.87
5792054,-0.03,-0.11,1.01,1.04,4.82,2.2,945.56,30.85
5792092,-0.04,-0.18,1.0,0.37,6.23,2.56,945.71,30.87
5792130,-0.0,-0.12,1.01,-0.37,5.07,2.81,945.69,30.87
5792168,-0.03,-0.13,1.0,0.85,3.05,2.44,945.66,30.86
5792206,-0.01,-0.11,0.98,0.73,3.42,2.38,945.74,30.86
5792244,-0.0,-0.14,1.0,0.18,4.46,2.87,945.78,30.86
5792283,-0.02,-0.1,1.08,0.67,0.98,2.99,945.81,30.87
5792321,-0.07,-0.14,1.05,1.34,1.77,2.87,945.82,30.87
5792359,-0.03,-0.14,1.13,1.34,1.28,2.56,945.81,30.87
5792397,-0.02,-0.16,1.11,1.83,0.92,2.69,945.97,30.87
5792447,-0.05,-0.14,1.02,1.59,-2.32,2.75,945.96,30.84
5792485,-0.06,-0.15,1.01,2.2,-1.46,3.11,945.88,30.85
5792523,0.01,-0.12,0.97,0.61,-2.01,3.42,945.84,30.86
5792561,-0.03,-0.11,1.03,1.16,-4.88,3.23,945.92,30.84
5792599,0.01,-0.14,0.93,0.73,-3.11,3.11,946.0,30.86
5792637,-0.02,-0.13,1.1,1.53,-5.55,3.17,946.0,30.85
5792676,0.0,-0.17,1.06,1.77,-3.97,2.99,945.91,30.84
5792714,-0.02,-0.11,1.13,0.73,-7.08,3.11,945.97,30.86
5792752,-0.04,-0.12,1.04,1.28,-4.88,3.42,946.1,30.84
5792802,0.01,-0.11,1.04,0.92,-5.98,2.75,946.15,30.85
5792840,-0.03,-0.13,1.06,1.83,-6.16,2.5,946.16,30.84
5792878,-0.02,-0.14,0.99,1.71,-7.14,2.81,946.07,30.84
5792916,0.03,-0.13,1.09,1.34,-5.13,2.69,946.22,30.86
5792954,0.02,-0.13,1.05,1.95,-6.59,2.32,946.17,30.86
5792993,-0.0,-0.13,1.09,2.14,-6.23,2.38,946.28,30.84
5793031,-0.0,-0.15,0.99,2.32,-3.97,2.14,946.43,30.86
5793069,0.0,-0.13,1.0,2.62,-4.94,1.34,946.33,30.84
5793107,0.01,-0.14,0.91,3.11,-3.91,1.65,946.41,30.86
5793145,0.01,-0.13,0.88,3.17,-4.7,1.53,946.52,30.87
5793195,-0.01,-0.15,0.84,3.23,-2.93,1.16,946.5,30.86
5793233,-0.02,-0.11,0.85,3.3,-5.07,1.16,946.44,30.86
5793271,-0.01,-0.16,0.83,2.87,-2.08,0.98,946.55,30.86
5793309,0.02,-0.17,0.85,2.75,-2.81,0.43,946.64,30.87
5793348,0.01,-0.15,0.84,3.11,-2.2,0.49,946.6,30.87
5793386,-0.01,-0.16,0.74,2.5,-0.61,0.43,946.72,30.87
5793424,0.01,-0.16,0.85,2.62,-1.4,0.24,946.59,30.86
5793462,0.0,-0.15,0.78,1.95,0.37,-0.06,946.72,30.86
5793500,-0.03,-0.14,0.82,2.62,-1.65,-0.12,946.81,30.86
5793550,0.0,-0.17,0.76,2.38,0.67,-0.06,946.73,30.84
5793588,-0.02,-0.15,0.84,2.08,0.79,-0.31,946.7,30.85
5793626,-0.03,-0.15,0.82,1.59,1.34,0.0,946.93,30.88
5793664,-0.02,-0.15,0.79,1.95,0.55,-0.24,946.73,30.85
5793702,-0.03,-0.16,0.91,1.77,0.12,-0.24,946.88,30.86
5793741,0.01,-0.15,0.88,1.83,0.06,-0.12,946.97,30.88
5793779,-0.04,-0.15,0.84,1.89,0.67,-0.18,946.99,30.87
5793817,-0.02,-0.13,0.88,1.1,0.55,-0.37,946.93,30.86
5793855,0.01,-0.14,0.9,0.61,1.4,-0.24,946.85,30.86
5793893,-0.0,-0.17,0.89,0.24,1.59,-0.37,946.95,30.88
5793943,0.0,-0.14,0.97,0.0,2.2,-0.37,947.06,30.87
5793981,-0.0,-0.14,0.93,-0.12,1.22,-0.67,946.96,30.87
5794019,-0.05,-0.12,0.98,-0.31,2.08,-0.73,947.07,30.87
5794057,-0.0,-0.13,1.01,-0.55,2.5,-0.79,947.07,30.87
5794095,-0.0,-0.13,1.06,-0.55,1.16,-0.85,946.99,30.88
5794133,-0.03,-0.09,1.13,-1.16,2.87,-0.49,947.07,30.88
5794172,-0.03,-0.11,1.11,-0.79,3.23,-0.55,947.05,30.87
5794210,-0.01,-0.09,1.11,-2.01,5.0,-0.67,947.1,30.87
5794248,-0.01,-0.08,1.17,-1.53,3.23,-0.55,946.98,30.86
5794325,-0.01,-0.09,1.27,-1.59,4.03,-0.67,947.16,30.84
5794363,-0.01,-0.09,1.28,-1.16,3.42,-0.73,947.13,30.86
5794401,-0.03,-0.09,1.3,-0.85,2.99,-0.61,947.09,30.86
5794491,-0.01,-0.07,1.28,-0.61,5.07,-0.73,947.15,30.82
5794529,-0.03,-0.08,1.3,0.31,4.7,-0.67,947.03,30.85
5794567,-0.03,-0.07,1.29,0.37,4.46,-0.67,946.85,30.85
5794605,-0.02,-0.07,1.29,0.12,5.86,-0.61,946.75,30.86
5794643,-0.03,-0.05,1.32,0.12,5.13,-0.73,946.39,30.86
5794681,-0.05,-0.06,1.34,0.18,4.88,-0.49,946.11,30.86
5794720,-0.02,-0.05,1.33,0.0,5.25,-0.55,945.89,30.86
5794769,-0.02,-0.05,1.38,0.06,5.07,-0.43,945.78,30.84
5794807,-0.02,-0.06,1.32,-0.06,4.88,-0.31,945.87,30.87
5794846,-0.02,-0.06,1.4,0.18,5.37,-0.37,945.94,30.86
5794884,-0.02,-0.07,1.36,0.61,6.71,-0.31,945.86,30.87
5794922,-0.05,-0.07,1.34,0.79,6.65,-0.24,945.99,30.87
5794960,-0.03,-0.07,1.33,0.85,6.41,-0.18,946.07,30.88
5794998,-0.03,-0.07,1.24,0.85,7.45,-0.12,946.05,30.86
5795036,-0.03,-0.07,1.23,0.92,7.93,-0.12,946.02,30.87
5795074,-0.04,-0.08,1.19,0.98,8.85,-0.18,946.1,30.88
5795124,-0.01,-0.07,1.28,1.04,7.81,-0.06,946.14,30.86
5795162,-0.03,-0.09,1.25,1.16,7.32,-0.06,946.11,30.86
5795200,-0.03,-0.06,1.29,0.67,6.65,0.0,946.01,30.87
5795239,-0.01,-0.06,1.4,0.55,7.2,0.31,945.96,30.87
5795277,-0.02,-0.09,1.38,0.61,7.69,0.24,946.03,30.87
5795315,-0.02,-0.06,1.37,0.18,7.32,0.18,946.07,30.88
5795353,-0.03,-0.07,1.32,0.67,8.36,0.18,946.11,30.87
5795391,-0.02,-0.08,1.3,0.61,7.45,0.31,946.15,30.87
5795429,-0.02,-0.07,1.3,0.61,7.08,0.18,946.21,30.88
5795467,-0.04,-0.08,1.23,0.49,6.71,0.37,946.25,30.89
5795517,-0.04,-0.08,1.24,0.55,7.57,0.37,946.32,30.87
5795555,-0.04,-0.09,1.2,0.73,6.59,0.24,946.45,30.88
5795593,-0.02,-0.1,1.19,0.37,6.16,0.31,946.39,30.88
5795632,-0.01,-0.09,1.21,0.31,6.59,0.31,946.36,30.87
5795670,-0.02,-0.08,1.17,0.55,6.53,0.43,946.38,30.89
5795708,-0.03,-0.08,1.17,0.37,6.1,0.31,946.35,30.88
5795746,-0.05,-0.08,1.12,0.12,5.74,0.49,946.47,30.88
5795784,-0.01,-0.09,1.18,0.31,5.92,0.31,946.61,30.9
5795822,-0.04,-0.1,1.13,0.18,4.82,0.37,946.96,30.89
5795872,-0.04,-0.1,1.12,-0.06,4.82,0.49,947.38,30.88
5795910,-0.02,-0.12,1.05,-0.24,5.25,0.24,947.59,30.89
5795948,-0.03,-0.12,1.01,-0.18,4.58,0.43,947.67,30.88
5795987,-0.06,-0.12,0.96,-0.18,3.3,0.49,947.79,30.91
5796025,-0.05,-0.12,0.85,-0.31,3.11,0.43,947.82,30.89
5796063,-0.02,-0.1,0.87,-0.06,0.73,0.79,947.94,30.88
5796101,-0.04,-0.12,0.82,0.0,0.67,0.79,947.98,30.89
5796139,-0.03,-0.13,0.8,-0.12,-0.79,0.98,948.02,30.89
5796177,-0.05,-0.11,0.81,0.18,-1.77,0.79,948.03,30.89
5796216,-0.04,-0.11,0.77,-0.12,-1.28,0.92,948.02,30.89
5796265,-0.04,-0.11,0.81,0.24,-1.34,1.1,948.04,30.88
5796303,-0.06,-0.12,0.77,0.55,-0.06,0.85,948.0,30.89
5796342,-0.05,-0.11,0.74,0.0,-0.18,0.79,948.0,30.89
5796380,-0.05,-0.1,0.83,0.24,-0.06,1.1,947.96,30.88
5796418,-0.0,-0.11,0.85,0.24,2.01,0.73,947.95,30.89
5796456,-0.06,-0.11,0.91,0.43,0.49,0.92,947.99,30.89
5796494,-0.06,-0.11,0.89,0.55,1.71,1.16,947.99,30.87
5796532,-0.04,-0.1,0.95,0.73,2.2,0.79,948.05,30.89
5796570,-0.03,-0.11,0.91,1.34,4.64,0.67,948.01,30.88
5796609,-0.06,-0.09,0.95,1.71,3.11,0.67,948.06,30.88
5796658,-0.07,-0.11,0.92,2.44,6.29,0.79,948.02,30.88
5796697,-0.05,-0.09,0.9,2.56,7.63,0.67,948.02,30.87
5796735,-0.06,-0.09,0.93,3.05,7.93,1.04,947.98,30.86
5796773,-0.06,-0.1,0.9,3.36,8.12,1.16,948.05,30.86
5796811,-0.04,-0.1,0.96,3.42,9.03,0.92,948.04,30.88
5796849,-0.04,-0.1,0.92,3.48,9.03,1.04,948.07,30.87
5796887,-0.05,-0.07,0.98,3.36,8.91,1.4,948.09,30.87
5796926,-0.04,-0.11,0.92,3.66,10.01,1.46,948.07,30.88
5796964,-0.02,-0.1,0.93,3.36,9.34,1.28,948.09,30.87
5797014,-0.02,-0.1,0.93,3.66,9.52,1.71,948.15,30.86
5797052,-0.04,-0.11,0.89,3.48,8.61,1.59,948.18,30.86
5797090,-0.03,-0.11,0.93,3.36,8.48,1.65,948.18,30.86
5797128,-0.02,-0.11,0.91,3.23,7.93,1.77,948.15,30.86
5797166,-0.05,-0.1,0.95,3.11,6.9,1.95,948.2,30.89
5797204,-0.04,-0.1,1.04,3.36,7.14,1.89,948.15,30.86
5797243,-0.02,-0.1,1.0,2.81,7.81,1.65,948.12,30.87
5797281,-0.04,-0.09,1.06,2.69,7.02,1.77,948.15,30.86
5797319,-0.03,-0.11,1.17,2.75,6.04,2.01,948.13,30.86
5797357,-0.04,-0.13,1.05,2.44,6.59,1.95,948.26,30.86
5797433,-0.02,-0.1,1.09,3.23,5.55,2.14,948.22,30.84
5797471,-0.04,-0.1,1.0,2.93,3.97,2.01,948.26,30.85
5797509,-0.01,-0.11,1.0,2.81,5.31,1.83,948.24,30.84
5797599,-0.02,-0.11,1.0,2.69,4.03,1.83,948.32,30.82
5797637,-0.01,-0.11,0.95,3.17,3.48,1.34,948.41,30.84
5797675,0.02,-0.12,0.95,3.11,3.48,0.98,948.42,30.84
5797713,-0.01,-0.12,0.92,3.11,2.32,1.1,948.36,30.85
5797751,-0.01,-0.12,0.91,3.11,2.93,0.79,948.48,30.84
5797789,-0.02,-0.12,0.86,2.62,2.5,0.55,948.43,30.85
5797839,-0.01,-0.12,0.88,2.44,2.81,0.31,948.47,30.84
5797877,-0.01,-0.13,0.79,1.77,3.54,0.06,948.45,30.84
5797915,-0.01,-0.11,0.85,1.71,3.42,0.06,948.51,30.86
5797954,-0.02,-0.12,0.84,1.46,3.91,-0.06,948.44,30.84
5797992,-0.02,-0.12,0.87,1.59,3.17,-0.24,948.51,30.84
5798030,-0.02,-0.12,0.9,1.89,3.66,-0.31,948.51,30.86
5798068,-0.02,-0.12,0.89,1.83,3.78,-0.43,948.47,30.85
5798106,-0.02,-0.11,0.94,1.65,3.54,-0.61,948.55,30.86
5798144,-0.03,-0.12,0.9,1.65,4.15,-0.43,948.57,30.86
5798183,-0.03,-0.11,0.9,1.4,4.03,-0.61,948.57,30.86
5798233,-0.03,-0.1,0.91,1.28,4.09,-0.61,948.5,30.83
5798271,-0.03,-0.11,0.92,1.04,3.97,-0.79,948.64,30.85
5798309,-0.02,-0.11,0.93,1.1,4.21,-0.98,948.58,30.84
5798347,-0.03,-0.11,0.93,1.34,4.15,-0.92,948.63,30.86
5798385,-0.02,-0.12,0.94,1.22,4.46,-0.98,948.63,30.86
5798423,-0.02,-0.11,0.94,1.04,4.09,-1.22,948.61,30.85
5798461,-0.02,-0.11,0.98,1.34,4.94,-1.28,948.62,30.84
5798500,-0.03,-0.11,0.97,1.16,4.03,-1.16,948.61,30.86
5798538,-0.06,-0.1,1.03,1.46,3.97,-1.22,948.62,30.85
5798576,-0.04,-0.1,1.0,1.46,5.13,-1.28,948.66,30.85
5798626,-0.03,-0.09,1.05,1.83,4.88,-1.28,948.68,30.86
5798664,-0.03,-0.12,1.0,1.95,5.19,-1.53,948.69,30.87
5798702,-0.02,-0.09,1.02,1.77,5.07,-1.46,948.68,30.87
5798740,-0.03,-0.1,1.03,2.01,5.92,-1.4,948.75,30.87
5798778,-0.03,-0.1,1.02,2.01,4.94,-1.4,948.73,30.87
5798816,-0.04,-0.11,1.04,2.01,4.58,-1.59,948.73,30.86
5798855,-0.05,-0.09,1.03,1.89,4.27,-1.46,948.76,30.87
5798893,-0.05,-0.09,1.04,1.77,4.58,-1.4,948.74,30.86
5798931,-0.02,-0.09,1.03,1.77,5.25,-1.28,948.75,30.86
5798981,-0.03,-0.09,1.04,2.01,4.76,-1.53,948.81,30.85
5799019,-0.03,-0.1,0.99,2.26,5.0,-1.4,948.85,30.85
5799057,-0.04,-0.1,0.98,2.01,4.46,-1.28,948.84,30.86
5799095,-0.04,-0.11,0.99,2.14,5.0,-1.53,948.95,30.87
5799133,-0.03,-0.11,0.96,2.14,4.58,-1.46,949.05,30.86
5799171,-0.03,-0.11,0.96,2.08,4.58,-1.34,949.01,30.89
5799210,-0.02,-0.11,0.97,1.83,4.94,-1.59,948.99,30.87
5799248,-0.04,-0.11,0.97,1.89,5.31,-1.46,948.97,30.86
5799286,-0.04,-0.11,0.97,1.77,5.25,-1.53,948.96,30.86
5799336,-0.04,-0.1,1.02,1.53,3.91,-1.28,949.01,30.85
5799374,-0.02,-0.11,0.99,1.59,3.05,-1.22,949.05,30.87
5799412,-0.03,-0.11,1.02,1.53,2.08,-1.22,949.07,30.86
5799450,-0.05,-0.1,1.04,1.4,2.01,-1.22,949.05,30.86
5799489,-0.04,-0.1,1.03,1.1,1.28,-1.1,949.0,30.85
5799527,-0.04,-0.09,1.05,0.85,1.04,-1.22,948.99,30.84
5799565,-0.03,-0.1,1.05,0.73,1.83,-1.34,949.0,30.86
5799603,-0.04,-0.1,1.07,0.85,2.32,-1.34,949.01,30.86
5799641,-0.03,-0.1,1.06,1.04,3.05,-1.65,948.96,30.86
5799679,-0.03,-0.09,1.1,1.1,3.36,-1.65,949.01,30.86
5799729,-0.04,-0.1,1.14,1.16,4.94,-1.71,949.01,30.84
5799767,-0.03,-0.09,1.16,1.4,5.37,-1.77,949.06,30.85
5799806,-0.02,-0.09,1.15,1.59,6.59,-1.71,949.04,30.84
5799844,-0.02,-0.09,1.14,1.89,6.1,-1.89,949.03,30.86
5799882,-0.04,-0.1,1.1,2.08,6.1,-1.65,949.17,30.86
5799920,-0.03,-0.1,1.08,1.95,6.1,-1.95,949.19,30.86
5799958,-0.04,-0.11,1.02,2.2,6.29,-1.77,949.22,30.86
5799997,-0.03,-0.1,0.96,2.01,7.02,-1.77,949.28,30.87
5800035,-0.04,-0.09,0.96,2.32,5.55,-1.89,949.36,30.87
5800085,-0.05,-0.11,0.83,1.77,6.35,-2.01,949.38,30.85
5800123,-0.03,-0.1,0.95,1.77,5.68,-2.01,949.44,30.85
5800161,-0.02,-0.11,0.95,1.71,6.65,-2.08,949.51,30.86
5800199,-0.02,-0.11,0.93,1.34,6.71,-2.01,949.44,30.86
5800237,-0.05,-0.1,1.01,1.34,6.71,-1.77,949.29,30.86
5800275,-0.05,-0.12,1.01,1.1,7.02,-1.59,949.4,30.86
5800314,-0.06,-0.1,1.03,0.92,5.0,-1.71,949.34,30.87
5800352,-0.06,-0.1,1.0,1.04,7.32,-1.59,949.32,30.86
5800390,-0.06,-0.1,1.05,0.98,4.82,-1.46,949.32,30.86
5800428,-0.04,-0.08,1.09,0.92,4.88,-1.34,949.34,30.87
5800504,-0.06,-0.09,1.06,1.1,5.8,-1.04,949.26,30.83
5800542,-0.07,-0.1,1.05,1.04,5.92,-1.34,949.4,30.83
5800580,-0.08,-0.11,1.04,1.04,5.74,-0.85,949.44,30.84
5800670,-0.05,-0.1,1.01,1.71,5.86,-0.85,949.52,30.82
5800708,-0.04,-0.1,1.0,1.95,5.31,-0.61,949.52,30.82
5800746,-0.07,-0.11,0.99,1.77,5.07,-0.55,949.5,30.81
5800784,-0.04,-0.11,1.02,1.83,4.7,-0.73,949.52,30.84
5800823,-0.05,-0.11,1.05,1.83,3.91,-0.67,949.48,30.83
5800861,-0.06,-0.1,1.03,1.53,3.42,-0.49,949.55,30.84
5800911,-0.03,-0.1,1.02,1.83,3.36,-0.43,949.57,30.82
5800949,-0.07,-0.12,1.0,1.77,2.93,-0.37,949.66,30.84
5800987,-0.06,-0.09,1.01,1.1,2.62,-0.31,949.65,30.84
5801025,-0.06,-0.11,1.0,1.1,2.87,-0.31,949.63,30.84
5801063,-0.06,-0.1,1.02,0.92,2.69,-0.24,949.62,30.84
5801101,-0.07,-0.1,1.05,0.61,3.23,-0.24,949.66,30.85
5801140,-0.06,-0.12,1.07,0.79,3.23,-0.37,949.58,30.84
5801178,-0.04,-0.11,1.07,0.49,3.72,-0.24,949.58,30.84
5801216,-0.06,-0.11,1.12,0.73,4.88,-0.24,949.58,30.84
5801254,-0.06,-0.1,1.08,0.79,5.49,-0.18,949.62,30.86
5801304,-0.08,-0.1,1.15,0.67,5.37,-0.18,949.57,30.83
5801342,-0.04,-0.11,1.13,0.61,6.23,-0.24,949.59,30.83
5801380,-0.02,-0.08,1.17,0.85,6.1,-0.24,949.66,30.84
5801418,-0.04,-0.09,1.13,1.28,6.41,0.0,949.67,30.84
5801456,-0.05,-0.1,1.19,1.46,6.59,0.06,949.63,30.84
5801495,-0.05,-0.11,1.15,2.26,8.24,0.12,949.71,30.84
5801533,-0.04,-0.11,1.13,2.56,8.79,0.12,949.68,30.83
5801571,-0.02,-0.09,1.16,2.5,8.79,0.18,949.68,30.85
5801609,-0.04,-0.11,1.12,2.75,9.09,0.43,949.7,30.84
5801659,-0.06,-0.1,1.08,2.56,8.36,0.37,949.77,30.83
5801697,-0.03,-0.1,1.08,2.5,8.54,0.55,949.67,30.84
5801735,-0.04,-0.09,1.12,2.5,6.84,0.61,949.74,30.84
5801774,-0.04,-0.1,1.07,2.2,7.57,0.67,949.77,30.84
5801812,-0.01,-0.1,1.12,2.14,5.92,0.73,949.71,30.83
5801850,-0.02,-0.12,1.09,1.59,6.35,0.61,949.7,30.83
5801888,-0.02,-0.09,1.13,1.16,5.92,0.49,949.77,30.83
5801926,-0.02,-0.11,1.15,1.1,6.41,0.67,949.73,30.82
5801964,0.01,-0.1,1.16,0.31,6.53,0.55,949.74,30.84
5802003,-0.04,-0.1,1.18,0.49,6.35,0.55,949.72,30.84
5802053,-0.01,-0.08,1.2,0.24,6.41,0.37,949.7,30.83
5802091,-0.02,-0.09,1.23,-0.12,6.84,0.31,949.69,30.83
5802129,0.01,-0.08,1.32,0.12,5.43,0.37,949.67,30.83
5802167,0.0,-0.09,1.34,0.18,5.74,0.18,949.73,30.85
5802205,-0.01,-0.08,1.28,0.0,5.68,0.31,949.78,30.85
5802243,0.0,-0.08,1.37,0.79,3.66,0.0,949.74,30.84
5802281,-0.01,-0.12,1.22,0.24,4.88,-0.12,949.79,30.87
5802320,-0.02,-0.08,1.27,0.43,3.23,-0.12,949.87,30.86
5802358,0.0,-0.1,1.23,1.04,4.82,-0.31,949.86,30.85
5802396,0.01,-0.1,1.19,1.4,3.66,-0.55,949.8,30.84
5802446,-0.02,-0.1,1.15,1.4,4.76,-0.73,949.92,30.84
5802484,-0.03,-0.12,1.07,1.65,4.27,-0.98,949.93,30.83
5802522,0.01,-0.11,1.09,1.65,3.6,-1.28,950.1,30.84
5802560,0.01,-0.12,1.01,2.2,3.17,-1.46,950.0,30.83
5802598,-0.0,-0.15,0.95,1.95,3.23,-1.34,950.14,30.85
5802637,0.0,-0.15,0.97,2.01,2.5,-1.53,950.11,30.84
5802675,-0.03,-0.14,0.93,1.59,3.11,-1.4,950.13,30.83
5802713,-0.02,-0.16,0.87,1.34,3.54,-1.28,950.14,30.84
5802751,-0.05,-0.12,0.9,1.53,2.87,-1.34,950.09,30.84
5802801,-0.03,-0.16,0.89,1.4,3.17,-1.4,950.16,30.82
5802839,-0.03,-0.15,0.91,1.22,1.83,-0.98,950.16,30.86
5802878,-0.01,-0.12,0.93,1.59,2.2,-1.16,950.29,30.86
5802916,-0.06,-0.12,0.83,2.44,2.32,-1.22,950.05,30.84
5802954,-0.02,-0.14,0.91,2.44,1.16,-1.4,950.19,30.83
5802992,0.0,-0.13,0.87,2.75,2.2,-1.59,950.2,30.83
5803030,-0.05,-0.14,0.83,2.14,2.75,-1.34,950.31,30.83
5803069,-0.03,-0.14,0.82,3.05,2.26,-1.53,950.26,30.85
5803107,0.02,-0.14,0.82,2.44,3.17,-1.71,950.2,30.84
5803145,-0.0,-0.15,0.84,2.38,3.85,-1.83,950.27,30.84
5803195,0.02,-0.15,0.8,2.87,4.82,-2.08,950.22,30.83
5803233,-0.01,-0.14,0.74,2.14,5.98,-2.2,950.21,30.83
5803271,-0.03,-0.15,0.75,2.32,5.07,-2.2,950.2,30.84
5803309,-0.02,-0.11,0.8,2.38,3.17,-2.2,950.28,30.84
5803347,-0.06,-0.15,0.77,3.17,3.72,-2.5,950.22,30.82
5803386,-0.01,-0.14,0.81,2.32,3.23,-2.62,950.24,30.82
5803424,-0.01,-0.13,0.85,1.53,2.62,-2.56,950.19,30.82
5803462,-0.01,-0.15,0.77,0.85,3.36,-2.69,950.13,30.83
5803500,-0.03,-0.14,0.81,1.28,3.23,-2.99,950.18,30.81
5803576,-0.05,-0.15,0.84,1.65,2.2,-2.5,950.09,30.79
5803614,-0.03,-0.13,0.91,0.49,3.17,-2.81,950.09,30.8
5803652,-0.07,-0.12,0.96,1.1,0.31,-2.69,950.15,30.83
5803742,-0.03,-0.09,0.99,0.67,-1.04,-2.5,950.17,30.79
5803780,-0.0,-0.09,0.97,0.37,-0.37,-2.56,950.19,30.8
5803818,-0.04,-0.1,1.02,0.98,-1.1,-2.62,950.05,30.8
5803856,-0.03,-0.12,1.05,1.1,-1.4,-2.56,950.17,30.81
5803894,-0.02,-0.12,1.07,1.22,-1.34,-2.75,950.13,30.82
5803933,-0.03,-0.11,1.03,1.65,-2.81,-2.87,950.16,30.82
5803971,-0.05,-0.12,1.08,2.14,-2.14,-2.99,950.16,30.81
5804021,-0.05,-0.1,1.09,2.01,-2.93,-2.99,950.08,30.8
5804059,-0.04,-0.09,1.1,2.38,-0.67,-2.99,950.09,30.81
5804097,-0.06,-0.12,1.0,2.5,0.06,-3.17,950.27,30.81
5804135,-0.06,-0.1,1.04,3.11,-0.98,-3.23,950.16,30.82
5804173,-0.04,-0.12,1.01,2.75,-0.06,-2.99,950.22,30.82
5804211,-0.04,-0.1,1.05,2.32,0.18,-3.05,950.22,30.82
5804250,-0.07,-0.11,0.95,3.54,0.61,-3.05,950.25,30.84
5804288,-0.08,-0.11,0.92,3.11,0.67,-3.17,950.29,30.82
5804326,-0.04,-0.11,0.96,2.87,0.73,-2.93,950.26,30.82
5804376,-0.06,-0.11,0.88,2.75,2.62,-3.17,950.29,30.82
5804414,-0.05,-0.13,0.86,2.69,4.64,-3.05,950.33,30.83
5804452,-0.04,-0.13,0.87,2.93,3.6,-3.17,950.34,30.82
5804490,-0.05,-0.12,0.83,3.97,1.59,-3.3,950.4,30.81
5804528,-0.08,-0.14,0.86,3.3,3.11,-2.99,950.47,30.83
5804566,-0.04,-0.14,0.79,2.62,3.91,-2.81,950.39,30.82
5804605,-0.05,-0.13,0.8,2.62,3.48,-3.05,950.45,30.83
5804643,-0.05,-0.13,0.77,2.38,3.05,-2.93,950.42,30.82
5804681,-0.04,-0.12,0.75,1.28,2.69,-2.75,950.42,30.83
5804719,-0.02,-0.12,0.79,2.32,3.42,-3.05,950.44,30.82
5804769,-0.02,-0.14,0.75,1.53,2.75,-2.93,950.38,30.82
5804807,-0.07,-0.12,0.82,1.22,4.03,-2.93,950.4,30.83
5804845,-0.06,-0.13,0.77,1.65,2.38,-2.93,950.45,30.81
5804883,-0.03,-0.11,0.82,1.28,2.81,-2.87,950.52,30.81
5804921,0.01,-0.13,0.82,0.79,3.72,-3.05,950.45,30.82
5804960,-0.08,-0.12,0.86,1.4,2.75,-2.99,950.45,30.81
5804998,-0.07,-0.12,0.82,1.53,2.69,-2.99,950.47,30.84
5805036,-0.03,-0.11,0.85,1.16,2.2,-3.05,950.38,30.83
5805074,-0.04,-0.1,0.88,0.92,4.15,-2.99,950.4,30.82
5805124,-0.02,-0.11,0.89,1.04,3.78,-2.87,950.53,30.82
5805162,-0.05,-0.13,0.89,1.83,4.76,-3.11,950.5,30.83
5805200,-0.08,-0.11,0.87,1.89,2.56,-2.87,950.47,30.82
5805238,-0.06,-0.09,0.93,1.65,2.56,-2.62,950.63,30.82
5805276,-0.02,-0.11,0.89,2.08,2.99,-2.93,950.42,30.82
5805315,-0.06,-0.09,1.03,2.69,2.99,-2.81,950.45,30.81
5805353,-0.07,-0.1,0.96,2.99,2.08,-2.69,950.5,30.82
5805391,-0.06,-0.11,1.03,2.44,2.01,-2.56,950.56,30.82
5805429,-0.06,-0.1,1.01,2.01,4.46,-2.56,950.49,30.83
5805467,-0.05,-0.09,1.01,2.81,4.03,-2.75,950.56,30.82
5805517,-0.04,-0.09,1.03,2.2,5.49,-2.38,950.53,30.82
5805555,-0.09,-0.08,1.07,2.01,4.82,-2.38,950.53,30.82
5805593,-0.06,-0.06,1.04,1.71,6.04,-2.26,950.41,30.82
5805631,-0.04,-0.1,1.06,2.32,5.98,-2.38,950.51,30.82
5805669,-0.07,-0.09,1.1,2.87,7.14,-2.32,950.59,30.84
5805708,-0.12,-0.11,1.07,2.56,8.85,-2.01,950.51,30.82
5805746,-0.06,-0.1,1.11,2.75,7.26,-2.26,950.58,30.83
5805784,-0.08,-0.07,1.1,2.5,8.42,-2.08,950.65,30.84
5805822,-0.07,-0.07,1.03,3.23,8.0,-1.71,950.54,30.83
5805872,-0.1,-0.1,0.98,3.78,9.4,-1.77,950.54,30.82
5805910,-0.12,-0.09,1.01,2.56,9.89,-1.4,950.51,30.83
5805948,-0.08,-0.07,1.05,3.54,9.03,-1.04,950.58,30.83
5805986,-0.08,-0.08,0.99,3.17,10.74,-0.79,950.61,30.84
5806024,-0.09,-0.09,1.01,4.27,10.44,-0.85,950.66,30.82
5806063,-0.09,-0.06,1.06,4.76,9.52,-0.49,950.68,30.84
5806101,-0.1,-0.07,1.0,4.94,9.28,-0.18,950.6,30.84
5806139,-0.06,-0.09,0.97,4.64,10.01,-0.12,950.71,30.84
5806177,-0.06,-0.08,0.98,4.39,10.38,-0.06,950.67,30.83
5806227,-0.03,-0.08,1.0,3.48,9.95,0.55,950.74,30.84
5806265,-0.04,-0.08,0.98,3.36,10.07,0.73,950.69,30.82
5806303,-0.06,-0.07,0.99,3.97,8.73,0.98,950.62,30.83
5806341,0.0,-0.09,0.99,3.3,10.07,1.1,950.64,30.83
5806379,-0.07,-0.07,1.03,2.69,8.67,1.16,950.66,30.83
5806418,-0.05,-0.09,1.02,2.81,6.9,1.34,950.75,30.82
5806456,-0.06,-0.07,1.04,2.26,6.23,1.34,950.71,30.82
5806494,-0.04,-0.09,1.09,2.08,6.1,1.46,950.77,30.82
5806532,-0.05,-0.09,1.07,1.59,5.8,1.46,950.71,30.82
5806570,-0.06,-0.06,1.07,1.46,5.25,1.34,950.72,30.83
5806646,-0.04,-0.07,1.09,1.34,2.32,1.59,950.71,30.81
5806684,-0.04,-0.08,1.03,0.98,1.83,1.77,950.74,30.81
5806722,-0.05,-0.08,1.0,1.04,-0.18,1.46,950.72,30.82
5806812,-0.05,-0.09,1.02,0.0,-0.18,1.46,950.74,30.79
5806850,-0.06,-0.09,1.09,-0.06,-0.18,1.4,950.83,30.81
5806888,-0.06,-0.08,1.12,-0.37,0.0,1.16,950.79,30.8
5806926,-0.04,-0.07,1.12,-0.37,0.0,1.04,950.89,30.81
5806964,-0.03,-0.08,1.08,-0.31,1.71,0.73,951.0,30.8
5807002,-0.03,-0.09,1.07,0.18,1.28,0.67,951.05,30.81
5807040,-0.03,-0.1,1.0,0.49,1.65,0.43,951.01,30.82
5807090,-0.0,-0.1,0.99,0.24,1.77,0.06,951.11,30.8
5807128,-0.04,-0.07,0.98,0.18,1.71,0.06,951.11,30.8
5807166,-0.02,-0.1,1.01,0.18,1.89,-0.31,951.13,30.82
5807204,-0.02,-0.1,1.05,0.06,1.1,-0.55,951.12,30.82
5807242,-0.01,-0.09,1.04,0.0,1.53,-0.61,951.09,30.82
5807280,-0.05,-0.09,1.05,-0.06,1.46,-0.79,951.14,30.81
5807319,-0.01,-0.08,1.1,-0.37,1.95,-1.04,951.15,30.81
5807357,-0.03,-0.09,1.11,-0.31,1.34,-1.28,951.07,30.8
5807395,-0.02,-0.1,1.12,-0.43,1.77,-1.22,951.11,30.81
5807445,-0.03,-0.08,1.15,-0.37,0.43,-1.53,951.15,30.8
5807483,-0.02,-0.08,1.14,0.0,0.67,-1.53,951.16,30.82
5807521,-0.03,-0.09,1.21,0.55,0.92,-1.83,951.2,30.81
5807559,-0.02,-0.1,1.17,0.61,1.16,-1.89,951.24,30.81
5807597,-0.05,-0.07,1.24,1.22,0.24,-2.01,951.24,30.83
5807635,-0.05,-0.08,1.19,1.4,1.59,-2.2,951.26,30.82
5807673,-0.02,-0.06,1.22,1.46,1.1,-2.26,951.21,30.81
5807711,-0.01,-0.06,1.27,1.83,2.32,-2.44,951.25,30.82
5807750,-0.03,-0.11,1.22,2.08,1.83,-2.5,951.25,30.82
5807788,-0.05,-0.08,1.22,1.89,2.2,-2.56,951.19,30.82
5807837,-0.02,-0.07,1.19,2.38,3.72,-2.81,951.27,30.81
5807876,-0.05,-0.08,1.14,2.56,3.3,-2.99,951.36,30.82
5807914,-0.05,-0.09,1.09,2.87,4.21,-3.05,951.35,30.81
5807952,-0.04,-0.09,1.05,2.69,5.19,-3.23,951.36,30.81
5807990,-0.03,-0.09,1.05,2.62,6.1,-3.36,951.42,30.83
5808028,-0.05,-0.1,1.0,2.56,6.04,-3.36,951.41,30.81
5808066,-0.06,-0.09,1.03,2.56,6.47,-3.3,951.46,30.83
5808104,-0.03,-0.11,1.02,2.2,6.53,-3.36,951.52,30.82
5808142,-0.03,-0.1,1.0,1.83,6.77,-3.36,951.44,30.81
5808192,-0.05,-0.1,0.97,1.71,6.53,-3.23,951.49,30.8
5808230,-0.05,-0.09,0.96,1.65,5.8,-3.11,951.47,30.81
5808268,-0.05,-0.1,0.99,1.65,5.0,-3.11,951.52,30.81
5808307,-0.03,-0.11,0.97,1.28,4.76,-3.05,951.61,30.82
5808345,-0.06,-0.1,0.93,1.16,4.76,-2.99,951.56,30.82
5808383,-0.03,-0.09,0.96,0.98,4.88,-3.05,951.65,30.82
5808421,-0.05,-0.09,0.93,0.73,4.03,-2.99,951.62,30.82
5808459,-0.05,-0.11,0.93,0.67,4.03,-2.99,951.64,30.81
5808497,-0.05,-0.11,0.91,0.73,4.94,-3.17,951.6,30.81
5808535,-0.03,-0.1,0.95,0.85,4.03,-2.93,951.67,30.82
5808585,-0.05,-0.1,0.87,0.55,4.7,-3.05,951.69,30.8
5808623,-0.06,-0.1,0.9,0.85,4.52,-3.05,951.67,30.8
5808662,-0.05,-0.11,0.91,1.04,4.7,-2.99,951.71,30.81
5808700,-0.06,-0.11,0.91,1.28,3.97,-2.93,951.75,30.8
5808738,-0.05,-0.11,0.91,1.28,4.52,-2.87,951.76,30.82
5808776,-0.04,-0.1,0.95,1.46,4.46,-2.81,951.8,30.82
5808814,-0.06,-0.1,0.95,1.46,4.27,-2.69,951.81,30.81
5808852,-0.06,-0.11,0.94,1.46,4.09,-2.81,951.78,30.82
5808891,-0.06,-0.09,0.97,1.46,4.21,-2.69,951.71,30.81
5808940,-0.04,-0.1,0.99,1.28,4.64,-2.56,951.69,30.8
5808978,-0.05,-0.09,1.01,1.28,4.52,-2.44,951.72,30.8
5809017,-0.05,-0.09,1.08,1.4,4.39,-2.44,951.63,30.8
5809055,-0.05,-0.1,1.09,1.46,4.7,-2.44,951.7,30.8
5809093,-0.06,-0.08,1.09,1.22,4.09,-2.2,951.68,30.81
5809131,-0.05,-0.09,1.12,1.95,3.78,-2.26,951.7,30.82
5809169,-0.06,-0.09,1.06,1.89,4.46,-2.14,951.7,30.81
5809207,-0.07,-0.09,1.04,2.5,4.33,-2.01,951.66,30.81
5809246,-0.04,-0.09,1.0,2.32,5.37,-2.08,951.78,30.82
5809284,-0.04,-0.09,1.01,2.62,4.09,-2.01,951.78,30.81
5809333,-0.07,-0.1,0.97,2.38,3.97,-1.89,951.78,30.79
5809372,-0.09,-0.09,0.96,2.26,3.85,-1.65,951.82,30.8
5809410,-0.08,-0.09,0.99,2.32,3.3,-1.65,951.79,30.81
5809448,-0.06,-0.1,1.01,2.26,3.23,-1.46,951.81,30.81
5809486,-0.05,-0.09,0.99,2.5,3.72,-1.4,951.86,30.8
5809524,-0.06,-0.1,0.99,2.56,3.85,-1.22,951.87,30.81
5809562,-0.08,-0.09,0.97,2.38,2.81,-0.92,951.88,30.8
5809601,-0.08,-0.09,0.98,2.2,2.75,-0.73,951.91,30.82
5809639,-0.07,-0.08,1.02,2.44,1.34,-0.73,951.85,30.81
5809714,-0.06,-0.09,1.01,2.01,0.37,-0.49,951.89,30.79
5809753,-0.06,-0.09,0.98,1.53,1.28,-0.24,951.89,30.8
5809791,-0.06,-0.1,0.93,1.28,-0.24,-0.31,951.95,30.79
5809880,-0.06,-0.1,0.95,0.98,2.01,-0.12,951.9,30.76
5809919,-0.04,-0.08,1.07,0.92,0.98,0.0,951.97,30.78
5809957,-0.06,-0.11,1.05,1.34,1.59,-0.12,951.97,30.79
5809995,-0.05,-0.08,1.15,1.34,0.55,0.06,951.92,30.78
5810033,-0.09,-0.07,1.21,1.53,1.53,0.24,951.89,30.79
5810071,-0.07,-0.09,1.14,1.77,2.08,0.43,951.77,30.77
5810109,-0.07,-0.05,1.24,1.65,2.56,0.12,951.7,30.77
5810159,-0.03,-0.08,1.22,1.65,3.97,0.31,951.77,30.77
5810197,-0.05,-0.07,1.23,1.89,4.58,0.31,951.92,30.78
5810235,-0.05,-0.08,1.24,2.69,5.13,0.18,951.92,30.78
5810273,-0.04,-0.1,1.18,2.99,5.13,0.31,951.96,30.79
5810312,-0.06,-0.08,1.14,3.05,4.76,0.24,951.98,30.77
5810350,-0.04,-0.07,1.1,3.54,4.82,0.37,951.9,30.79
5810388,-0.04,-0.09,1.05,3.23,4.7,0.43,951.95,30.78
5810426,-0.04,-0.08,1.05,3.17,3.42,0.61,951.84,30.79
5810464,-0.05,-0.09,1.07,3.11,2.75,0.67,951.77,30.79
5810514,-0.06,-0.07,1.06,2.75,2.87,0.49,951.45,30.79
5810552,-0.05,-0.06,1.08,2.44,2.62,0.79,950.81,30.79
5810590,-0.03,-0.06,1.09,2.44,2.14,0.67,949.81,30.79
5810628,-0.05,-0.05,1.16,2.14,1.95,0.85,949.43,30.79
5810667,-0.03,-0.07,1.14,1.89,3.72,0.67,949.39,30.79
5810705,-0.02,-0.04,1.19,1.59,2.38,0.79,949.2,30.79
5810743,-0.03,-0.06,1.21,1.65,3.11,0.85,949.22,30.79
5810781,-0.05,-0.08,1.14,1.1,2.99,0.98,949.17,30.79
5810819,-0.06,-0.07,1.18,1.1,3.6,0.61,949.19,30.79
5810857,-0.04,-0.08,1.16,0.92,3.3,0.67,949.18,30.8
5810907,-0.04,-0.08,1.15,0.49,3.6,0.73,949.22,30.79
5810945,-0.05,-0.07,1.16,0.0,5.19,0.49,949.22,30.8
5810983,-0.03,-0.07,1.12,-0.12,5.07,0.49,949.17,30.79
5811021,-0.05,-0.07,1.15,-0.55,4.7,0.43,949.18,30.79
5811059,-0.02,-0.07,1.14,-0.73,5.43,0.61,949.21,30.79
5811098,-0.01,-0.08,1.15,-1.04,4.27,0.37,949.19,30.78
5811136,-0.06,-0.08,1.13,-0.85,4.39,0.24,949.28,30.78
5811174,-0.03,-0.07,1.16,-0.67,3.72,0.24,949.24,30.8
5811212,-0.03,-0.08,1.12,-0.61,4.58,0.18,949.27,30.79
5811262,-0.06,-0.07,1.08,-0.61,4.15,0.12,949.32,30.78
5811300,-0.03,-0.09,1.03,-0.43,5.55,-0.06,949.27,30.79
5811338,-0.03,-0.07,1.06,-0.55,6.16,-0.18,949.32,30.79
5811376,-0.03,-0.08,1.07,-0.06,5.86,-0.18,949.3,30.8
5811414,-0.04,-0.07,1.09,0.0,5.55,-0.18,949.29,30.8
5811452,-0.03,-0.07,1.14,0.18,6.1,-0.24,949.3,30.8
5811491,-0.04,-0.08,1.18,0.55,6.1,-0.37,949.26,30.79
5811529,-0.05,-0.08,1.17,0.49,6.04,-0.43,949.29,30.8
5811567,-0.05,-0.07,1.23,0.98,7.08,-0.37,949.28,30.81
5811605,-0.02,-0.08,1.21,1.1,7.93,-0.37,949.27,30.81
5811655,0.0,-0.07,1.22,1.28,6.53,-0.55,949.31,30.8
5811693,-0.06,-0.07,1.12,1.28,8.06,-0.43,949.27,30.8
5811731,-0.04,-0.08,1.09,1.28,7.32,-0.49,949.33,30.8
5811769,-0.01,-0.07,1.1,1.59,7.57,-0.67,949.3,30.81
5811807,-0.02,-0.09,0.98,1.59,8.67,-0.73,949.31,30.82
5811845,-0.03,-0.08,0.92,1.65,7.93,-0.73,949.34,30.83
5811883,0.0,-0.07,0.92,1.4,6.16,-0.98,949.43,30.82
5811922,0.0,-0.09,0.98,1.22,4.64,-0.98,949.37,30.82
5811960,-0.04,-0.1,0.93,1.16,3.91,-0.85,949.37,30.82
5812009,-0.03,-0.08,0.98,0.98,1.77,-1.04,949.39,30.81
5812048,-0.04,-0.09,0.97,0.92,-0.06,-1.22,949.39,30.81
5812086,-0.0,-0.08,1.05,0.31,-0.73,-1.46,949.46,30.81
5812124,-0.01,-0.08,1.02,0.31,1.34,-1.65,949.56,30.81
5812162,-0.03,-0.07,1.08,0.43,1.16,-1.83,949.67,30.82
5812200,-0.05,-0.08,1.11,0.67,1.4,-1.89,949.82,30.83
5812238,-0.03,-0.09,1.12,0.79,1.77,-2.2,949.86,30.82
5812276,-0.05,-0.09,1.07,1.16,1.1,-2.08,950.09,30.83
5812315,-0.02,-0.08,0.99,1.22,1.28,-2.08,950.06,30.84
5812353,-0.03,-0.08,0.93,1.16,0.98,-2.01,950.19,30.83
5812402,-0.05,-0.08,0.93,0.61,0.49,-1.89,950.17,30.81
5812441,-0.03,-0.09,0.94,0.43,1.28,-1.95,950.2,30.82
5812479,-0.04,-0.09,0.96,-0.18,1.34,-1.95,950.23,30.82
5812517,-0.04,-0.09,1.01,-0.12,1.83,-1.83,950.25,30.83
5812555,-0.01,-0.09,0.98,-0.18,2.5,-1.89,950.27,30.82
5812593,-0.03,-0.09,0.97,-0.18,2.62,-1.95,950.39,30.84
5812631,-0.03,-0.09,0.95,0.0,2.38,-1.83,950.39,30.83
5812669,-0.01,-0.1,0.89,0.43,2.99,-2.01,950.41,30.84
5812708,-0.01,-0.09,0.95,0.43,1.95,-2.26,950.43,30.85
5812783,0.01,-0.1,0.97,0.37,1.95,-2.38,950.47,30.8
5812822,-0.02,-0.1,0.97,-0.06,1.22,-2.69,950.4,30.81
5812860,0.0,-0.09,1.04,-0.31,-14.95,-2.69,950.4,30.81
5813024,-0.04,-0.1,1.03,0.79,3.23,-3.48,950.43,30.75
5813062,-0.01,-0.12,0.99,1.04,4.33,-3.78,950.49,30.78
5813100,-0.05,-0.1,0.93,0.92,4.27,-3.78,950.52,30.78
5813138,-0.04,-0.09,0.82,0.55,3.97,-3.54,950.42,30.78
5813176,-0.04,-0.1,0.85,0.61,1.65,-3.85,950.47,30.79
5813214,-0.06,-0.08,0.85,-0.18,2.5,-3.85,950.46,30.8
5813253,-0.05,-0.09,0.91,-0.73,2.01,-3.48,950.46,30.8
5813302,-0.05,-0.08,1.07,-0.61,2.2,-3.72,950.43,30.79
5813341,-0.08,-0.08,1.11,-0.61,2.87,-3.6,950.45,30.8
5813379,-0.06,-0.09,1.22,-0.37,3.72,-3.48,950.53,30.79
5813417,-0.04,-0.09,1.28,0.12,4.33,-3.72,950.45,30.8
5813455,-0.08,-0.08,1.24,0.12,4.88,-3.78,950.48,30.79
5813493,-0.06,-0.07,1.26,0.43,5.19,-3.6,950.52,30.8
5813531,-0.05,-0.07,1.31,0.85,4.76,-3.48,950.45,30.8
5813570,-0.08,-0.1,1.19,0.98,5.31,-3.42,950.45,30.8
5813608,-0.09,-0.07,1.25,1.65,4.88,-3.3,950.46,30.82
5813657,-0.07,-0.09,1.19,2.56,6.16,-3.11,950.47,30.8
5813696,-0.07,-0.07,1.17,2.62,4.39,-2.99,950.42,30.81
5813734,-0.08,-0.07,1.12,2.93,5.92,-2.93,950.44,30.81
5813772,-0.06,-0.09,1.04,2.75,5.49,-2.81,950.38,30.82
5813810,-0.06,-0.08,1.01,2.69,4.15,-2.81,950.41,30.82
5813848,-0.08,-0.09,0.93,2.56,3.91,-2.56,950.41,30.82
5813886,-0.07,-0.09,0.95,2.26,3.54,-2.5,950.44,30.82
5813925,-0.06,-0.09,0.9,1.83,3.85,-2.38,950.4,30.82
5813963,-0.06,-0.08,0.94,1.65,2.62,-2.2,950.4,30.82
5814001,-0.07,-0.09,0.88,1.16,2.62,-2.14,950.4,30.82
5814051,-0.08,-0.08,0.95,0.98,1.46,-2.08,950.4,30.81
5814089,-0.07,-0.09,0.93,0.85,2.81,-2.14,950.41,30.81
5814127,-0.08,-0.08,0.93,0.85,1.71,-1.83,950.36,30.82
5814165,-0.09,-0.09,0.98,0.92,1.53,-1.89,950.45,30.82
5814203,-0.08,-0.08,0.97,0.92,1.71,-1.83,950.4,30.82
5814241,-0.06,-0.09,1.02,1.22,3.05,-1.65,950.42,30.82
5814280,-0.09,-0.1,0.94,1.16,3.11,-1.46,950.4,30.83
5814318,-0.09,-0.07,0.95,1.34,2.32,-1.34,950.35,30.83
5814356,-0.1,-0.08,0.87,1.22,4.03,-1.22,950.41,30.83
5814406,-0.07,-0.07,0.89,1.16,2.87,-0.98,950.43,30.82
5814444,-0.07,-0.09,0.85,0.85,3.42,-0.92,950.46,30.85
5814482,-0.07,-0.08,0.94,1.22,2.56,-0.92,950.4,30.83
5814520,-0.08,-0.08,0.94,1.46,3.48,-0.85,950.39,30.84
5814558,-0.08,-0.08,0.94,1.4,2.99,-0.67,950.43,30.83
5814596,-0.07,-0.08,0.95,1.4,3.36,-0.79,950.44,30.84
5814635,-0.08,-0.09,0.93,1.28,3.48,-0.49,950.43,30.83
5814673,-0.06,-0.09,0.91,1.46,2.81,-0.43,950.52,30.85
5814711,-0.08,-0.09,0.88,1.46,2.62,-0.37,950.45,30.83
5814761,-0.05,-0.09,0.89,1.59,3.66,-0.24,950.52,30.84
5814799,-0.05,-0.08,0.89,1.71,2.5,-0.24,950.48,30.82
5814837,-0.07,-0.09,0.91,1.53,2.62,-0.18,950.45,30.83
5814875,-0.05,-0.09,0.91,1.46,3.11,-0.31,950.51,30.84
5814913,-0.04,-0.08,0.98,1.46,3.85,-0.31,950.52,30.85
5814951,-0.04,-0.09,0.95,1.53,3.66,-0.18,950.48,30.84
5814989,-0.04,-0.09,0.97,1.22,2.56,-0.37,950.47,30.83
5815028,-0.08,-0.09,0.94,1.46,3.17,-0.43,950.53,30.84
5815066,-0.04,-0.09,0.94,1.4,2.38,-0.18,950.53,30.84
5815104,-0.03,-0.09,0.92,1.22,2.26,-0.24,950.48,30.85
5815154,-0.03,-0.09,0.97,1.1,0.92,-0.37,950.49,30.84
5815192,-0.04,-0.1,0.95,1.04,2.08,-0.31,950.5,30.84
5815230,-0.05,-0.08,1.03,0.92,0.73,-0.43,950.51,30.85
5815268,-0.05,-0.08,1.05,1.16,0.98,-0.37,950.5,30.85
5815306,-0.06,-0.09,1.05,1.1,0.55,-0.43,950.56,30.85
5815344,-0.04,-0.09,1.1,1.22,1.46,-0.49,950.58,30.84
5815382,-0.05,-0.09,1.08,1.89,1.89,-0.79,950.54,30.84
5815420,-0.04,-0.08,1.08,1.95,2.69,-0.61,950.55,30.85
5815459,-0.03,-0.08,1.04,1.71,2.56,-0.73,950.57,30.84
5815509,-0.05,-0.09,1.03,1.77,2.38,-0.73,950.52,30.84
5815547,-0.07,-0.09,1.0,1.65,2.56,-0.79,950.61,30.84
5815585,-0.05,-0.08,1.01,1.28,2.69,-0.98,950.59,30.85
5815623,-0.03,-0.08,1.03,1.59,3.72,-1.1,950.56,30.84
5815661,-0.05,-0.08,1.03,1.65,3.72,-1.22,950.53,30.84
5815699,-0.06,-0.08,1.08,1.65,4.58,-1.16,950.52,30.84
5815737,-0.03,-0.08,1.15,1.83,4.88,-1.46,950.58,30.84
5815775,-0.06,-0.07,1.14,1.71,5.92,-1.46,950.53,30.84
5815814,-0.07,-0.08,1.13,2.08,5.0,-1.46,950.56,30.85
5815852,-0.04,-0.09,1.04,1.89,5.25,-1.4,950.53,30.85
5815927,-0.03,-0.08,1.01,1.89,3.72,-1.22,950.6,30.83
5815966,-0.07,-0.06,1.02,2.14,2.81,-1.28,950.55,30.84
5816004,-0.08,-0.08,1.06,2.26,4.27,-1.28,950.52,30.83
5816093,-0.04,-0.08,1.1,2.14,5.92,-1.46,950.59,30.8
5816132,-0.05,-0.07,1.12,2.26,6.77,-1.46,950.63,30.81
5816170,-0.07,-0.06,1.11,2.75,6.77,-1.34,950.62,30.83
5816208,-0.08,-0.08,1.02,3.05,6.04,-1.1,950.6,30.83
5816246,-0.04,-0.07,0.98,2.87,5.43,-1.4,950.54,30.83
5816284,-0.06,-0.09,0.99,3.3,4.27,-1.22,950.57,30.83
5816334,-0.04,-0.08,0.95,2.99,3.17,-1.04,950.46,30.82
5816372,-0.06,-0.08,0.95,2.75,2.08,-1.04,950.47,30.83
5816410,-0.04,-0.09,0.94,2.38,1.4,-1.04,950.38,30.83
5816448,-0.05,-0.09,0.92,2.01,-0.49,-0.92,950.38,30.83
5816487,-0.06,-0.08,0.86,1.53,-1.59,-1.22,950.43,30.84
5816525,-0.07,-0.07,0.88,1.16,-2.69,-1.28,950.34,30.84
5816563,-0.06,-0.09,0.9,1.22,-2.5,-1.22,950.44,30.86
5816601,-0.05,-0.08,0.93,0.85,-3.85,-1.16,950.39,30.84
5816639,-0.09,-0.08,0.94,0.73,-3.11,-1.16,950.4,30.84
5816677,-0.08,-0.09,0.94,0.67,-3.91,-1.16,950.43,30.85
5816727,-0.07,-0.08,0.98,0.43,-3.66,-1.34,950.4,30.82
5816765,-0.06,-0.08,1.0,0.43,-3.36,-1.34,950.4,30.84
5816803,-0.08,-0.08,1.0,0.31,-2.81,-1.28,950.5,30.84
5816842,-0.08,-0.07,1.01,0.55,-1.89,-1.34,950.51,30.84
5816880,-0.08,-0.07,1.05,0.92,-1.65,-1.22,950.55,30.86
5816918,-0.08,-0.07,1.1,1.16,-0.98,-1.28,950.48,30.84
5816956,-0.08,-0.07,1.09,1.46,-0.92,-1.22,950.56,30.86
5816994,-0.06,-0.07,1.11,1.4,-0.55,-1.16,950.59,30.86
5817032,-0.08,-0.08,1.09,1.59,-0.37,-1.04,950.48,30.85
5817082,-0.07,-0.07,1.05,1.65,-0.31,-0.85,950.57,30.84
5817120,-0.06,-0.08,1.03,1.89,0.06,-0.92,950.57,30.86
5817158,-0.07,-0.07,1.04,1.65,-0.79,-0.79,950.59,30.85
5817197,-0.05,-0.08,1.03,1.65,-0.37,-0.79,950.5,30.85
5817235,-0.08,-0.08,0.98,2.14,0.06,-0.73,950.59,30.86
5817273,-0.06,-0.09,0.98,2.26,-0.31,-0.67,950.53,30.85
5817311,-0.06,-0.08,0.99,2.38,0.37,-0.73,950.51,30.85
5817349,-0.06,-0.08,0.92,2.44,1.46,-0.85,950.56,30.86
5817387,-0.09,-0.08,0.93,2.56,1.95,-0.73,950.51,30.85
5817437,-0.07,-0.09,0.86,2.44,2.5,-0.79,950.5,30.84
5817475,-0.08,-0.08,0.9,2.2,2.62,-0.85,950.5,30.84
5817513,-0.09,-0.09,0.84,2.08,4.27,-0.67,950.53,30.84
5817552,-0.08,-0.08,0.85,1.71,4.46,-0.67,950.55,30.85
5817590,-0.09,-0.08,0.9,1.89,5.68,-0.61,950.49,30.85
5817628,-0.06,-0.08,0.89,1.59,5.68,-0.55,950.51,30.85
5817666,-0.09,-0.06,0.97,1.22,5.31,-0.61,950.48,30.86
5817704,-0.07,-0.07,1.0,0.98,6.71,-0.49,950.5,30.86
5817742,-0.09,-0.07,1.05,0.37,5.37,-0.43,950.47,30.85
5817780,-0.09,-0.06,1.13,0.43,5.37,-0.24,950.53,30.87
5817830,-0.11,-0.08,1.12,0.79,4.15,0.06,950.52,30.86
5817869,-0.07,-0.05,1.19,1.16,3.91,0.0,950.55,30.87
5817907,-0.08,-0.06,1.15,1.65,3.48,0.18,950.53,30.86
5817945,-0.09,-0.06,1.17,1.95,2.08,0.43,950.5,30.84
5817983,-0.09,-0.06,1.13,1.83,2.38,0.79,950.56,30.85
5818021,-0.09,-0.07,1.14,2.26,2.69,0.85,950.48,30.85
5818059,-0.08,-0.07,1.1,2.14,2.44,1.22,950.49,30.86
5818098,-0.09,-0.07,1.04,2.14,1.65,1.22,950.54,30.87
5818136,-0.1,-0.07,0.99,2.08,2.32,1.34,950.53,30.87
5818174,-0.08,-0.07,1.04,2.26,1.89,1.4,950.47,30.86
5818224,-0.08,-0.06,1.11,2.44,2.26,1.65,950.47,30.84
5818262,-0.09,-0.07,1.12,2.5,4.7,1.71,950.49,30.86
5818300,-0.07,-0.09,1.12,2.5,5.07,1.77,950.54,30.86
5818338,-0.08,-0.07,1.17,2.87,3.66,1.95,950.55,30.86
5818376,-0.09,-0.07,1.11,2.99,3.05,2.32,950.52,30.86
5818415,-0.1,-0.05,1.12,3.48,2.44,2.62,950.55,30.86
5818453,-0.07,-0.07,1.06,4.09,4.09,2.69,950.58,30.86
5818491,-0.09,-0.07,0.98,4.76,2.75,2.93,950.55,30.87
5818529,-0.06,-0.08,0.99,5.68,2.44,2.93,950.57,30.87
5818579,-0.05,-0.09,0.82,5.8,5.07,3.11,950.52,30.84
5818617,-0.06,-0.07,0.85,5.74,3.97,3.17,950.56,30.86
5818655,-0.07,-0.09,0.73,5.49,5.55,3.36,950.62,30.87
5818693,-0.08,-0.09,0.74,4.94,4.09,3.42,950.49,30.86
5818732,-0.05,-0.11,0.7,4.39,5.25,3.11,950.5,30.86
5818770,-0.06,-0.09,0.74,4.03,4.64,3.17,950.56,30.87
5818808,-0.03,-0.08,0.79,3.72,3.85,3.6,950.5,30.87
5818846,-0.04,-0.1,0.78,3.6,3.11,3.42,950.51,30.86
5818884,-0.06,-0.09,0.8,3.3,3.66,3.3,950.55,30.86
5818922,-0.04,-0.08,0.82,2.99,3.97,3.3,950.54,30.87
5818998,-0.06,-0.09,0.84,2.62,3.6,3.42,950.57,30.84
5819036,-0.03,-0.09,0.93,2.38,3.17,3.3,950.54,30.86
5819074,-0.05,-0.1,0.9,2.38,3.85,3.23,950.57,30.86
5819164,-0.03,-0.09,0.8,2.14,6.59,2.93,950.55,30.82
5819202,-0.03,-0.09,0.75,2.44,6.84,2.81,950.6,30.85
5819240,-0.01,-0.09,0.75,2.32,8.06,2.56,950.6,30.85
5819278,-0.02,-0.1,0.73,2.01,7.08,2.44,950.65,30.85
5819317,-0.02,-0.09,0.79,1.95,6.77,2.38,950.61,30.85
5819355,-0.01,-0.11,0.8,1.77,6.59,2.01,950.6,30.86
5819393,0.0,-0.1,0.83,1.89,4.46,1.83,950.71,30.87
5819443,-0.01,-0.09,0.81,1.71,3.6,1.71,950.55,30.84
5819481,-0.0,-0.09,0.84,1.4,4.27,1.34,950.63,30.86
5819519,-0.02,-0.1,0.82,1.59,4.76,1.22,950.63,30.85
5819557,-0.03,-0.09,0.87,1.53,3.66,1.22,950.6,30.86
5819595,-0.03,-0.1,0.85,0.92,3.78,0.85,950.6,30.87
5819634,-0.01,-0.1,0.93,0.67,4.39,0.67,950.65,30.88
5819672,-0.02,-0.09,1.01,0.92,3.17,0.55,950.64,30.88
5819710,-0.0,-0.1,1.01,0.67,3.17,0.61,950.66,30.86
5819748,0.0,-0.09,1.03,0.79,3.42,0.18,950.67,30.87
5819798,-0.02,-0.08,1.02,1.34,3.42,0.18,950.69,30.86
5819836,-0.03,-0.09,1.01,1.34,2.81,0.12,950.66,30.85
5819874,-0.04,-0.08,0.99,1.34,3.3,-0.31,950.7,30.86
5819912,-0.03,-0.08,1.0,1.53,2.93,-0.31,950.74,30.89
5819951,-0.03,-0.09,1.0,1.59,3.36,-0.37,950.72,30.87
5819989,-0.03,-0.09,0.99,1.65,2.69,-0.49,950.72,30.87
5820027,-0.05,-0.08,1.01,1.65,2.81,-0.61,950.75,30.87
5820065,-0.03,-0.09,1.02,1.83,2.56,-0.55,950.71,30.86
5820103,-0.04,-0.09,1.06,1.77,1.46,-0.73,950.75,30.88
5820141,-0.03,-0.09,1.06,1.95,2.14,-0.79,950.68,30.88
5820191,-0.05,-0.07,1.03,2.08,1.77,-0.92,950.72,30.86
5820229,-0.03,-0.08,1.1,2.38,2.81,-1.04,950.7,30.87
5820268,-0.02,-0.09,1.06,2.14,2.14,-1.22,950.72,30.86
5820306,-0.05,-0.07,1.16,2.2,2.93,-0.85,950.73,30.87
5820344,-0.05,-0.09,1.05,2.38,4.7,-1.22,950.74,30.86
5820382,-0.05,-0.07,1.12,2.56,2.99,-1.28,950.75,30.88
5820420,-0.01,-0.06,1.1,2.75,2.5,-1.16,950.78,30.87
5820458,-0.05,-0.08,1.02,3.05,2.32,-1.1,950.8,30.87
5820496,-0.02,-0.08,0.97,2.99,2.5,-1.22,950.78,30.88
5820546,-0.05,-0.07,0.96,3.48,0.92,-1.1,950.81,30.86
5820584,-0.04,-0.09,0.89,3.66,1.22,-1.1,950.76,30.87
5820623,-0.05,-0.08,0.86,3.6,1.04,-1.22,950.75,30.87
5820661,-0.05,-0.08,0.84,4.03,1.22,-1.28,950.79,30.87
5820699,-0.05,-0.09,0.77,3.36,1.71,-1.22,950.79,30.87
5820737,-0.06,-0.09,0.78,3.36,1.34,-1.22,950.75,30.87
5820775,-0.07,-0.09,0.7,3.23,2.87,-1.28,950.78,30.88
5820813,-0.04,-0.08,0.75,3.23,3.3,-1.34,950.75,30.87
5820851,-0.04,-0.09,0.69,3.11,3.23,-1.28,950.77,30.87
5820890,-0.06,-0.08,0.73,2.75,2.62,-1.34,950.81,30.87
5820939,-0.05,-0.1,0.73,2.08,3.36,-1.4,950.81,30.86
5820978,-0.05,-0.09,0.8,1.59,2.5,-1.4,950.76,30.86
5821016,-0.03,-0.09,0.8,1.22,3.3,-1.4,950.77,30.87
5821054,-0.05,-0.09,0.82,0.98,2.81,-1.53,950.81,30.87
5821092,-0.06,-0.09,0.82,0.98,4.46,-1.46,950.82,30.89
5821130,-0.05,-0.09,0.83,0.49,3.54,-1.59,950.8,30.88
5821168,-0.06,-0.08,0.88,0.43,3.78,-1.59,950.81,30.88
5821206,-0.06,-0.09,0.84,0.31,3.66,-1.65,950.88,30.87
5821244,-0.05,-0.08,0.92,0.24,3.54,-1.59,950.75,30.88
5821294,-0.06,-0.1,0.92,0.24,3.85,-1.46,950.84,30.87
5821332,-0.06,-0.08,0.97,0.06,2.93,-1.53,950.85,30.87
5821371,-0.08,-0.07,1.06,0.55,3.23,-1.46,950.84,30.88
5821409,-0.07,-0.09,1.04,0.55,3.3,-1.16,950.86,30.88
5821447,-0.05,-0.09,1.07,0.61,3.23,-1.28,950.82,30.86
5821485,-0.06,-0.09,1.06,0.98,3.66,-1.46,950.86,30.88
5821523,-0.06,-0.09,0.99,0.98,3.72,-1.22,950.91,30.88
5821561,-0.07,-0.09,0.97,0.92,3.54,-1.34,950.88,30.88
5821600,-0.07,-0.08,1.01,1.22,2.81,-1.16,950.96,30.89
5821638,-0.08,-0.09,1.0,1.16,3.48,-1.1,950.94,30.88
5821688,-0.08,-0.09,1.03,1.04,3.42,-1.1,950.96,30.85
5821726,-0.05,-0.09,1.03,0.98,3.91,-1.34,950.92,30.87
5821764,-0.08,-0.08,1.03,0.92,4.33,-1.16,950.99,30.88
5821802,-0.08,-0.08,1.06,1.34,4.33,-0.98,950.96,30.87
5821840,-0.09,-0.09,0.99,1.53,4.46,-1.1,950.93,30.89
5821878,-0.11,-0.07,0.99,1.65,3.6,-0.85,950.98,30.89
5821916,-0.09,-0.09,0.96,1.89,4.03,-0.73,950.97,30.87
5821955,-0.08,-0.09,0.96,1.71,4.21,-0.73,950.91,30.87
5821993,-0.09,-0.09,0.98,2.2,5.19,-0.61,950.94,30.89
5822069,-0.09,-0.07,1.02,2.08,5.13,-0.18,950.93,30.85
5822107,-0.09,-0.08,1.03,2.32,4.76,-0.18,950.94,30.86
5822145,-0.07,-0.09,1.05,2.01,4.52,0.0,950.97,30.86
5822235,-0.06,-0.09,1.0,2.56,3.85,0.12,951.06,30.82
5822273,-0.05,-0.09,0.99,2.62,4.7,0.31,951.01,30.84
5822311,-0.07,-0.09,0.91,2.44,3.97,0.49,951.1,30.86
5822349,-0.07,-0.08,0.96,2.81,4.27,0.55,951.05,30.86
5822387,-0.07,-0.1,0.89,2.56,4.33,0.55,951.11,30.86
5822425,-0.07,-0.09,0.91,2.69,3.48,0.61,951.08,30.86
5822464,-0.05,-0.09,0.84,2.44,4.27,0.37,951.11,30.88
5822514,-0.05,-0.09,0.88,2.01,3.72,0.37,951.11,30.86
5822552,-0.05,-0.1,0.86,1.77,3.17,0.55,951.12,30.86
5822590,-0.06,-0.09,0.87,1.59,3.11,0.61,951.08,30.86
5822628,-0.05,-0.09,0.91,1.34,2.56,0.61,951.17,30.86
5822666,-0.07,-0.1,0.92,1.1,2.87,0.55,951.14,30.87
5822704,-0.07,-0.08,0.93,0.73,1.28,0.67,951.15,30.88
5822742,-0.06,-0.09,0.96,0.79,1.95,0.79,951.13,30.87
5822781,-0.05,-0.1,0.96,0.61,2.69,0.55,951.17,30.88
5822819,-0.07,-0.08,0.95,0.37,2.08,0.67,951.17,30.87
5822869,-0.09,-0.09,0.94,0.85,3.42,0.67,951.16,30.86
5822907,-0.07,-0.1,0.93,0.67,3.54,0.61,951.24,30.88
5822945,-0.07,-0.09,0.94,0.55,2.99,0.73,951.21,30.88
5822983,-0.08,-0.07,1.01,0.85,2.62,0.73,951.25,30.88
5823021,-0.07,-0.09,1.0,1.22,3.78,0.67,951.18,30.86
5823060,-0.09,-0.08,1.03,1.59,4.09,0.67,951.27,30.88
5823098,-0.09,-0.08,1.07,2.08,4.76,0.85,951.24,30.89
5823136,-0.09,-0.08,1.09,2.5,6.29,0.67,951.23,30.88
5823174,-0.09,-0.08,1.06,2.69,7.63,0.61,951.28,30.88
5823212,-0.1,-0.08,1.1,3.05,8.42,0.61,951.21,30.89
5823262,-0.1,-0.09,1.05,3.3,10.19,0.92,951.24,30.88
5823300,-0.1,-0.09,1.07,3.3,10.8,0.98,951.21,30.88
5823338,-0.08,-0.08,1.07,3.42,10.56,1.1,951.26,30.87
5823377,-0.08,-0.08,1.11,3.66,9.58,1.34,951.26,30.88
5823415,-0.07,-0.09,1.08,3.85,10.74,1.28,951.23,30.87
5823453,-0.08,-0.08,1.13,3.97,10.19,1.28,951.28,30.89
5823491,-0.1,-0.08,1.16,4.21,9.89,1.71,951.28,30.88
5823529,-0.08,-0.08,1.14,4.39,9.28,1.95,951.34,30.89
5823568,-0.08,-0.07,1.18,4.33,8.73,2.08,951.35,30.9
5823606,-0.07,-0.08,1.07,3.91,8.06,2.26,951.3,30.88
5823656,-0.09,-0.07,1.11,3.72,5.92,2.56,951.34,30.89
5823694,-0.08,-0.1,1.03,3.78,5.74,2.44,951.35,30.87
5823732,-0.09,-0.08,1.05,3.23,4.7,2.32,951.33,30.88
5823770,-0.08,-0.09,1.03,2.93,4.64,2.75,951.37,30.88
5823808,-0.09,-0.09,0.99,2.62,4.39,2.62,951.32,30.88
5823846,-0.06,-0.08,1.02,2.32,4.64,2.75,951.38,30.88
5823884,-0.06,-0.09,1.01,2.14,4.58,2.62,951.39,30.9
5823923,-0.07,-0.09,0.99,1.89,4.7,2.81,951.48,30.9
5823961,-0.1,-0.09,1.01,1.89,4.46,2.75,951.4,30.89
5824010,-0.07,-0.09,1.01,1.89,5.25,2.69,951.46,30.88
5824049,-0.09,-0.08,1.02,1.71,5.43,2.56,951.43,30.89
5824087,-0.06,-0.08,1.02,1.46,5.92,2.62,951.35,30.89
5824125,-0.07,-0.09,1.02,1.46,5.8,2.69,951.45,30.89
5824163,-0.07,-0.09,1.03,1.53,5.25,2.69,951.45,30.89
5824201,-0.04,-0.09,1.01,1.4,5.13,2.69,951.44,30.89
5824239,-0.07,-0.09,0.99,1.53,4.64,2.75,951.48,30.89
5824278,-0.05,-0.1,0.98,1.46,4.09,2.75,951.49,30.88
5824316,-0.06,-0.09,0.95,1.16,3.42,2.62,951.51,30.89
5824354,-0.05,-0.09,0.99,1.46,3.05,2.69,951.52,30.89
5824404,-0.05,-0.1,0.96,1.4,2.56,2.93,951.49,30.89
5824442,-0.06,-0.09,0.95,1.53,2.56,2.69,951.52,30.88
5824480,-0.06,-0.09,0.92,1.59,1.89,2.69,951.52,30.89
5824518,-0.04,-0.1,0.93,1.77,1.83,2.56,951.58,30.91
5824556,-0.04,-0.09,0.89,1.34,1.34,2.38,951.59,30.89
5824594,-0.04,-0.09,0.87,1.34,1.71,2.14,951.62,30.89
5824633,-0.04,-0.1,0.88,1.16,1.1,2.08,951.56,30.89
5824671,-0.04,-0.1,0.84,1.16,1.59,1.95,951.56,30.9
5824709,-0.06,-0.1,0.84,1.16,1.1,1.83,951.57,30.89
5824747,-0.04,-0.09,0.86,1.16,1.53,1.59,951.64,30.9
5824797,-0.04,-0.1,0.85,0.92,1.77,1.4,951.61,30.89
5824835,-0.05,-0.1,0.85,0.98,2.75,1.34,951.56,30.89
5824873,-0.04,-0.09,0.86,0.92,2.87,1.4,951.72,30.9
5824911,-0.04,-0.09,0.91,0.98,2.5,1.1,951.61,30.89
5824949,-0.02,-0.1,0.91,0.92,2.44,1.16,951.62,30.89
5824988,-0.02,-0.09,0.89,0.55,2.38,1.04,951.64,30.9
5825026,-0.01,-0.1,0.93,0.55,1.71,0.55,951.66,30.89
5825064,-0.0,-0.1,0.95,0.0,2.26,0.61,951.75,30.91
5825102,-0.02,-0.1,1.02,0.31,2.26,0.43,951.67,30.89
5825178,-0.02,-0.08,1.05,0.18,2.44,-0.12,951.73,30.86
5825216,-0.0,-0.09,1.04,0.24,3.42,-0.12,951.8,30.89
5825254,0.0,-0.1,1.04,0.67,2.81,-0.31,951.76,30.87
5825343,-0.02,-0.09,1.14,1.04,2.93,-0.49,951.78,30.84
5825382,-0.04,-0.1,1.14,1.1,3.17,-0.61,951.77,30.87
5825420,-0.03,-0.09,1.17,0.79,2.75,-0.92,951.79,30.86
5825458,-0.01,-0.09,1.19,0.73,2.75,-0.98,951.77,30.87
5825496,-0.02,-0.08,1.18,0.73,2.26,-0.92,951.87,30.88
5825534,-0.01,-0.09,1.17,0.61,2.93,-1.34,951.86,30.89
5825572,-0.02,-0.09,1.18,0.85,2.81,-1.53,951.88,30.9
5825622,-0.02,-0.09,1.15,1.28,3.11,-1.59,951.91,30.87
5825660,-0.03,-0.09,1.11,1.71,3.54,-1.95,951.85,30.89
5825698,-0.02,-0.1,1.05,2.08,3.54,-2.08,951.94,30.89
5825737,-0.03,-0.09,1.06,1.89,4.27,-2.2,951.9,30.88
5825775,-0.02,-0.1,0.94,2.01,6.23,-2.26,951.89,30.89
5825813,-0.01,-0.08,0.95,1.65,4.88,-2.5,951.92,30.89
5825851,-0.01,-0.09,0.9,1.53,5.55,-2.69,951.88,30.88
5825889,-0.04,-0.1,0.85,1.04,4.7,-2.75,951.9,30.89
5825927,-0.02,-0.09,0.9,0.37,4.76,-2.81,951.87,30.9
5825977,-0.04,-0.1,0.88,0.06,4.94,-3.05,951.92,30.87
5826015,-0.04,-0.09,0.95,-0.37,5.07,-3.23,951.89,30.89
5826053,-0.04,-0.09,0.9,-0.43,5.37,-3.3,951.89,30.88
5826091,-0.06,-0.08,0.99,-0.67,4.82,-3.3,951.97,30.89
5826130,-0.07,-0.1,1.0,-0.79,6.71,-3.3,951.94,30.9
5826168,-0.07,-0.09,1.03,-0.61,5.98,-3.36,951.94,30.89
5826206,-0.08,-0.07,1.13,-0.31,5.92,-3.3,951.97,30.9
5826244,-0.06,-0.08,1.11,-0.43,6.23,-3.11,951.94,30.89
5826282,-0.07,-0.07,1.18,-0.06,5.49,-2.99,951.96,30.9
5826320,-0.07,-0.09,1.15,0.49,4.82,-2.93,952.01,30.91
5826370,-0.08,-0.07,1.18,1.1,3.91,-2.44,951.99,30.89
5826408,-0.06,-0.07,1.16,1.4,4.03,-2.44,952.02,30.9
5826446,-0.08,-0.06,1.16,1.53,3.54,-2.5,951.97,30.9
5826485,-0.09,-0.07,1.11,1.95,4.09,-2.2,951.96,30.91
5826523,-0.07,-0.08,1.12,1.77,3.6,-2.08,951.97,30.9
5826561,-0.09,-0.06,1.18,2.08,3.72,-2.01,951.92,30.89
5826599,-0.09,-0.07,1.15,2.32,4.27,-1.95,951.91,30.91
5826637,-0.07,-0.07,1.2,2.26,3.36,-1.89,951.98,30.91
5826675,-0.06,-0.08,1.17,2.56,3.3,-1.77,952.01,30.9
5826725,-0.09,-0.06,1.1,3.05,1.22,-1.59,951.99,30.89
5826763,-0.08,-0.06,1.02,3.6,1.71,-1.53,951.97,30.9
5826801,-0.07,-0.07,1.02,3.85,-0.06,-1.28,951.99,30.9
5826840,-0.09,-0.09,0.98,4.39,0.55,-1.1,951.99,30.91
5826878,-0.08,-0.1,0.93,4.46,0.0,-1.04,951.99,30.91
5826916,-0.08,-0.07,0.93,4.15,0.55,-1.04,951.95,30.9
5826954,-0.09,-0.08,0.87,3.78,0.79,-0.98,951.95,30.91
5826992,-0.09,-0.09,0.86,3.3,0.98,-0.61,952.0,30.9
5827030,-0.08,-0.09,0.85,2.99,1.22,-0.79,951.99,30.91
5827068,-0.08,-0.09,0.82,2.44,2.01,-0.73,951.97,30.91
5827118,-0.1,-0.07,0.89,2.44,0.79,-0.43,951.98,30.89
5827156,-0.08,-0.09,0.9,2.01,1.16,-0.31,952.01,30.9
5827194,-0.08,-0.08,0.94,1.95,1.71,-0.31,951.99,30.9
5827232,-0.08,-0.09,0.84,1.95,1.83,-0.06,952.03,30.9
5827271,-0.07,-0.08,0.88,2.01,0.92,-0.12,952.06,30.9
5827309,-0.07,-0.09,0.81,2.2,2.5,-0.31,952.03,30.9
5827347,-0.09,-0.08,0.81,2.38,1.71,0.24,952.03,30.9
5827385,-0.08,-0.1,0.83,2.38,2.14,0.24,952.1,30.9
5827423,-0.09,-0.09,0.82,1.95,1.77,0.12,952.06,30.91
5827473,-0.07,-0.07,0.88,2.38,2.26,0.24,952.11,30.89
5827511,-0.07,-0.09,0.88,2.32,1.46,0.24,952.09,30.91
5827549,-0.04,-0.08,0.89,2.38,0.67,0.31,952.16,30.91
5827587,-0.07,-0.08,0.92,2.38,0.06,0.55,952.09,30.9
5827625,-0.08,-0.06,0.89,2.5,0.55,0.61,952.13,30.9
5827664,-0.09,-0.08,0.91,2.5,-0.18,0.43,952.15,30.9
5827702,-0.09,-0.09,0.9,2.81,0.79,0.61,952.2,30.91
5827740,-0.06,-0.1,0.9,2.62,0.12,0.55,952.15,30.9
5827778,-0.06,-0.08,0.93,2.5,0.49,0.67,952.19,30.92
5827816,-0.08,-0.08,0.91,2.62,0.98,0.79,952.14,30.9
5827866,-0.09,-0.08,0.96,2.38,2.62,0.73,952.14,30.9
5827904,-0.08,-0.1,0.94,2.56,3.48,0.73,952.25,30.92
5827942,-0.06,-0.09,0.96,2.56,2.62,0.79,952.17,30.91
5827980,-0.04,-0.09,0.97,2.32,2.62,0.85,952.21,30.92
5828018,-0.05,-0.1,0.93,2.38,2.5,0.85,952.22,30.92
5828057,-0.05,-0.08,1.0,2.2,0.85,0.98,952.22,30.9
5828095,-0.05,-0.08,0.98,2.2,0.55,0.98,952.28,30.92
5828133,-0.05,-0.08,1.02,1.89,0.79,0.98,952.22,30.9
5828171,-0.07,-0.09,1.0,1.83,-0.18,0.98,952.33,30.91
5828247,-0.03,-0.09,0.97,1.71,-0.55,0.67,952.34,30.89
5828285,-0.03,-0.09,0.91,1.95,0.24,0.67,952.32,30.9
5828323,-0.07,-0.09,0.86,2.01,-0.98,0.49,952.33,30.9
5828413,-0.04,-0.09,0.83,1.77,0.55,0.31,952.38,30.87
5828451,-0.03,-0.09,0.84,1.28,1.4,0.37,952.38,30.88
5828489,-0.05,-0.09,0.88,1.4,0.49,0.31,952.38,30.89
5828527,-0.04,-0.09,0.94,0.92,1.71,0.12,952.32,30.88
5828565,-0.02,-0.08,1.03,0.43,0.0,0.12,952.38,30.89
5828603,-0.08,-0.08,1.07,0.61,1.46,0.37,952.42,30.9
5828641,-0.08,-0.1,1.04,0.12,1.65,0.18,952.44,30.9
5828691,-0.02,-0.08,1.2,0.67,2.81,-0.18,952.46,30.9
5828729,-0.0,-0.09,1.15,0.85,1.95,-0.12,952.43,30.9
5828767,-0.05,-0.08,1.15,1.04,3.23,-0.12,952.43,30.9
5828806,-0.07,-0.09,1.07,1.28,3.6,-0.24,952.48,30.9
5828844,-0.06,-0.08,1.14,1.34,3.05,-0.37,952.48,30.9
5828882,-0.05,-0.08,1.1,1.28,3.48,-0.31,952.47,30.9
5828920,-0.03,-0.08,1.1,1.46,3.6,-0.37,952.45,30.9
5828958,-0.04,-0.08,1.1,1.71,3.6,-0.55,952.51,30.9
5828996,-0.01,-0.09,1.12,1.71,3.3,-0.43,952.48,30.9
5829035,-0.06,-0.08,1.11,1.71,3.11,-0.37,952.55,30.91
5829084,-0.08,-0.08,1.08,2.01,4.15,-0.43,952.5,30.91
5829123,-0.04,-0.07,1.14,2.2,3.36,-0.37,952.21,30.91
5829161,0.01,-0.06,1.07,2.44,2.99,-0.55,951.0,30.91
5829199,-0.08,-0.11,1.03,2.38,3.6,-0.37,951.33,30.91
5829237,-0.07,-0.11,1.03,1.46,5.8,-0.49,952.32,30.89
5829275,-0.06,-0.08,1.08,1.22,4.58,-0.31,952.45,30.91
5829313,-0.07,-0.09,1.05,0.92,6.1,0.0,952.58,30.91
5829351,-0.11,-0.1,1.0,1.89,6.16,-0.18,952.55,30.91
5829390,-0.08,-0.08,1.03,1.28,6.47,0.0,953.05,30.92
5829439,-0.06,-0.08,1.01,1.46,4.82,0.06,953.94,30.9
5829477,-0.1,-0.13,1.02,2.01,5.07,0.43,954.32,30.9
5829516,-0.07,-0.14,0.9,2.01,6.84,0.43,954.71,30.91
5829554,-0.06,-0.13,0.95,2.44,6.47,0.55,954.73,30.91
5829592,-0.06,-0.13,0.81,2.56,6.53,0.67,954.78,30.91
5829630,-0.09,-0.12,0.73,1.89,7.39,1.04,954.82,30.91
5829668,-0.07,-0.14,0.67,1.71,8.06,1.1,954.8,30.9
5829706,-0.09,-0.18,0.64,1.89,6.71,1.1,954.76,30.91
5829744,-0.07,-0.09,0.72,1.59,6.77,1.16,954.9,30.92
5829783,-0.06,-0.13,0.65,1.53,6.65,1.65,954.85,30.9
5829832,-0.07,-0.11,0.73,1.1,5.74,1.65,954.85,30.9
5829871,-0.09,-0.15,0.67,1.95,6.16,1.77,954.95,30.91
5829909,-0.07,-0.13,0.76,2.26,5.0,1.65,954.95,30.9
5829947,-0.07,-0.12,0.78,2.75,4.7,1.95,954.87,30.92
5829985,-0.1,-0.14,0.78,2.69,3.91,2.26,954.93,30.92
5830023,-0.09,-0.17,0.77,3.23,2.69,2.38,954.95,30.92
5830061,-0.04,-0.11,0.75,1.71,2.56,2.44,955.03,30.91
5830099,-0.05,-0.11,0.75,2.44,1.95,2.56,954.94,30.92
5830137,-0.06,-0.13,0.78,2.99,1.1,2.69,955.0,30.92
5830187,-0.04,-0.13,0.79,2.93,1.16,2.75,955.0,30.9
5830225,-0.07,-0.17,0.77,3.42,0.67,2.5,955.09,30.91
5830264,-0.06,-0.12,0.78,3.85,0.55,2.44,955.06,30.91
5830302,-0.06,-0.15,0.73,4.15,0.73,2.32,955.11,30.91
5830340,-0.06,-0.13,0.71,3.85,0.67,2.26,955.02,30.92
5830378,-0.07,-0.14,0.78,4.39,1.16,2.14,955.09,30.9
5830416,-0.04,-0.16,0.7,4.27,3.23,2.26,955.09,30.91
5830454,-0.05,-0.11,0.76,3.97,2.38,1.95,955.1,30.91
5830492,-0.03,-0.14,0.69,3.23,4.09,2.2,955.15,30.91
5830530,-0.09,-0.15,0.7,2.99,3.3,2.14,955.06,30.91
5830580,-0.02,-0.16,0.77,3.91,3.3,2.14,955.19,30.89
5830618,-0.04,-0.12,0.85,2.87,2.38,2.08,955.22,30.9
5830656,-0.01,-0.1,0.87,2.44,2.93,1.95,955.12,30.88
5830695,-0.06,-0.12,0.91,2.75,1.95,2.01,955.12,30.88
5830733,-0.07,-0.16,0.91,2.14,4.21,2.2,955.26,30.91
5830771,-0.08,-0.14,0.94,3.05,2.01,1.65,955.27,30.89
5830809,-0.06,-0.14,0.91,3.05,1.71,1.65,955.43,30.9
5830847,-0.01,-0.14,0.9,3.42,3.6,1.28,955.31,30.91
5830885,-0.01,-0.14,0.85,3.48,4.82,1.22,955.32,30.9
5830923,-0.0,-0.13,0.81,2.44,5.25,1.16,955.44,30.89
5830973,-0.03,-0.14,0.83,3.17,4.21,0.73,955.37,30.88
5831011,0.02,-0.14,0.83,2.87,4.82,0.79,955.45,30.89
5831050,-0.03,-0.13,0.88,2.93,3.91,0.49,955.46,30.89
5831088,-0.02,-0.12,0.88,2.93,3.11,0.49,955.41,30.89
5831126,-0.05,-0.16,0.92,2.81,2.32,0.24,955.35,30.89
5831164,-0.02,-0.11,1.0,2.44,2.38,0.18,955.51,30.88
5831202,-0.0,-0.13,1.01,2.81,2.32,0.18,955.31,30.89
5831240,-0.03,-0.12,0.95,3.23,2.62,-0.06,955.46,30.89
5831278,-0.03,-0.15,0.95,2.32,4.15,-0.12,955.44,30.89
5831354,-0.06,-0.15,0.93,2.01,4.82,-0.43,955.65,30.86
5831392,-0.05,-0.15,0.9,2.32,3.6,-0.37,955.6,30.88
5831431,-0.07,-0.13,0.93,2.5,3.05,-0.61,955.62,30.87
5831520,-0.01,-0.13,0.94,2.32,2.62,-0.98,955.52,30.83
5831558,-0.01,-0.13,0.94,1.71,2.87,-1.16,955.6,30.86
5831596,-0.01,-0.14,0.98,1.4,4.21,-0.98,955.57,30.87
5831634,0.01,-0.13,0.93,0.31,5.68,-1.1,955.66,30.86
5831673,-0.04,-0.12,0.92,0.79,3.6,-1.22,955.68,30.86
5831711,-0.08,-0.15,0.88,1.1,4.27,-1.1,955.67,30.86
5831749,-0.08,-0.11,0.85,0.67,4.64,-1.22,955.65,30.86
5831799,-0.06,-0.15,0.91,0.79,6.53,-1.34,955.82,30.86
5831837,-0.07,-0.13,0.92,0.31,4.09,-0.98,955.71,30.87
5831875,-0.08,-0.13,0.98,0.85,5.98,-0.79,955.81,30.87
5831913,-0.04,-0.13,1.0,1.28,5.74,-0.98,955.93,30.85
5831951,-0.06,-0.12,1.01,1.4,4.76,-0.92,955.82,30.85
5831989,-0.06,-0.12,0.96,1.77,4.88,-0.73,955.85,30.87
5832028,-0.05,-0.14,0.95,1.77,4.52,-0.73,955.86,30.86
5832066,-0.04,-0.14,0.9,1.53,5.43,-0.85,955.86,30.87
5832104,-0.03,-0.13,0.93,0.0,4.76,-0.37,955.91,30.88
5832154,-0.09,-0.15,0.98,1.04,4.21,-0.31,955.91,30.86
5832192,-0.06,-0.12,1.06,0.43,5.86,-0.43,956.0,30.87
5832230,-0.09,-0.15,1.03,0.79,5.19,-0.24,955.98,30.87
5832268,-0.06,-0.13,1.11,1.1,2.93,-0.06,956.0,30.88
5832306,-0.04,-0.11,1.04,0.61,3.72,-0.18,955.84,30.87
5832345,-0.02,-0.09,1.07,1.28,3.3,0.0,955.82,30.88
5832383,-0.03,-0.13,1.09,1.34,1.83,0.0,955.83,30.87
5832421,-0.08,-0.11,1.05,1.34,0.24,0.37,955.93,30.89
5832459,-0.1,-0.15,0.96,0.61,1.77,0.37,955.98,30.87
5832497,-0.05,-0.12,1.13,0.0,0.55,0.43,956.08,30.87
5832547,-0.09,-0.14,1.05,0.85,-0.31,0.98,956.15,30.88
5832585,-0.06,-0.11,1.1,0.73,-1.46,0.79,955.99,30.87
5832623,-0.07,-0.12,1.08,0.79,-0.31,0.85,955.85,30.86
5832661,-0.03,-0.11,1.13,0.67,-0.61,0.92,956.03,30.87
5832699,-0.08,-0.1,1.1,0.79,-1.1,0.98,955.99,30.87
5832738,-0.04,-0.11,1.07,0.61,1.65,1.04,956.05,30.86
5832776,-0.06,-0.12,1.06,1.34,-0.06,0.79,956.01,30.87
5832814,-0.06,-0.09,1.11,0.98,-0.92,0.98,956.06,30.87
5832852,-0.04,-0.15,1.11,1.59,-1.77,1.04,956.12,30.87
5832902,-0.07,-0.11,1.11,1.28,-0.12,0.98,956.15,30.86
5832940,-0.02,-0.11,1.1,0.73,0.0,1.16,956.3,30.85
5832978,-0.04,-0.11,1.05,1.83,0.61,0.61,956.34,30.87
5833016,-0.04,-0.13,1.01,1.77,0.73,0.37,956.23,30.86
5833054,-0.02,-0.15,1.03,1.89,0.92,0.49,956.31,30.86
5833092,-0.05,-0.14,0.97,1.4,2.56,0.12,956.26,30.87
5833131,-0.04,-0.12,0.95,1.28,1.59,0.43,956.34,30.84
5833169,-0.06,-0.12,0.96,1.59,1.59,0.06,956.4,30.88
5833207,-0.04,-0.11,0.95,1.1,3.11,0.18,956.29,30.87
5833245,-0.05,-0.13,0.95,1.95,3.36,0.0,956.43,30.88
5833295,-0.05,-0.13,0.9,1.83,3.17,-0.18,956.55,30.86
5833333,-0.0,-0.13,0.96,1.71,3.17,-0.24,956.44,30.88
5833371,-0.02,-0.13,0.94,1.16,3.72,-0.24,956.46,30.87
5833409,-0.01,-0.14,0.94,0.73,4.76,-0.18,956.44,30.86
5833447,-0.04,-0.13,0.92,1.46,5.07,-0.55,956.45,30.86
5833485,-0.04,-0.11,1.01,1.71,3.05,-0.55,956.53,30.88
5833524,-0.05,-0.15,0.93,1.46,5.68,-0.61,956.48,30.87
5833562,-0.04,-0.11,1.05,1.53,4.21,-0.61,956.52,30.88
5833600,-0.04,-0.14,1.03,2.38,4.76,-0.67,956.6,30.88
5833638,-0.03,-0.1,0.94,1.71,5.62,-0.79,956.49,30.87
5833688,-0.03,-0.1,1.0,1.89,5.98,-0.61,956.52,30.85
5833726,-0.04,-0.1,1.04,1.53,6.65,-0.73,956.48,30.86
5833764,-0.04,-0.14,1.0,1.4,6.53,-0.73,956.59,30.86
5833802,-0.06,-0.13,1.02,1.77,4.46,-0.73,956.59,30.87
5833841,-0.05,-0.12,1.02,0.92,5.49,-0.61,956.47,30.87
5833879,-0.04,-0.13,1.06,0.79,5.86,-0.61,956.66,30.88
5833917,-0.03,-0.09,0.99,0.67,6.71,-0.55,956.65,30.87
5833955,-0.07,-0.11,0.99,1.71,5.25,-0.67,956.67,30.88
5833993,-0.06,-0.13,0.96,2.08,5.31,-0.73,956.61,30.87
5834043,-0.06,-0.14,0.98,1.95,6.71,-0.73,956.7,30.86
5834081,-0.07,-0.12,0.98,2.38,4.52,-0.92,956.82,30.86
5834120,-0.06,-0.13,1.02,1.89,4.21,-0.55,956.67,30.86
5834158,-0.03,-0.1,1.02,1.53,4.7,-0.43,956.66,30.86
5834196,-0.05,-0.11,1.11,1.16,4.58,-0.55,956.71,30.86
5834234,-0.03,-0.11,1.08,1.83,5.13,-0.43,956.68,30.86
5834272,-0.03,-0.13,1.05,2.2,5.13,-0.43,956.71,30.86
5834310,-0.02,-0.1,1.04,1.65,5.07,-0.49,956.75,30.86
5834348,-0.07,-0.12,1.06,1.65,4.15,-0.37,956.79,30.85
5834387,-0.04,-0.08,1.06,0.37,4.39,-0.06,956.8,30.86
5834464,-0.06,-0.14,1.1,1.4,3.36,-0.12,956.85,30.83
5834502,-0.09,-0.1,1.12,1.65,3.05,-0.12,956.79,30.84
5834540,-0.06,-0.11,1.13,2.14,2.5,-0.06,956.75,30.86
5834629,-0.1,-0.08,1.09,2.38,2.08,0.24,956.89,30.81
5834668,-0.06,-0.13,1.01,2.44,0.73,0.06,956.94,30.83
5834706,-0.05,-0.1,1.0,1.4,1.04,0.12,956.93,30.84
5834744,-0.05,-0.12,0.98,1.53,2.08,0.49,956.9,30.84
5834782,-0.06,-0.12,1.03,1.95,0.73,0.31,957.03,30.84
5834820,-0.04,-0.12,0.93,2.2,2.38,0.37,956.98,30.85
5834870,-0.05,-0.13,0.94,2.87,0.73,0.49,956.96,30.81
5834908,-0.1,-0.13,0.84,3.11,1.77,0.31,957.07,30.82
5834946,-0.07,-0.13,0.87,3.42,0.12,0.49,956.97,30.82
5834984,-0.03,-0.11,0.86,2.14,2.26,0.67,957.07,30.84
5835023,-0.09,-0.12,0.91,2.01,0.92,0.92,957.08,30.83
5835061,-0.05,-0.12,0.98,2.14,2.32,0.67,957.01,30.83
5835099,-0.07,-0.11,0.99,1.89,2.81,0.92,956.98,30.84
5835137,-0.07,-0.12,1.02,1.71,2.2,0.98,957.04,30.85
5835175,-0.07,-0.1,1.02,1.1,4.39,1.04,957.05,30.84
5835213,-0.06,-0.1,1.1,1.28,3.6,1.22,956.97,30.84
5835263,-0.06,-0.08,1.08,0.85,3.05,1.04,957.11,30.84
5835301,-0.08,-0.1,1.16,1.4,3.66,1.46,957.09,30.83
5835339,-0.01,-0.13,1.06,1.89,4.27,1.28,957.19,30.83
5835378,-0.02,-0.12,1.05,2.26,4.03,1.4,957.22,30.84
5835416,-0.05,-0.09,1.01,2.44,3.05,1.28,957.1,30.84
5835454,-0.06,-0.12,0.99,2.56,2.32,1.46,957.09,30.84
5835492,-0.04,-0.1,0.98,1.46,2.38,1.65,957.2,30.85
5835530,-0.07,-0.09,1.04,2.38,0.18,1.83,957.06,30.86
5835568,-0.09,-0.13,0.95,2.26,0.24,2.2,957.11,30.84
5835618,-0.08,-0.11,1.0,1.53,-1.16,2.38,957.12,30.83
5835656,-0.07,-0.15,0.9,1.53,-0.61,2.08,957.18,30.83
5835694,-0.04,-0.08,0.87,0.12,1.77,2.2,957.23,30.84
5835733,-0.07,-0.11,0.8,0.55,3.48,2.2,957.25,30.86
5835771,-0.09,-0.12,0.8,0.24,2.69,2.2,957.32,30.85
5835809,-0.11,-0.12,0.82,0.85,3.54,2.01,957.34,30.85
5835847,-0.07,-0.13,0.79,0.85,5.49,1.83,957.28,30.85
5835885,-0.09,-0.11,0.95,1.04,6.23,1.83,957.23,30.84
5835923,-0.05,-0.11,0.99,1.04,9.64,2.08,957.3,30.84
5835961,-0.04,-0.09,1.16,0.98,11.17,2.26,957.23,30.86
5836011,-0.02,-0.05,1.18,0.12,12.88,2.38,957.28,30.84
5836050,-0.04,-0.08,1.2,1.16,11.78,2.69,957.22,30.85
5836088,-0.01,-0.09,1.26,0.67,11.47,2.99,957.24,30.84
5836126,-0.05,-0.1,1.21,1.4,9.77,3.36,957.27,30.84
5836164,-0.07,-0.09,1.25,1.28,8.91,3.66,957.3,30.86
5836202,-0.03,-0.06,1.12,0.92,9.22,3.54,957.45,30.85
5836240,-0.01,-0.09,1.08,1.04,8.91,3.78,957.44,30.84
5836278,-0.0,-0.12,1.15,2.01,7.45,3.6,957.33,30.86
5836317,-0.05,-0.12,1.04,1.95,6.59,3.11,957.31,30.86
5836355,-0.05,-0.11,1.1,2.08,5.13,3.17,957.43,30.86
5836405,0.01,-0.11,1.1,0.92,5.68,3.17,957.39,30.83
5836443,-0.02,-0.08,1.1,1.16,5.68,2.56,957.36,30.84
5836481,-0.05,-0.12,1.07,0.49,6.96,2.62,957.44,30.85
5836519,-0.04,-0.11,1.12,0.49,6.29,2.5,957.52,30.84
5836557,0.02,-0.08,1.09,-0.12,6.59,2.2,957.44,30.84
5836595,-0.02,-0.09,1.02,-0.49,7.08,1.95,957.43,30.85
5836633,-0.04,-0.1,1.04,-0.31,7.39,1.89,957.36,30.86
5836672,-0.01,-0.13,1.08,0.43,5.92,1.59,957.3,30.84
5836710,-0.02,-0.11,1.09,-0.43,6.29,1.1,957.34,30.86
5836760,-0.05,-0.07,1.27,-1.46,6.47,1.28,957.33,30.84
5836798,0.0,-0.06,1.16,-0.92,6.23,0.79,957.37,30.84
5836836,-0.03,-0.06,1.24,-0.73,7.75,0.61,957.38,30.84
5836874,-0.02,-0.11,1.14,-0.49,8.12,0.92,957.43,30.85
5836912,-0.02,-0.06,1.15,-0.67,5.19,0.79,957.54,30.86
5836950,-0.06,-0.08,1.14,-0.12,6.77,1.04,957.57,30.85
5836989,-0.02,-0.1,1.04,0.85,4.76,1.04,957.54,30.85
5837027,-0.04,-0.07,1.12,1.22,5.19,1.04,957.61,30.85
5837065,-0.06,-0.11,1.05,1.95,3.36,1.16,957.53,30.87
5837103,-0.06,-0.09,1.07,2.2,1.59,1.1,957.61,30.86
5837153,-0.03,-0.11,0.99,2.62,2.08,1.16,957.6,30.85
5837191,-0.02,-0.09,1.07,2.93,0.31,1.1,957.72,30.86
5837229,-0.03,-0.08,1.08,3.36,1.34,0.92,957.67,30.85
5837267,-0.04,-0.09,1.01,3.42,1.89,0.98,957.67,30.86
5837305,-0.03,-0.1,1.0,3.6,2.2,0.79,957.55,30.86
5837344,-0.04,-0.13,0.98,3.72,3.6,0.55,957.72,30.86
5837382,-0.06,-0.13,0.92,4.03,2.62,0.49,957.66,30.86
5837420,-0.05,-0.11,0.88,4.03,0.73,0.43,957.93,30.86
5837458,-0.03,-0.12,0.85,4.64,0.24,0.49,957.88,30.86
5837534,-0.06,-0.11,0.83,3.78,1.4,0.61,957.84,30.82
5837572,-0.07,-0.11,0.73,3.54,1.4,0.67,957.87,30.85
5837610,-0.1,-0.12,0.82,2.32,1.71,0.98,957.93,30.85
5837700,-0.05,-0.1,0.89,1.83,3.23,0.67,957.86,30.81
5837738,-0.05,-0.14,0.81,1.71,5.0,0.55,957.94,30.82
5837776,-0.01,-0.1,0.94,2.56,2.5,0.18,957.92,30.84
5837814,-0.04,-0.14,0.89,1.89,5.74,0.24,957.85,30.83
5837852,-0.01,-0.12,0.84,1.95,4.64,0.55,957.91,30.84
5837890,-0.06,-0.11,0.93,3.3,3.11,0.24,957.89,30.84
5837929,-0.01,-0.12,0.81,2.62,5.8,0.18,957.79,30.84
5837978,-0.03,-0.11,0.94,2.93,4.88,0.0,957.91,30.83
5838016,-0.06,-0.12,0.85,2.99,5.43,0.18,957.95,30.84
5838055,-0.04,-0.11,0.89,2.38,3.42,0.18,957.84,30.85
5838093,-0.05,-0.09,0.93,1.34,4.58,0.24,957.88,30.84
5838131,-0.05,-0.09,0.96,1.65,6.35,0.12,957.86,30.85
5838169,-0.02,-0.12,0.83,0.98,4.94,0.0,957.83,30.84
5838207,-0.02,-0.1,0.94,0.37,3.05,0.06,957.89,30.84
5838245,-0.02,-0.14,0.75,0.24,6.47,0.0,957.97,30.84
5838283,-0.07,-0.1,1.04,-0.98,3.17,0.18,958.07,30.83
5838322,-0.03,-0.08,1.07,-0.55,5.62,0.49,958.04,30.84
5838371,-0.05,-0.11,1.06,0.18,2.75,0.0,958.01,30.83
5838409,-0.02,-0.11,1.11,0.79,3.11,-0.12,958.07,30.84
5838448,-0.0,-0.12,1.01,0.31,4.09,-0.12,958.04,30.83
5838486,-0.04,-0.12,1.08,0.37,3.97,0.0,958.06,30.84
5838524,-0.05,-0.1,1.01,0.49,3.48,0.24,958.16,30.85
5838562,-0.04,-0.11,1.07,1.95,0.18,0.06,958.06,30.84
5838600,-0.06,-0.09,1.06,2.26,1.04,-0.18,958.06,30.85
5838638,-0.05,-0.08,1.06,1.83,-1.28,0.12,958.16,30.85
5838676,-0.01,-0.12,0.98,2.26,-0.85,0.18,958.12,30.84
5838726,-0.07,-0.12,0.99,2.01,-1.65,0.24,958.17,30.84
5838764,-0.09,-0.11,0.92,2.2,-2.14,0.67,958.34,30.86
5838802,-0.06,-0.09,0.88,2.5,-3.6,0.24,958.27,30.83
5838841,-0.06,-0.09,0.9,1.46,-2.08,0.43,958.3,30.85
5838879,-0.03,-0.12,0.81,2.2,-2.32,0.31,958.39,30.84
5838917,-0.03,-0.12,0.9,2.14,-1.95,0.37,958.31,30.84
5838955,-0.03,-0.1,0.83,1.71,-0.43,0.31,958.2,30.83
5838993,-0.08,-0.09,0.89,1.77,-0.49,0.24,958.19,30.85
5839031,-0.1,-0.12,0.9,1.53,1.4,0.31,958.27,30.85
5839069,-0.07,-0.11,0.91,0.92,1.1,0.24,958.18,30.85
5839119,-0.07,-0.08,0.96,0.43,1.53,0.43,958.06,30.83
5839157,-0.06,-0.09,0.98,0.85,2.56,0.43,958.12,30.84
5839196,-0.07,-0.09,0.97,0.61,2.56,0.55,958.11,30.83
5839234,-0.08,-0.08,1.05,0.79,2.32,0.79,958.14,30.84
5839272,-0.07,-0.09,1.0,0.73,4.46,0.98,958.24,30.83
5839310,-0.07,-0.07,1.07,0.98,3.91,0.85,958.25,30.83
5839348,-0.06,-0.08,1.07,1.77,5.07,1.04,958.24,30.83
5839386,-0.06,-0.08,1.01,1.77,3.78,1.4,958.3,30.83
5839425,-0.06,-0.07,1.03,2.44,3.78,1.46,958.31,30.84
5839475,-0.09,-0.09,0.91,2.32,3.78,1.65,958.29,30.83
5839513,-0.09,-0.06,0.99,2.5,2.81,1.95,958.32,30.84
5839551,-0.05,-0.09,0.9,2.56,3.36,1.95,958.35,30.84
5839589,-0.06,-0.1,0.92,2.38,3.42,1.95,958.31,30.84
5839627,-0.08,-0.08,0.92,2.32,4.27,2.2,958.39,30.84
5839665,-0.08,-0.09,0.87,2.5,2.5,2.44,958.39,30.86
5839703,-0.04,-0.08,0.91,2.32,2.75,2.5,958.33,30.85
5839742,-0.08,-0.09,0.83,2.14,3.48,2.5,958.32,30.84
5839780,-0.09,-0.09,0.85,2.01,2.62,2.93,958.42,30.84
5839818,-0.06,-0.09,0.78,1.71,3.42,2.87,958.37,30.85
5839868,-0.06,-0.08,0.85,1.16,2.69,3.6,958.42,30.83
5839906,-0.07,-0.1,0.8,0.73,3.42,3.72,958.44,30.84
5839944,-0.07,-0.09,0.88,0.43,2.44,3.85,958.47,30.83
5839982,-0.06,-0.09,0.93,0.24,3.11,3.72,958.4,30.83
5840021,-0.05,-0.09,0.92,0.12,2.87,3.91,958.44,30.84
5840059,-0.05,-0.08,0.99,0.31,3.66,4.03,958.46,30.84
5840097,-0.05,-0.08,0.98,0.37,3.6,3.85,958.51,30.84
5840135,-0.05,-0.08,1.0,0.67,2.81,4.03,958.51,30.84
5840173,-0.06,-0.08,1.01,0.92,4.21,3.97,958.45,30.82
5840211,-0.05,-0.06,1.07,1.1,3.85,3.91,958.39,30.84
5840261,-0.04,-0.06,1.15,1.46,4.09,3.72,958.34,30.82
5840299,-0.04,-0.06,1.16,1.89,4.46,3.91,958.33,30.82
5840338,-0.03,-0.07,1.2,2.14,5.07,3.78,958.27,30.82
5840376,-0.03,-0.05,1.21,2.5,5.37,3.6,958.24,30.83
5840414,-0.04,-0.04,1.22,2.69,5.49,3.66,958.22,30.82
5840452,-0.04,-0.05,1.2,2.93,5.92,3.54,958.19,30.83
5840490,-0.03,-0.06,1.17,3.11,6.35,3.36,958.28,30.82
5840528,-0.02,-0.07,1.19,3.3,6.04,3.48,958.26,30.82
5840567,-0.03,-0.06,1.17,3.48,6.1,3.3,958.3,30.82
5840642,-0.02,-0.05,1.13,3.6,4.64,3.42,958.45,30.8
5840680,-0.05,-0.09,1.06,3.72,5.25,3.36,958.4,30.8
5840719,-0.01,-0.08,1.08,3.6,3.91,3.3,958.47,30.82
5840808,-0.04,-0.08,1.02,3.42,3.72,3.05,958.5,30.78
5840846,-0.02,-0.09,0.98,3.3,4.88,2.93,958.58,30.79
5840884,-0.04,-0.08,0.96,3.42,3.42,2.93,958.63,30.8
5840922,-0.05,-0.08,0.93,3.05,3.91,3.11,958.69,30.8
5840961,-0.04,-0.09,0.87,2.87,3.6,2.87,958.72,30.81
5840999,-0.02,-0.08,0.94,2.5,3.42,2.99,958.73,30.79
5841037,-0.02,-0.09,0.94,2.26,2.75,3.17,958.8,30.8
5841087,-0.04,-0.1,0.95,2.32,2.5,3.17,958.82,30.81
5841125,-0.03,-0.09,0.91,1.95,3.66,3.3,958.9,30.8
5841163,-0.04,-0.08,0.95,2.01,2.38,3.23,958.91,30.82
5841201,-0.04,-0.1,0.85,1.71,2.2,3.3,958.95,30.84
5841239,-0.01,-0.09,0.86,1.71,1.71,3.05,958.95,30.81
5841277,-0.02,-0.09,0.86,1.71,2.2,2.99,958.97,30.82
5841316,-0.01,-0.09,0.87,1.34,1.28,2.93,959.0,30.81
5841354,-0.05,-0.1,0.86,1.34,1.71,2.81,959.03,30.82
5841392,-0.05,-0.1,0.88,1.1,2.5,2.75,959.09,30.83
5841430,-0.02,-0.1,0.91,0.92,2.81,2.56,959.06,30.81
5841480,-0.02,-0.09,0.91,0.73,3.42,2.32,958.96,30.82
5841518,-0.02,-0.09,0.94,0.67,4.15,2.26,959.02,30.83
5841556,-0.04,-0.09,0.93,0.67,4.94,2.08,959.05,30.83
5841594,-0.04,-0.09,0.97,0.79,4.7,2.08,958.96,30.82
5841632,-0.04,-0.08,0.98,0.85,4.7,2.14,959.04,30.83
5841670,-0.03,-0.07,1.01,1.28,5.07,1.89,958.95,30.83
5841709,-0.02,-0.07,1.02,1.4,4.76,1.95,958.99,30.82
5841747,-0.03,-0.08,1.05,1.46,4.52,1.83,959.02,30.84
5841785,-0.03,-0.09,1.02,1.89,4.64,1.95,959.04,30.83
5841835,-0.03,-0.06,1.02,2.14,4.21,1.83,959.04,30.81
5841873,-0.04,-0.08,1.0,2.01,3.85,1.71,959.09,30.82
5841911,-0.03,-0.09,0.98,2.14,3.72,1.65,959.08,30.82
5841949,-0.03,-0.08,0.98,2.44,3.72,1.71,959.16,30.82
5841987,-0.01,-0.08,1.0,2.62,3.3,1.59,959.14,30.83
5842025,-0.03,-0.08,0.98,2.56,3.85,1.65,959.18,30.83
5842064,-0.04,-0.07,1.0,2.69,3.17,1.53,959.22,30.83
5842102,-0.04,-0.08,1.0,2.69,3.6,1.4,959.23,30.84
5842140,-0.02,-0.08,1.0,2.69,3.23,1.4,959.15,30.84
5842178,-0.02,-0.07,1.02,3.05,3.78,1.16,959.21,30.84
5842228,-0.03,-0.08,0.98,2.93,3.6,1.34,959.19,30.83
5842266,-0.03,-0.08,1.01,2.87,3.23,1.1,959.23,30.83
5842304,-0.03,-0.09,0.96,2.93,3.85,0.92,959.21,30.84
5842342,-0.03,-0.09,0.97,2.81,3.36,1.1,959.34,30.84
5842380,-0.01,-0.08,0.96,2.69,3.36,0.98,959.33,30.83
5842418,-0.04,-0.08,0.94,2.75,3.91,0.98,959.31,30.85
5842456,-0.02,-0.09,0.96,2.56,4.46,0.73,959.35,30.85
5842495,-0.01,-0.09,1.02,2.56,4.03,0.67,959.31,30.84
5842533,-0.03,-0.09,0.99,2.56,3.85,0.67,959.34,30.84
5842571,-0.06,-0.07,1.01,2.62,3.54,0.49,959.36,30.84
5842621,-0.03,-0.08,0.96,2.56,4.15,0.43,959.38,30.84
5842659,-0.05,-0.07,1.01,2.38,3.54,0.37,959.42,30.83
5842697,-0.04,-0.09,0.98,2.44,5.62,0.31,959.37,30.84
5842735,-0.04,-0.08,1.03,2.2,5.86,0.18,959.39,30.84
5842773,-0.02,-0.07,1.03,2.2,6.77,0.24,959.4,30.83
5842811,-0.04,-0.08,0.99,2.26,6.84,0.18,959.46,30.85
5842849,-0.04,-0.08,1.05,2.2,7.02,0.24,959.46,30.84
5842887,-0.02,-0.08,1.04,2.44,7.57,0.24,959.4,30.84
5842926,-0.02,-0.07,1.09,2.62,7.02,0.31,959.41,30.85
5842975,-0.03,-0.07,1.06,2.14,6.53,0.24,959.46,30.84
5843013,-0.03,-0.07,1.1,2.14,7.2,0.31,959.44,30.82
5843052,-0.0,-0.08,1.11,2.08,6.84,0.31,959.46,30.83
5843090,-0.04,-0.06,1.11,1.83,6.53,0.31,959.47,30.85
5843128,-0.03,-0.06,1.1,2.14,6.77,0.37,959.52,30.84
5843166,-0.03,-0.08,1.08,1.83,6.65,0.31,959.53,30.85
5843204,-0.01,-0.07,1.11,2.26,6.16,0.18,959.46,30.83
5843242,-0.02,-0.08,1.07,1.95,4.88,0.24,959.55,30.84
5843280,-0.04,-0.07,1.09,2.01,4.09,0.12,959.53,30.84
5843318,-0.04,-0.07,1.04,2.2,4.46,0.24,959.53,30.84
5843368,-0.04,-0.08,1.07,2.5,3.42,0.37,959.6,30.82
5843406,-0.03,-0.09,1.05,2.26,2.69,0.18,959.58,30.83
5843445,-0.02,-0.07,1.06,2.01,1.95,0.06,959.66,30.84
5843483,-0.01,-0.07,1.07,2.32,1.46,0.24,959.64,30.84
5843521,-0.02,-0.09,1.0,2.69,0.79,0.12,959.73,30.84
5843559,-0.05,-0.08,0.97,2.62,-0.67,0.12,959.66,30.83
5843597,-0.03,-0.09,0.95,2.62,0.12,-0.06,959.76,30.84
5843635,-0.01,-0.09,0.94,2.26,-0.49,0.0,959.72,30.84
5843673,-0.04,-0.07,0.96,2.56,-0.98,0.0,959.75,30.83
5843711,-0.02,-0.09,0.91,2.44,-0.43,-0.12,959.82,30.83
5843787,-0.03,-0.09,0.9,2.75,0.61,-0.31,959.84,30.8
5843825,-0.04,-0.08,0.88,2.75,0.06,-0.31,959.81,30.82
5843863,-0.02,-0.09,0.9,2.5,1.71,-0.37,959.92,30.83
5843953,-0.03,-0.09,0.88,2.56,2.26,-0.61,959.89,30.78
5843991,-0.04,-0.09,0.93,2.44,2.32,-0.55,959.86,30.8
5844029,-0.05,-0.09,0.95,2.75,2.62,-0.85,959.92,30.81
5844067,-0.03,-0.1,0.93,2.69,2.69,-0.85,959.95,30.81
5844105,-0.03,-0.09,0.94,2.62,2.93,-0.79,959.97,30.82
5844143,-0.05,-0.09,0.91,2.87,2.69,-0.79,960.07,30.82
5844193,-0.03,-0.08,0.92,2.99,3.66,-0.85,960.04,30.8
5844231,-0.05,-0.1,0.88,2.93,2.32,-0.79,960.18,30.82
5844270,-0.03,-0.1,0.83,2.75,4.21,-0.67,960.21,30.83
5844308,-0.04,-0.11,0.82,3.11,2.99,-0.61,960.17,30.82
5844346,-0.02,-0.1,0.81,3.23,3.17,-1.04,960.23,30.82
5844384,-0.05,-0.11,0.71,3.3,3.11,-0.92,960.32,30.82
5844422,-0.05,-0.11,0.72,3.17,3.66,-0.85,960.35,30.81
5844460,-0.02,-0.13,0.71,2.93,3.97,-0.98,960.34,30.82
5844498,-0.04,-0.11,0.7,2.32,3.48,-0.98,960.38,30.82
5844536,-0.04,-0.1,0.71,2.08,5.19,-0.92,960.37,30.82
5844586,-0.02,-0.11,0.74,2.26,4.46,-1.04,960.34,30.8
5844624,-0.04,-0.11,0.76,2.01,3.85,-0.92,960.38,30.8
5844663,-0.05,-0.12,0.75,1.53,4.15,-0.85,960.44,30.83
5844701,-0.03,-0.09,0.78,1.28,4.21,-0.85,960.3,30.81
5844739,-0.03,-0.1,0.82,1.4,4.03,-0.92,960.42,30.83
5844777,-0.05,-0.11,0.82,1.59,4.09,-0.73,960.43,30.81
5844815,-0.04,-0.11,0.89,1.59,4.46,-0.73,960.42,30.84
5844853,-0.06,-0.11,0.87,1.46,4.27,-0.61,960.46,30.84
5844891,-0.05,-0.09,0.92,1.59,4.94,-0.55,960.51,30.83
5844941,-0.03,-0.09,0.92,1.65,4.33,-0.61,960.39,30.82
5844979,-0.04,-0.09,0.95,1.77,4.76,-0.61,960.41,30.82
5845018,-0.04,-0.1,0.94,1.89,5.62,-0.43,960.42,30.82
5845056,-0.05,-0.1,0.93,1.83,5.62,-0.37,960.47,30.84
5845094,-0.04,-0.09,0.95,1.89,5.25,-0.49,960.44,30.84
5845132,-0.06,-0.09,0.96,2.14,5.74,-0.24,960.4,30.84
5845170,-0.04,-0.09,0.96,2.14,7.14,-0.31,960.36,30.82
5845208,-0.05,-0.08,0.98,2.14,6.77,-0.31,960.46,30.84
5845246,-0.06,-0.08,0.99,2.2,7.26,-0.12,960.56,30.83
5845285,-0.05,-0.09,0.99,2.26,7.75,-0.12,960.52,30.84
5845334,-0.03,-0.09,1.0,2.32,8.48,-0.06,960.52,30.81
5845372,-0.03,-0.09,0.98,2.32,8.24,0.12,960.48,30.82
5845411,-0.05,-0.08,0.96,2.32,8.12,0.31,960.48,30.84
5845449,-0.05,-0.08,0.99,2.26,7.69,0.24,960.42,30.82
5845487,-0.05,-0.08,0.98,2.32,7.26,0.43,960.43,30.83
5845525,-0.04,-0.08,1.01,2.2,6.65,0.55,960.49,30.83
5845563,-0.04,-0.08,1.01,2.2,7.39,0.55,960.47,30.83
5845601,-0.04,-0.08,1.01,2.2,7.45,0.55,960.53,30.82
5845639,-0.04,-0.07,1.05,1.83,6.84,0.73,960.52,30.83
5845689,-0.04,-0.08,1.02,1.77,6.1,0.85,960.55,30.83
5845728,-0.04,-0.07,1.07,1.53,6.16,1.22,960.49,30.83
5845766,-0.03,-0.08,1.04,1.46,5.74,1.28,960.49,30.82
5845804,-0.03,-0.08,1.05,0.98,5.68,1.16,960.56,30.82
5845842,-0.04,-0.08,1.04,1.04,5.43,1.28,960.53,30.82
5845880,-0.02,-0.08,1.04,0.67,5.62,1.22,960.57,30.83
5845918,-0.02,-0.08,1.04,0.49,5.92,1.46,960.59,30.83
5845956,-0.03,-0.08,1.04,0.49,5.31,1.4,960.56,30.83
5845995,-0.04,-0.08,1.02,0.37,5.31,1.34,960.57,30.83
5846033,-0.03,-0.08,1.02,0.06,4.58,1.53,960.61,30.83
5846083,-0.02,-0.07,1.06,-0.31,3.72,1.34,960.62,30.83
5846121,-0.02,-0.08,1.05,-0.06,2.75,1.53,960.65,30.82
5846159,-0.04,-0.07,1.07,-0.49,2.32,1.53,960.7,30.82
5846197,-0.04,-0.07,1.07,-0.67,2.56,1.53,960.6,30.83
5846235,-0.01,-0.07,1.1,-0.49,2.2,1.53,960.69,30.82
5846273,-0.03,-0.08,1.07,-0.43,2.32,1.28,960.68,30.83
5846312,-0.03,-0.07,1.04,-0.43,2.69,1.22,960.67,30.84
5846350,-0.03,-0.07,1.06,-0.12,2.93,1.22,960.56,30.83
5846388,-0.03,-0.08,1.06,0.12,3.17,0.85,960.5,30.82
5846438,-0.03,-0.06,1.09,0.43,2.93,0.92,960.29,30.83
5846476,-0.04,-0.08,1.11,0.37,2.56,0.85,960.21,30.82
5846514,-0.03,-0.07,1.13,0.24,2.81,0.49,960.18,30.83
5846552,-0.04,-0.07,1.13,0.06,3.3,0.37,960.2,30.84
5846590,-0.02,-0.07,1.16,0.12,2.99,0.31,960.2,30.83
5846628,-0.03,-0.07,1.14,0.49,2.62,0.31,960.11,30.84
5846666,-0.04,-0.07,1.15,0.37,3.23,0.18,960.11,30.84
5846705,-0.02,-0.06,1.17,0.61,3.6,0.18,960.13,30.83
5846743,-0.03,-0.06,1.15,0.73,3.85,-0.06,960.15,30.84
5846781,-0.03,-0.06,1.19,1.1,3.72,-0.18,960.23,30.85
5846857,-0.01,-0.07,1.17,0.79,3.42,-0.24,960.11,30.82
5846895,-0.02,-0.08,1.16,0.61,4.21,-0.43,960.21,30.82
5846933,-0.01,-0.07,1.13,0.49,3.48,-0.43,960.17,30.81
5847022,-0.02,-0.07,1.12,-0.06,2.69,-0.49,960.2,30.79
5847061,-0.05,-0.06,1.13,0.0,2.5,-0.55,960.18,30.8
5847099,-0.03,-0.08,1.1,-0.31,3.48,-0.61,960.25,30.81
5847137,-0.02,-0.06,1.13,-0.37,3.36,-0.73,960.23,30.81
5847175,-0.04,-0.06,1.16,-0.06,2.87,-0.61,960.3,30.82
5847213,-0.04,-0.07,1.12,0.12,3.72,-0.73,960.27,30.81
5847263,-0.02,-0.06,1.15,0.61,3.78,-1.1,960.37,30.8
5847301,-0.04,-0.06,1.12,0.92,3.72,-1.04,960.35,30.81
5847339,-0.03,-0.08,1.08,0.92,3.48,-0.98,960.44,30.83
5847377,-0.02,-0.07,1.09,1.59,3.54,-1.04,960.38,30.82
5847416,-0.02,-0.08,1.02,1.71,4.21,-1.1,960.44,30.83
5847454,-0.05,-0.06,1.05,1.65,2.56,-0.98,960.5,30.83
5847492,-0.05,-0.08,1.05,1.65,2.99,-1.16,960.41,30.82
5847530,-0.02,-0.08,1.09,1.65,2.56,-1.22,960.41,30.82
5847568,-0.03,-0.07,1.06,1.59,3.11,-1.16,960.49,30.84
5847606,-0.03,-0.07,1.02,1.59,3.54,-1.04,960.45,30.83
5847656,-0.04,-0.08,1.0,1.59,3.85,-1.46,960.58,30.82
5847694,-0.04,-0.08,0.99,1.34,3.78,-1.4,960.56,30.83
5847732,-0.03,-0.07,1.02,1.34,3.42,-1.28,960.53,30.84
5847770,-0.02,-0.07,1.02,1.04,4.15,-1.34,960.53,30.84
5847809,-0.01,-0.05,1.08,0.67,3.6,-1.46,960.53,30.82
5847847,-0.04,-0.07,1.09,0.85,4.15,-1.46,960.51,30.84
5847885,-0.04,-0.07,1.09,1.04,4.58,-1.59,960.57,30.85
5847923,-0.02,-0.07,1.13,1.16,4.88,-1.46,960.6,30.85
5847961,-0.03,-0.07,1.11,1.28,4.82,-1.46,960.59,30.84
5848011,-0.04,-0.06,1.09,1.71,4.64,-1.53,960.57,30.82
5848049,-0.04,-0.06,1.08,1.89,4.58,-1.53,960.62,30.84
5848087,-0.03,-0.06,1.12,1.89,3.54,-1.4,960.55,30.83
5848126,-0.03,-0.07,1.06,1.71,4.46,-1.46,960.65,30.83
5848164,-0.04,-0.06,1.08,1.83,4.64,-1.46,960.66,30.84
5848202,-0.05,-0.07,1.08,2.2,4.7,-1.46,960.66,30.84
5848240,-0.05,-0.07,1.03,1.95,4.64,-1.34,960.68,30.84
5848278,-0.03,-0.07,1.08,1.83,4.88,-1.34,960.67,30.84
5848316,-0.02,-0.08,1.03,1.77,5.8,-1.34,960.69,30.84
5848354,-0.04,-0.06,1.06,1.59,4.39,-1.28,960.62,30.84
5848404,-0.04,-0.07,1.04,1.89,6.41,-1.28,960.68,30.83
5848442,-0.03,-0.07,1.07,1.71,5.37,-1.46,960.7,30.84
5848480,-0.05,-0.07,1.11,1.83,5.49,-1.04,960.7,30.85
5848518,-0.06,-0.08,1.04,2.2,5.86,-1.22,960.65,30.83
5848557,-0.05,-0.06,1.09,2.2,5.19,-1.16,960.7,30.84
5848595,-0.03,-0.06,1.08,2.32,5.49,-0.98,960.72,30.85
5848633,-0.04,-0.07,1.05,2.08,4.03,-0.92,960.71,30.84
5848671,-0.05,-0.07,1.06,2.26,4.88,-0.85,960.74,30.84
5848709,-0.03,-0.07,1.02,2.14,4.88,-1.04,960.79,30.84
5848759,-0.04,-0.06,1.07,1.71,3.72,-0.85,960.77,30.84
5848797,-0.04,-0.08,0.98,1.65,3.66,-0.92,960.75,30.84
5848835,-0.04,-0.07,1.02,1.46,2.56,-0.98,960.88,30.84
5848873,-0.03,-0.07,0.99,1.46,2.62,-0.79,960.81,30.84
5848911,-0.03,-0.07,0.98,1.28,1.22,-0.92,960.81,30.84
5848950,-0.05,-0.07,0.98,1.28,1.4,-0.79,960.85,30.85
5848988,-0.04,-0.08,1.0,1.53,1.34,-0.92,960.9,30.85
5849026,-0.05,-0.07,0.99,1.53,1.28,-0.92,960.85,30.86
5849064,-0.06,-0.06,0.97,1.34,1.22,-0.92,960.87,30.85
5849102,-0.04,-0.06,1.01,1.53,1.89,-1.04,960.86,30.86
5849152,-0.05,-0.08,0.97,1.46,2.62,-1.1,960.86,30.83
5849190,-0.05,-0.07,0.94,1.65,3.36,-1.22,960.85,30.84
5849228,-0.05,-0.07,0.94,1.77,3.6,-1.28,960.92,30.84
5849267,-0.04,-0.06,0.96,1.65,3.54,-1.22,960.91,30.85
5849305,-0.05,-0.06,0.95,1.65,4.15,-1.1,960.94,30.84
5849343,-0.05,-0.06,0.95,1.83,4.03,-1.16,960.91,30.84
5849381,-0.07,-0.06,0.98,1.83,4.03,-1.16,960.98,30.85
5849419,-0.06,-0.08,0.98,1.95,4.46,-1.16,960.99,30.85
5849457,-0.06,-0.07,0.96,2.14,4.58,-0.85,960.95,30.84
5849507,-0.06,-0.06,0.99,2.32,5.13,-0.85,960.97,30.83
5849545,-0.05,-0.07,0.95,2.26,4.94,-0.67,960.95,30.84
5849583,-0.04,-0.07,0.96,2.32,4.15,-0.73,961.01,30.84
5849621,-0.05,-0.08,0.97,2.32,4.58,-0.55,960.95,30.84
5849660,-0.05,-0.08,0.92,2.08,4.39,-0.43,961.0,30.84
5849698,-0.07,-0.06,0.98,2.14,3.17,-0.43,961.03,30.85
5849736,-0.06,-0.07,0.93,2.38,3.3,-0.24,961.06,30.84
5849774,-0.06,-0.07,0.93,2.14,3.11,-0.31,961.14,30.85
5849812,-0.05,-0.07,0.93,2.08,3.97,-0.37,961.14,30.84
5849850,-0.05,-0.06,0.92,2.01,2.44,-0.24,961.07,30.85
5849926,-0.06,-0.08,0.87,1.83,1.89,-0.18,961.18,30.8
5849964,-0.06,-0.06,0.95,1.77,1.1,-0.18,961.18,30.82
5850002,-0.06,-0.08,0.87,1.59,1.28,-0.18,961.18,30.82
5850092,-0.05,-0.08,0.9,1.34,2.14,-0.12,961.21,30.8
5850130,-0.05,-0.07,0.92,0.98,0.92,-0.06,961.15,30.79
5850168,-0.07,-0.06,0.95,1.34,1.89,0.0,961.17,30.81
5850206,-0.05,-0.08,0.92,1.16,1.22,-0.12,961.21,30.81
5850244,-0.05,-0.06,0.99,0.98,1.77,-0.06,961.18,30.82
5850282,-0.06,-0.07,0.94,1.1,2.38,-0.12,961.17,30.8
5850332,-0.06,-0.06,0.98,1.16,1.77,-0.18,961.04,30.82
5850370,-0.06,-0.07,0.94,1.34,1.95,-0.06,960.51,30.81
5850408,-0.05,-0.05,1.0,1.22,1.65,-0.12,959.85,30.82
5850446,-0.05,-0.06,0.97,1.16,2.26,0.0,959.72,30.82
5850484,-0.05,-0.03,1.03,1.53,-0.06,-0.18,959.74,30.82
5850522,-0.06,-0.06,1.05,1.22,0.85,0.06,959.74,30.82
5850560,-0.04,-0.06,1.07,1.04,0.0,0.06,959.69,30.82
5850599,-0.06,-0.04,1.11,1.4,-0.37,-0.06,959.7,30.82
5850637,-0.04,-0.07,1.04,1.46,-0.24,-0.12,959.72,30.82
5850675,-0.06,-0.04,1.07,1.16,-0.49,-0.06,959.75,30.82
5850725,-0.05,-0.06,1.03,1.46,0.31,-0.06,959.82,30.82
5850763,-0.06,-0.06,1.03,1.34,0.49,-0.12,959.89,30.83
5850801,-0.05,-0.05,1.05,1.22,0.67,-0.31,960.02,30.84
5850839,-0.06,-0.05,1.04,1.1,1.22,-0.31,960.19,30.84
5850877,-0.05,-0.06,1.02,1.04,1.53,-0.24,960.27,30.81
5850915,-0.05,-0.05,1.04,1.22,2.26,-0.31,960.39,30.83
5850954,-0.05,-0.05,1.01,1.22,2.69,-0.43,960.39,30.85
5850992,-0.06,-0.04,1.01,1.1,2.14,-0.31,960.39,30.84
5851030,-0.06,-0.05,1.04,1.34,3.23,-0.37,960.42,30.85
5851080,-0.05,-0.06,1.03,1.34,3.72,-0.43,960.51,30.83
5851118,-0.07,-0.04,1.08,1.4,4.09,-0.31,960.54,30.83
5851156,-0.06,-0.05,1.06,1.59,4.76,-0.31,960.57,30.85
5851194,-0.05,-0.05,1.09,1.28,4.7,-0.37,960.62,30.84
5851232,-0.05,-0.05,1.08,1.53,4.52,-0.31,960.68,30.86
5851270,-0.05,-0.05,1.07,1.34,5.25,-0.24,960.62,30.84
5851308,-0.04,-0.05,1.08,1.1,4.88,-0.24,960.68,30.86
5851347,-0.06,-0.04,1.1,1.28,4.03,-0.24,960.69,30.86
5851385,-0.05,-0.05,1.08,1.65,4.09,-0.06,960.73,30.86
5851423,-0.03,-0.05,1.09,1.34,4.39,-0.18,960.71,30.86
5851473,-0.05,-0.04,1.12,1.83,3.36,0.0,960.68,30.84
5851511,-0.05,-0.05,1.07,1.89,3.91,-0.18,960.67,30.85
5851549,-0.05,-0.05,1.08,1.89,3.54,-0.18,960.7,30.84
5851587,-0.04,-0.05,1.07,2.2,3.54,-0.18,960.69,30.84
5851625,-0.05,-0.05,1.01,2.32,3.3,-0.18,960.72,30.85
5851664,-0.05,-0.05,1.04,2.14,2.87,-0.06,960.71,30.85
5851702,0.05,-0.08,1.1,2.69,2.62,-0.18,960.71,30.85
5851740,-0.07,-0.02,1.09,2.08,3.48,-0.06,960.69,30.86
5851778,-0.05,-0.04,1.01,2.75,2.62,-0.18,960.76,30.86
5851828,-0.07,-0.05,0.95,2.75,2.87,0.0,960.8,30.84
5851866,-0.08,-0.05,1.02,2.5,2.69,0.18,960.8,30.86
5851904,-0.05,-0.05,0.98,2.93,3.54,0.0,960.8,30.85
5851942,-0.04,-0.05,0.99,3.11,4.15,-0.06,960.83,30.85
5851980,-0.05,-0.05,0.99,3.3,4.39,0.12,960.83,30.85
5852018,-0.06,-0.05,0.99,3.42,4.58,0.24,960.85,30.85
5852057,-0.06,-0.04,1.01,3.54,4.15,0.24,960.88,30.86
5852095,-0.06,-0.06,1.0,3.78,4.58,0.24,960.86,30.86
5852133,-0.05,-0.06,0.99,3.85,4.64,0.31,960.83,30.86
5852171,-0.05,-0.05,0.96,3.91,4.39,0.43,960.88,30.86
5852221,-0.06,-0.05,0.9,3.66,4.7,0.49,960.83,30.84
5852259,-0.06,-0.05,0.91,3.42,4.33,0.49,960.85,30.85
5852297,-0.05,-0.07,0.89,2.99,4.64,0.55,960.87,30.86
5852335,-0.05,-0.06,0.91,2.69,4.64,0.61,960.76,30.86
5852373,-0.05,-0.06,0.93,2.44,4.64,0.55,960.91,30.86
5852411,-0.03,-0.06,0.95,2.2,4.58,0.55,960.91,30.86
5852450,-0.04,-0.06,0.97,1.95,4.52,0.49,960.91,30.85
5852488,-0.05,-0.06,0.97,2.08,4.76,0.55,960.94,30.86
5852526,-0.04,-0.06,0.97,1.83,5.19,0.37,960.96,30.86
5852564,-0.04,-0.05,0.98,1.95,5.62,0.43,960.95,30.86
5852614,-0.05,-0.05,0.98,1.83,6.04,0.61,960.94,30.85
5852652,-0.04,-0.06,0.99,2.01,6.65,0.55,960.98,30.86
5852690,-0.04,-0.06,0.99,1.89,6.47,0.55,961.01,30.86
5852728,-0.05,-0.05,1.01,1.89,6.04,0.61,960.96,30.86
5852766,-0.04,-0.05,0.99,2.01,6.1,0.85,960.96,30.87
5852804,-0.04,-0.05,1.01,1.89,5.19,0.61,961.03,30.86
5852843,-0.04,-0.05,1.0,2.14,5.0,0.79,960.98,30.86
5852881,-0.04,-0.06,0.99,1.71,4.33,0.79,961.04,30.88
5852919,-0.04,-0.05,1.0,1.71,3.91,0.73,961.03,30.87
5852995,-0.04,-0.06,0.99,1.83,3.23,0.67,961.04,30.84
5853033,-0.03,-0.06,0.97,1.71,3.11,0.61,961.04,30.84
5853071,-0.04,-0.05,0.95,1.83,2.75,0.49,961.03,30.86
