timestamp,acc_x,acc_y,acc_z,rot_x,rot_y,rot_z,qfe,temp,Unnamed: 10
2731537,0.04,0.2,1.07,4.64,2.69,0.12,988.59,25.24,
2731576,0.05,0.2,1.08,0.12,4.09,-0.12,988.56,25.23,
2731614,-0.08,0.01,1.01,8.79,5.98,0.24,988.57,25.23,
2731652,-0.02,0.18,0.93,4.39,3.17,0.06,988.57,25.23,
2731690,-0.01,0.25,1.19,3.17,1.22,-0.18,988.49,25.24,
2731729,-0.09,0.04,1.12,11.84,1.46,0.43,988.52,25.22,
2731767,-0.1,0.09,0.66,6.53,2.99,0.43,988.53,25.24,
2731805,0.03,0.24,1.07,9.52,-1.1,-0.06,988.45,25.24,
2731881,0.02,0.17,0.86,7.26,-0.31,0.31,988.43,25.2,
2731919,-0.08,0.06,1.42,4.94,-2.2,0.12,988.38,25.22,
2731957,-0.04,0.14,1.09,-2.2,-2.2,0.37,988.41,25.22,
2732047,-0.09,0.16,0.3,-9.89,6.41,0.79,988.4,25.18,
2732085,-0.16,0.21,1.36,-4.7,-10.74,0.98,988.39,25.2,
2732124,-0.04,0.11,0.82,-16.05,5.19,1.59,988.45,25.2,
2732162,-0.09,0.3,1.34,0.67,-0.18,1.28,988.5,25.21,
2732200,-0.02,0.17,1.33,-10.99,4.58,1.34,988.51,25.21,
2732238,-0.03,0.15,0.54,-1.4,6.77,2.08,988.54,25.21,
2732288,0.03,0.16,0.96,5.07,3.72,1.95,988.49,25.2,
2732327,-0.06,-0.03,0.9,-3.3,4.58,2.38,988.52,25.21,
2732365,0.05,0.18,1.26,6.47,-0.24,2.14,988.49,25.2,
2732403,0.06,0.04,1.09,-6.53,8.67,2.56,988.45,25.22,
2732441,0.06,0.23,1.19,5.37,-0.31,2.2,988.41,25.21,
2732480,0.02,0.12,0.6,1.28,8.91,2.75,988.46,25.22,
2732518,-0.01,0.23,0.91,4.09,0.55,2.62,988.52,25.21,
2732556,-0.0,0.15,0.41,2.5,7.39,2.87,988.49,25.22,
2732594,0.06,0.22,0.98,3.36,-1.83,2.56,988.49,25.22,
2732632,0.0,-0.0,0.94,10.25,4.03,2.87,988.51,25.21,
2732682,0.07,-0.02,1.56,11.47,2.69,3.05,988.58,25.2,
2732721,0.05,0.19,1.61,7.75,-4.27,3.17,988.51,25.21,
2732759,-0.04,0.02,0.93,10.68,9.52,3.66,988.43,25.22,
2732797,-0.03,0.18,0.81,10.62,-0.31,2.93,988.49,25.21,
2732835,0.11,0.18,0.88,9.46,2.44,2.75,988.43,25.22,
2732874,-0.0,0.14,0.79,5.0,-0.85,3.11,988.49,25.22,
2732912,0.03,0.15,0.93,6.71,3.11,3.36,988.4,25.22,
2732950,-0.01,0.12,1.11,-9.95,8.06,2.99,988.39,25.23,
2732988,0.18,0.08,1.14,-11.11,-4.76,3.54,988.39,25.22,
2733027,0.18,0.06,0.7,-2.87,6.53,3.54,988.48,25.24,
2733077,0.17,0.22,1.11,-13.06,2.5,3.48,988.59,25.23,
2733115,-0.12,-0.05,1.42,2.99,1.59,3.23,988.52,25.22,
2733153,0.08,0.08,0.62,-9.89,5.74,3.3,988.55,25.24,
2733191,0.02,0.23,1.51,-2.26,2.99,3.05,988.55,25.24,
2733230,0.03,0.1,0.67,-0.49,9.4,2.99,988.49,25.25,
2733268,0.06,0.28,1.25,-5.25,0.61,2.5,988.59,25.25,
2733306,0.07,0.06,0.54,5.55,9.34,2.81,988.52,25.24,
2733344,0.08,0.22,0.92,0.18,1.46,2.44,988.54,25.25,
2733383,0.04,0.05,0.59,3.72,8.0,2.75,988.5,25.24,
2733421,0.08,0.22,0.71,-2.62,4.33,2.56,988.51,25.25,
2733471,-0.0,0.03,1.06,8.36,5.25,2.56,988.6,25.23,
2733509,0.14,0.19,1.28,6.47,0.43,2.56,988.61,25.24,
2733547,-0.04,0.21,2.33,11.96,-6.16,2.81,988.48,25.25,
2733586,0.02,0.06,1.38,1.28,11.29,3.05,988.45,25.24,
2733624,-0.05,0.25,2.23,12.51,-6.96,2.2,988.59,25.25,
2733662,0.03,-0.16,0.16,6.35,15.56,2.87,988.43,25.25,
2733700,0.19,0.19,1.12,2.56,1.71,1.28,988.38,25.25,
2733739,-0.08,0.03,0.27,15.56,11.78,2.01,988.43,25.25,
2733777,0.11,0.04,0.29,0.98,2.38,1.71,988.52,25.25,
2733815,-0.03,0.17,1.01,11.23,-4.33,2.01,988.53,25.24,
2733865,-0.01,0.13,0.36,1.77,2.2,2.01,988.43,25.24,
2733903,-0.01,0.04,0.84,9.7,0.43,1.1,988.42,25.24,
2733942,0.02,0.0,0.86,-0.92,-1.89,1.95,988.4,25.24,
2733980,0.03,0.01,1.43,-5.49,0.98,1.77,988.42,25.24,
2734018,0.06,0.11,1.21,-20.26,2.56,1.77,988.47,25.25,
2734056,0.07,-0.02,1.71,-25.09,-2.2,1.71,988.51,25.26,
2734094,0.08,-0.08,0.81,-17.21,8.61,2.5,988.52,25.25,
2734133,0.14,0.38,1.55,-23.32,-2.14,1.59,988.62,25.26,
2734171,0.0,0.04,1.74,-17.88,10.5,1.53,988.7,25.26,
2734221,-0.02,0.3,1.2,-26.06,5.68,1.04,988.68,25.24,
2734259,-0.16,0.24,1.2,-7.51,-4.58,1.04,988.62,25.24,
2734297,0.04,0.11,0.74,-12.51,6.65,0.79,988.61,25.25,
2734335,0.01,0.24,1.29,-5.98,-1.28,0.73,988.67,25.24,
2734374,-0.07,0.39,1.06,2.81,11.17,1.28,988.61,25.24,
2734412,-0.08,0.13,0.67,5.31,9.34,0.55,988.51,25.26,
2734450,0.03,0.27,0.72,4.27,8.91,0.67,988.59,25.25,
2734488,-0.02,0.35,1.02,9.77,4.21,0.79,988.55,25.25,
2734527,-0.07,0.13,0.64,11.23,9.64,1.53,988.49,25.25,
2734565,-0.04,0.24,0.81,7.81,6.35,1.4,988.55,25.26,
2734615,-0.03,0.16,0.69,14.22,8.73,1.95,988.47,25.24,
2734653,0.01,0.2,0.51,8.54,7.02,1.95,988.55,25.25,
2734691,-0.04,0.28,0.84,12.82,2.62,2.14,988.55,25.25,
2734729,0.02,0.17,0.57,10.19,6.41,2.26,988.55,25.25,
2734768,0.02,0.23,0.82,9.4,1.77,2.26,988.56,25.25,
2734806,-0.02,0.18,0.7,9.77,4.15,2.56,988.62,25.26,
2734844,-0.03,0.21,0.69,7.57,4.88,2.32,988.54,25.25,
2734882,-0.04,0.21,0.79,8.18,1.53,2.62,988.5,25.24,
2734921,0.02,0.14,0.71,5.92,0.85,2.38,988.58,25.25,
2734959,-0.04,0.19,0.85,6.16,-0.49,2.08,988.58,25.26,
2735035,0.05,0.19,0.83,4.7,1.59,2.32,988.53,25.23,
2735073,0.07,-0.05,1.95,6.29,-8.0,1.46,988.47,25.23,
2735111,0.01,0.02,2.56,11.96,3.66,2.38,988.45,25.23,
2735201,-0.16,0.13,1.1,9.34,6.23,2.81,988.43,25.21,
2735239,-0.04,0.14,0.44,0.85,3.91,2.44,988.42,25.21,
2735278,-0.0,0.18,0.56,6.29,-2.14,2.81,988.41,25.22,
2735316,-0.02,0.07,0.34,2.01,0.79,1.53,988.52,25.24,
2735354,-0.03,0.15,0.95,1.59,-5.74,2.08,988.49,25.22,
2735392,0.06,0.03,0.51,-2.38,3.78,1.83,988.54,25.22,
2735431,-0.02,0.12,1.05,-3.54,-5.55,1.53,988.5,25.24,
2735481,0.02,0.17,0.87,-7.02,1.89,2.01,988.58,25.22,
2735519,0.01,0.01,1.63,1.46,0.24,1.53,988.57,25.24,
2735557,0.02,0.06,1.53,0.12,2.44,1.22,988.47,25.24,
2735595,-0.03,0.04,1.46,-3.54,2.56,1.71,988.49,25.24,
2735633,0.08,0.29,1.03,0.18,3.05,1.65,988.52,25.23,
2735672,-0.02,0.15,0.88,-4.03,6.41,0.92,988.51,25.24,
2735710,-0.04,0.18,0.95,1.71,0.61,1.22,988.58,25.24,
2735748,-0.02,0.14,0.7,0.73,3.85,1.46,988.64,25.25,
2735786,0.05,0.14,0.97,1.65,1.22,0.67,988.62,25.27,
2735836,0.03,0.15,0.75,1.71,4.21,0.92,988.67,25.24,
2735874,-0.04,0.18,0.86,2.44,0.92,0.73,988.62,25.25,
2735913,-0.01,0.17,0.78,3.78,3.78,0.67,988.59,25.25,
2735951,-0.0,0.15,0.79,3.05,2.62,0.43,988.62,25.24,
2735989,-0.1,0.09,1.14,6.47,-0.43,0.79,988.53,25.24,
2736027,0.07,0.12,1.47,7.2,1.16,0.61,988.44,25.25,
2736066,0.01,0.01,1.94,5.43,2.56,0.67,988.41,25.25,
2736104,0.07,0.06,1.4,7.26,3.6,0.79,988.44,25.26,
2736142,0.03,0.08,1.27,9.22,0.92,0.61,988.36,25.26,
2736180,0.08,0.13,0.34,-0.12,7.08,0.37,988.44,25.26,
2736230,0.01,0.15,0.62,7.87,1.71,0.0,988.46,25.25,
2736268,-0.04,0.05,0.47,2.38,1.28,0.55,988.5,25.25,
2736307,-0.05,0.15,0.71,4.88,2.32,0.31,988.52,25.25,
2736345,-0.02,0.13,0.66,-0.49,1.04,0.18,988.56,25.26,
2736383,-0.03,0.05,1.28,4.7,-1.46,0.06,988.49,25.26,
2736421,0.06,0.04,1.27,0.18,3.23,-0.12,988.65,25.26,
2736460,-0.04,0.25,1.83,0.12,-4.09,-0.06,988.51,25.25,
2736498,0.03,0.12,1.0,-5.62,8.06,0.24,988.38,25.26,
2736536,-0.0,0.25,1.65,3.05,-2.26,-0.37,988.49,25.26,
2736574,0.01,0.08,0.98,-2.87,4.21,0.18,988.53,25.27,
2736624,-0.07,0.15,0.8,-0.37,4.21,-0.18,988.5,25.25,
2736662,0.06,0.22,0.74,2.32,2.38,-0.43,988.53,25.26,
2736701,0.05,0.14,0.86,0.55,3.05,-0.18,988.53,25.25,
2736739,-0.05,0.13,0.75,-0.37,3.78,0.0,988.54,25.26,
2736777,-0.05,0.16,0.75,0.18,2.81,0.0,988.54,25.26,
2736815,-0.05,0.16,0.72,-0.43,2.08,0.06,988.54,25.27,
2736853,-0.06,0.14,1.02,-2.32,1.28,-0.24,988.54,25.26,
2736892,-0.07,0.04,1.39,0.31,1.16,-0.12,988.47,25.26,
2736930,-0.15,-0.05,1.15,-3.17,4.7,0.12,988.61,25.27,
2736968,-0.03,0.17,1.34,1.34,-0.37,0.43,988.65,25.28,
2737018,-0.11,0.11,1.14,-1.71,1.4,0.18,988.6,25.26,
2737056,-0.11,0.16,0.82,2.2,2.2,0.12,988.56,25.27,
2737095,-0.03,0.06,0.8,-2.75,1.1,-0.18,988.63,25.27,
2737133,0.02,0.21,0.98,1.95,0.98,0.31,988.61,25.27,
2737171,-0.12,0.08,1.06,-0.31,-0.12,0.12,988.6,25.27,
2737209,0.14,0.19,0.84,-0.24,3.54,0.18,988.58,25.27,
2737247,-0.03,0.16,1.03,2.32,0.73,0.18,988.58,25.27,
2737286,-0.02,0.12,0.89,0.73,3.54,0.24,988.61,25.28,
2737324,-0.02,0.12,1.09,3.85,1.34,0.0,988.61,25.27,
2737362,-0.01,0.12,0.89,3.23,5.19,0.43,988.58,25.27,
2737412,-0.09,0.12,1.1,4.7,2.81,0.55,988.55,25.27,
2737450,-0.08,0.14,1.14,8.36,2.81,0.98,988.58,25.27,
2737488,-0.14,0.09,1.31,6.71,3.97,0.73,988.54,25.27,
2737527,-0.07,0.23,1.63,3.17,3.91,0.61,988.51,25.27,
2737565,-0.04,0.11,0.78,-0.18,14.71,1.28,988.56,25.26,
2737603,-0.05,0.21,0.78,5.37,2.81,1.04,988.6,25.28,
2737641,-0.13,0.03,0.54,3.97,7.69,1.53,988.58,25.27,
2737680,-0.04,0.06,0.67,4.88,5.25,1.46,988.6,25.27,
2737718,-0.05,0.13,0.86,3.23,6.1,1.04,988.58,25.27,
2737768,-0.01,0.13,0.88,3.91,3.6,1.77,988.53,25.25,
2737806,0.0,0.06,0.82,2.69,4.64,1.65,988.6,25.26,
2737844,-0.03,0.14,0.82,3.11,4.64,1.77,988.55,25.29,
2737882,0.0,0.14,0.77,3.05,4.09,2.08,988.58,25.27,
2737921,-0.01,0.15,0.64,1.59,3.3,1.89,988.56,25.27,
2737959,-0.04,0.14,0.83,2.32,2.44,2.01,988.57,25.27,
2737997,-0.03,0.1,0.77,1.34,4.52,2.14,988.53,25.27,
2738035,0.01,0.12,0.89,0.61,1.46,2.2,988.54,25.28,
2738073,-0.02,0.15,0.98,0.85,2.93,2.26,988.54,25.28,
2738112,-0.01,0.12,1.16,-0.61,2.01,2.26,988.51,25.27,
2738187,0.06,0.07,1.47,-0.18,5.74,2.99,988.45,25.25,
2738226,-0.0,0.2,1.78,2.01,2.32,2.87,988.55,25.25,
2738264,0.05,0.12,1.31,-2.93,3.91,3.3,988.57,25.27,
2738354,-0.01,0.07,0.62,-4.7,1.4,3.05,988.51,25.22,
2738392,0.08,0.17,1.07,2.26,-0.37,2.69,988.57,25.24,
2738430,-0.07,0.08,0.86,-3.3,1.83,2.81,988.61,25.25,
2738468,-0.09,0.16,1.12,1.16,-2.2,3.3,988.59,25.25,
2738506,-0.0,0.1,0.83,-1.83,2.08,2.75,988.52,25.26,
2738545,-0.07,0.19,0.98,0.0,-2.14,2.26,988.59,25.25,
2738583,-0.01,0.11,0.85,-0.31,-0.12,2.32,988.55,25.26,
2738633,-0.04,0.15,1.01,-2.44,-0.92,2.26,988.53,25.24,
2738671,-0.06,0.12,0.94,-2.99,1.16,3.05,988.54,25.26,
2738709,-0.04,0.11,1.15,-3.23,0.06,2.75,988.64,25.26,
2738747,-0.04,0.13,1.2,-2.32,0.12,2.32,988.59,25.26,
2738786,-0.01,0.16,1.18,-3.78,0.43,2.38,988.64,25.27,
2738824,0.0,0.18,1.28,-1.22,2.99,2.38,988.67,25.25,
2738862,-0.04,0.14,1.16,-0.79,3.72,2.5,988.71,25.26,
2738900,-0.01,0.17,1.23,1.77,2.08,2.62,988.7,25.27,
2738939,-0.05,0.13,1.21,2.44,3.54,2.62,988.69,25.26,
2738977,-0.06,0.15,1.23,4.94,3.05,2.62,988.73,25.27,
2739027,-0.0,0.13,1.11,7.26,5.86,2.38,988.66,25.26,
2739065,-0.02,0.14,1.12,9.03,4.09,2.56,988.68,25.26,
2739103,-0.02,0.11,1.04,11.41,4.21,3.17,988.67,25.28,
2739141,-0.02,0.09,0.81,10.56,6.23,2.56,988.6,25.28,
2739180,-0.07,0.14,0.91,11.96,3.6,3.11,988.57,25.28,
2739218,0.04,0.09,0.74,10.31,5.0,3.23,988.5,25.3,
2739256,-0.03,0.08,0.7,9.46,4.7,2.99,988.53,25.29,
2739294,-0.01,0.1,0.74,8.06,4.64,2.5,988.45,25.27,
2739333,0.0,0.08,0.73,6.9,3.05,2.75,988.57,25.29,
2739382,0.0,0.08,0.67,3.17,3.3,2.75,988.54,25.28,
2739421,0.0,0.1,0.82,3.36,4.03,2.44,988.51,25.27,
2739459,-0.03,0.09,0.71,1.16,6.41,2.32,988.56,25.28,
2739497,0.01,0.1,0.86,1.53,4.88,2.01,988.53,25.28,
2739535,-0.01,0.09,0.81,0.85,4.7,1.95,988.48,25.28,
2739573,0.0,0.09,0.9,0.55,4.76,1.65,988.55,25.28,
2739611,-0.02,0.09,0.8,0.06,7.57,1.59,988.51,25.28,
2739650,-0.04,0.13,1.02,0.0,4.7,1.28,988.55,25.29,
2739688,0.06,0.1,0.98,-0.67,6.1,1.34,988.49,25.29,
2739726,-0.0,0.08,0.94,-1.83,5.13,0.79,988.49,25.28,
2739776,0.03,0.08,0.93,-1.83,6.71,0.67,988.56,25.27,
2739814,0.03,0.12,1.01,-2.87,3.78,0.37,988.61,25.27,
2739853,-0.03,0.11,1.08,-2.2,4.82,0.73,988.61,25.28,
2739891,-0.01,0.1,1.06,-2.99,4.46,0.18,988.73,25.27,
2739929,-0.01,0.13,1.24,-1.34,4.52,-0.37,988.66,25.27,
2739967,-0.02,0.13,1.12,-0.92,4.39,0.18,988.74,25.29,
2740005,0.02,0.13,1.26,1.34,3.54,-0.12,988.69,25.29,
2740044,0.02,0.11,1.11,2.14,6.84,-0.61,988.64,25.29,
2740082,0.04,0.14,1.17,3.6,4.46,-0.67,988.65,25.29,
2740120,0.0,0.08,1.03,5.25,5.13,-0.43,988.65,25.29,
2740170,0.01,0.12,1.01,5.86,4.64,-1.34,988.65,25.28,
2740208,0.03,0.1,0.96,6.35,4.82,-1.59,988.64,25.29,
2740246,0.01,0.11,0.96,6.1,2.08,-1.59,988.59,25.29,
2740285,-0.04,0.09,0.81,5.92,4.15,-1.83,988.59,25.29,
2740323,0.05,0.11,0.86,5.31,3.48,-2.32,988.44,25.28,
2740361,0.02,0.09,0.89,6.04,3.3,-2.62,988.57,25.28,
2740399,-0.02,0.09,0.78,5.0,3.05,-2.62,988.62,25.29,
2740438,-0.03,0.11,0.83,5.07,2.81,-3.11,988.55,25.29,
2740476,0.01,0.08,0.81,4.03,4.15,-3.23,988.56,25.29,
2740514,-0.03,0.07,0.82,3.78,2.26,-3.23,988.5,25.29,
2740564,-0.07,0.09,0.84,2.69,2.62,-3.36,988.54,25.26,
2740602,-0.02,0.09,0.86,1.83,4.39,-3.42,988.55,25.28,
2740641,-0.02,0.08,0.89,1.34,3.6,-3.48,988.58,25.28,
2740679,-0.04,0.09,0.87,0.31,3.23,-3.72,988.6,25.29,
2740717,-0.06,0.09,0.88,-0.18,4.58,-3.3,988.59,25.29,
2740755,-0.03,0.09,0.93,-0.85,4.39,-3.36,988.54,25.29,
2740793,-0.03,0.1,1.05,0.12,3.48,-3.54,988.55,25.28,
2740832,-0.05,0.12,0.98,-0.31,3.78,-3.23,988.63,25.3,
2740870,-0.05,0.12,1.09,0.18,3.72,-3.05,988.62,25.29,
2740920,-0.03,0.1,1.06,0.24,3.97,-2.69,988.52,25.28,
2740958,-0.07,0.11,1.08,0.67,3.17,-2.56,988.64,25.28,
2740996,-0.09,0.09,0.98,0.98,4.09,-2.14,988.61,25.29,
2741035,-0.08,0.09,1.0,1.59,3.42,-2.2,988.54,25.29,
2741073,-0.03,0.12,1.04,1.16,3.54,-1.89,988.58,25.3,
2741111,-0.07,0.09,1.03,1.77,4.7,-1.34,988.61,25.29,
2741149,-0.09,0.13,1.09,1.83,3.17,-1.28,988.64,25.3,
2741188,-0.07,0.11,1.06,2.38,3.3,-0.85,988.67,25.3,
2741226,-0.04,0.08,1.05,2.69,3.48,-0.61,988.61,25.29,
2741264,-0.11,0.08,1.01,3.17,2.99,-0.24,988.59,25.28,
2741340,-0.07,0.11,0.98,1.65,3.11,0.06,988.52,25.27,
2741378,-0.08,0.11,0.98,0.85,2.44,0.73,988.49,25.28,
2741416,-0.06,0.11,1.04,0.73,0.92,0.85,988.52,25.28,
2741506,-0.05,0.11,1.1,0.73,0.73,1.28,988.47,25.25,
2741544,-0.08,0.11,1.06,0.37,-0.31,1.65,988.57,25.28,
2741583,-0.07,0.11,1.19,0.92,-0.12,2.01,988.58,25.27,
2741621,-0.0,0.11,1.09,1.65,2.01,1.95,988.65,25.28,
2741659,-0.05,0.11,1.13,2.44,1.89,2.2,988.59,25.28,
2741697,-0.06,0.1,1.06,3.36,1.65,2.75,988.61,25.29,
2741736,-0.03,0.13,1.0,3.23,0.98,2.44,988.63,25.28,
2741786,-0.08,0.13,1.11,3.48,1.16,3.17,988.59,25.28,
2741824,0.02,0.06,0.95,2.56,2.62,3.36,988.56,25.28,
2741862,-0.06,0.11,0.92,2.56,3.17,3.11,988.57,25.3,
2741900,-0.1,0.11,0.97,2.62,3.48,4.21,988.61,25.28,
2741938,0.01,0.09,0.98,1.83,3.42,3.97,988.63,25.29,
2741977,-0.11,0.11,0.85,0.85,2.81,3.97,988.61,25.29,
2742015,-0.04,0.08,0.89,0.37,3.6,4.39,988.68,25.3,
2742053,-0.03,0.07,0.99,0.18,4.15,4.09,988.7,25.28,
2742091,-0.04,0.12,0.97,-0.98,3.36,4.21,988.71,25.3,
2742130,-0.02,0.12,1.02,-0.73,4.09,4.52,988.74,25.3,
2742180,-0.01,0.11,1.12,-0.06,4.39,4.15,988.74,25.29,
2742218,0.01,0.1,1.07,0.73,5.55,4.15,988.72,25.28,
2742256,-0.02,0.12,1.09,2.14,5.37,4.09,988.78,25.3,
2742294,-0.01,0.08,1.06,2.93,4.82,3.97,988.75,25.3,
2742332,-0.02,0.09,1.04,2.81,3.17,4.21,988.66,25.29,
2742371,-0.04,0.12,0.98,3.48,4.58,4.09,988.72,25.3,
2742409,0.02,0.09,1.02,3.72,4.03,3.42,988.61,25.3,
2742447,-0.02,0.11,1.05,4.03,2.26,3.72,988.64,25.29,
2742485,-0.01,0.08,1.02,3.91,2.26,3.66,988.61,25.3,
2742524,-0.03,0.04,0.84,3.78,5.98,3.17,988.62,25.3,
2742574,0.02,0.12,1.15,3.72,1.59,3.48,988.63,25.3,
2742612,-0.0,0.04,0.91,2.5,2.99,2.99,988.59,25.3,
2742650,-0.07,0.09,0.89,2.14,2.81,3.3,988.61,25.32,
2742688,0.02,0.08,1.05,2.69,2.99,3.54,988.57,25.31,
2742727,0.05,0.06,0.96,0.55,3.11,3.3,988.61,25.32,
2742765,-0.05,0.08,0.95,0.43,0.43,3.17,988.57,25.31,
2742803,0.01,0.07,0.9,0.55,3.36,3.17,988.57,25.3,
2742841,0.03,0.08,1.02,-0.55,3.36,2.69,988.5,25.3,
2742879,-0.0,0.09,1.0,0.06,0.85,2.81,988.59,25.3,
2742918,-0.02,0.06,1.04,0.18,0.73,2.81,988.57,25.31,
2742967,0.01,0.09,1.03,-0.49,2.26,2.01,988.66,25.3,
2743006,0.01,0.1,1.22,1.22,0.31,1.89,988.61,25.3,
2743044,-0.01,0.07,1.05,1.22,1.53,1.89,988.62,25.3,
2743082,-0.01,0.09,1.11,2.5,0.67,1.4,988.62,25.31,
2743120,-0.03,0.08,1.04,2.44,3.11,1.59,988.57,25.3,
2743158,0.02,0.11,1.2,3.17,-0.67,0.73,988.57,25.29,
2743197,-0.03,0.08,1.09,3.05,1.71,0.49,988.58,25.31,
2743235,0.01,0.08,0.97,2.08,3.3,0.85,988.67,25.31,
2743273,0.03,0.11,1.11,3.23,2.93,0.61,988.64,25.3,
2743323,-0.05,0.07,0.91,2.2,3.48,0.67,988.69,25.3,
2743361,-0.04,0.11,1.08,3.72,2.08,0.61,988.56,25.29,
2743400,-0.02,0.06,1.0,2.5,3.23,0.43,988.6,25.31,
2743438,-0.01,0.1,0.94,1.83,3.3,0.49,988.55,25.3,
2743476,-0.03,0.12,0.95,2.5,3.85,0.49,988.55,25.31,
2743514,-0.03,0.09,0.98,1.1,3.36,0.61,988.6,25.31,
2743553,-0.01,0.09,1.01,1.65,2.5,0.49,988.53,25.31,
2743591,0.02,0.07,1.02,1.89,2.62,0.37,988.51,25.29,
2743629,-0.11,0.07,0.87,0.98,3.78,0.37,988.6,25.32,
2743667,-0.01,0.11,0.96,0.24,3.48,0.55,988.52,25.31,
2743717,0.01,0.06,1.05,0.79,2.32,0.12,988.53,25.29,
2743756,-0.08,0.09,1.04,0.24,2.32,0.49,988.56,25.31,
2743794,-0.03,0.09,1.07,1.1,3.6,0.73,988.52,25.29,
2743832,0.0,0.11,1.16,0.98,2.69,0.12,988.58,25.31,
2743870,-0.08,0.08,1.03,1.22,2.08,0.79,988.64,25.32,
2743908,-0.02,0.09,1.04,1.46,2.5,0.49,988.54,25.31,
2743947,-0.02,0.11,1.13,2.14,3.05,0.61,988.52,25.32,
2743985,-0.04,0.09,0.98,1.95,1.83,0.85,988.54,25.31,
2744023,-0.05,0.09,1.08,3.23,1.16,0.37,988.59,25.32,
2744061,-0.05,0.08,1.01,2.2,3.17,0.73,988.58,25.31,
2744111,0.01,0.1,1.06,3.36,1.4,0.55,988.55,25.31,
2744149,-0.08,0.07,0.9,3.3,2.56,0.49,988.56,25.31,
2744188,-0.03,0.07,1.0,3.85,1.89,0.73,988.54,25.3,
2744226,-0.02,0.06,0.9,3.85,5.13,0.73,988.53,25.31,
2744264,-0.03,0.08,0.99,4.21,1.34,0.67,988.55,25.31,
2744302,-0.08,0.06,0.81,4.64,2.75,0.61,988.47,25.31,
2744341,-0.06,0.11,0.88,4.15,1.83,0.73,988.49,25.31,
2744379,-0.03,0.09,0.98,4.76,2.93,0.85,988.4,25.31,
2744417,0.01,0.06,0.94,4.52,0.55,0.61,988.56,25.32,
2744455,-0.07,0.08,0.82,4.03,1.95,0.85,988.53,25.32,
2744531,-0.04,0.03,0.87,4.7,2.87,0.79,988.46,25.27,
2744570,-0.04,0.09,0.88,3.3,-0.92,1.28,988.44,25.29,
2744608,-0.08,0.06,0.86,4.21,1.46,1.22,988.42,25.31,
2744698,-0.02,0.07,0.93,1.34,-0.55,1.16,988.48,25.28,
2744736,-0.06,0.03,0.78,-0.98,1.95,1.1,988.52,25.28,
2744774,-0.01,0.09,1.05,-0.55,1.1,1.16,988.5,25.27,
2744812,-0.05,0.07,0.98,-0.67,1.83,1.46,988.52,25.29,
2744851,-0.1,0.06,0.96,-0.61,-0.06,1.16,988.52,25.3,
2744889,-0.04,0.08,1.12,0.12,1.34,0.98,988.49,25.28,
2744927,-0.04,0.06,1.07,-0.55,4.21,1.34,988.5,25.3,
2744977,-0.02,0.05,1.07,0.92,2.81,1.22,988.55,25.28,
2745015,-0.06,0.05,1.08,0.98,4.52,1.34,988.54,25.29,
2745054,-0.05,0.05,1.1,1.1,4.21,1.83,988.59,25.3,
2745092,-0.02,0.06,1.14,1.34,5.0,1.46,988.6,25.31,
2745130,-0.03,0.08,1.11,1.59,4.15,1.53,988.6,25.31,
2745168,-0.02,0.06,1.02,1.83,5.31,2.08,988.55,25.31,
2745206,-0.02,0.07,1.15,2.5,3.23,1.77,988.57,25.31,
2745245,-0.08,0.06,1.03,2.01,5.13,2.01,988.6,25.31,
2745283,-0.04,0.07,1.07,2.14,3.91,2.2,988.52,25.3,
2745321,-0.02,0.07,1.11,2.81,4.58,2.26,988.55,25.31,
2745371,-0.02,0.05,0.92,1.46,4.7,2.38,988.51,25.3,
2745409,-0.08,0.09,0.98,2.99,4.46,2.5,988.6,25.3,
2745448,-0.01,0.07,0.99,2.26,3.72,2.75,988.45,25.31,
2745486,-0.01,0.08,0.98,2.5,3.66,2.75,988.45,25.31,
2745524,-0.02,0.07,0.89,1.83,3.42,2.69,988.45,25.31,
2745562,-0.0,0.07,1.07,2.87,3.17,2.87,988.46,25.3,
2745600,0.0,0.06,1.0,1.77,2.93,2.81,988.53,25.32,
2745639,-0.02,0.06,0.95,1.53,2.62,2.26,988.48,25.31,
2745677,0.01,0.06,1.08,2.08,4.27,2.56,988.46,25.32,
2745715,0.01,0.07,1.03,2.08,3.36,2.62,988.42,25.33,
2745765,0.04,0.09,0.96,2.32,2.93,1.34,988.46,25.31,
2745803,-0.07,0.07,0.87,2.2,4.21,2.44,988.44,25.3,
2745841,0.0,0.06,0.99,2.87,0.67,1.89,988.48,25.31,
2745880,0.0,0.06,0.86,1.59,3.85,0.98,988.42,25.31,
2745918,-0.08,0.07,0.97,2.38,3.23,1.22,988.5,25.31,
2745956,-0.02,0.05,1.0,2.87,4.09,1.65,988.51,25.33,
2745994,0.04,0.06,1.03,2.69,3.78,0.61,988.55,25.32,
2746032,-0.02,0.07,1.02,2.87,3.23,0.79,988.42,25.32,
2746071,0.01,0.05,0.99,2.81,4.33,1.16,988.42,25.31,
2746121,-0.03,0.06,0.92,2.87,2.75,0.73,988.42,25.31,
2746159,-0.01,0.05,0.9,2.2,5.0,0.31,988.54,25.31,
2746197,-0.03,0.07,0.99,2.32,3.91,0.55,988.45,25.31,
2746235,-0.02,0.05,0.93,1.83,4.88,0.37,988.49,25.31,
2746273,0.04,0.07,0.9,1.28,5.19,-0.12,988.43,25.31,
2746312,-0.03,0.09,1.0,2.38,3.85,-0.24,988.47,25.32,
2746350,0.06,0.04,0.93,1.53,5.43,-0.18,988.49,25.32,
2746388,-0.0,0.05,1.06,2.44,3.6,-0.61,988.44,25.32,
2746426,-0.01,0.04,0.95,2.69,4.94,-0.55,988.4,25.32,
2746464,-0.04,0.06,0.97,2.81,2.75,-0.73,988.37,25.32,
2746514,0.02,0.02,0.93,2.26,2.5,-0.73,988.39,25.31,
2746552,0.0,0.05,0.93,1.89,2.81,-1.1,988.41,25.31,
2746591,0.02,0.04,1.05,2.93,1.28,-0.98,988.4,25.33,
2746629,-0.02,0.05,0.95,0.37,1.59,-0.67,988.34,25.32,
2746667,0.02,0.07,1.06,2.32,1.1,-1.16,988.38,25.32,
2746705,-0.04,0.04,0.94,0.98,0.79,-1.46,988.33,25.32,
2746744,0.0,0.06,1.03,1.04,-0.43,-1.4,988.36,25.33,
2746782,-0.07,0.02,1.05,1.71,-0.85,-1.34,988.37,25.32,
2746820,-0.01,0.05,1.03,1.28,-1.1,-1.53,988.32,25.32,
2746858,-0.01,0.05,1.0,1.34,2.75,-1.4,988.43,25.34,
2746908,-0.09,0.04,1.09,1.77,0.61,-1.22,988.4,25.32,
2746946,-0.01,0.04,0.99,1.4,2.2,-1.34,988.45,25.33,
2746984,-0.07,0.03,1.01,1.83,0.79,-1.65,988.41,25.32,
2747023,-0.07,0.05,1.13,2.2,0.55,-0.85,988.38,25.33,
2747061,0.0,0.03,1.02,1.53,3.17,-0.79,988.4,25.33,
2747099,-0.08,0.07,1.02,2.32,1.71,-0.98,988.35,25.33,
2747137,-0.06,0.05,0.96,2.5,3.36,-0.12,988.32,25.32,
2747176,-0.05,0.06,1.01,2.08,1.83,0.0,988.38,25.34,
2747214,-0.1,0.06,0.99,2.62,1.04,0.18,988.34,25.32,
2747252,-0.1,0.03,0.92,1.65,1.71,0.37,988.38,25.34,
2747302,-0.0,0.08,1.04,2.01,1.71,0.55,988.36,25.33,
2747340,-0.01,0.04,1.0,2.38,1.1,0.67,988.32,25.32,
2747378,-0.15,0.06,0.95,2.26,1.83,1.04,988.36,25.34,
2747416,-0.01,0.07,1.12,2.44,-0.43,0.98,988.31,25.33,
2747455,-0.08,0.05,1.07,0.73,3.54,1.4,988.39,25.34,
2747493,-0.03,0.02,1.08,0.67,2.69,2.08,988.42,25.35,
2747531,-0.09,0.07,1.1,1.65,4.21,2.01,988.37,25.34,
2747569,-0.09,0.09,1.02,0.49,2.75,2.01,988.43,25.33,
2747607,0.04,0.07,1.2,1.65,0.49,2.26,988.44,25.34,
2747646,-0.06,-0.0,1.01,2.2,1.77,2.75,988.37,25.34,
2747723,-0.04,0.06,1.21,2.44,0.12,2.56,988.37,25.3,
2747761,0.03,0.01,1.09,0.67,1.83,2.5,988.4,25.33,
2747799,-0.13,0.04,1.07,1.95,1.83,3.11,988.47,25.32,
2747889,-0.0,0.1,1.23,1.22,0.49,3.05,988.43,25.28,
2747927,-0.01,-0.01,1.09,3.85,2.99,3.3,988.41,25.31,
2747966,-0.04,0.05,0.97,0.18,1.65,3.48,988.39,25.31,
2748004,-0.05,0.04,1.14,3.66,0.18,3.23,988.29,25.31,
2748042,-0.07,0.03,0.99,1.53,1.89,3.54,988.35,25.32,
2748080,-0.04,0.04,0.91,1.89,1.77,3.78,988.34,25.33,
2748130,-0.03,0.05,1.04,3.3,2.87,3.6,988.39,25.32,
2748168,-0.06,0.05,1.0,2.44,2.5,4.09,988.3,25.32,
2748207,-0.03,0.05,0.97,2.93,2.56,3.66,988.3,25.31,
2748245,-0.13,0.07,0.97,2.69,4.03,4.03,988.31,25.32,
2748283,-0.05,0.04,0.97,3.91,3.42,4.46,988.23,25.32,
2748321,-0.02,0.04,0.91,3.3,3.72,4.03,988.36,25.33,
2748359,-0.06,0.05,0.91,4.21,5.31,4.15,988.38,25.34,
2748398,-0.03,0.03,0.86,3.97,5.62,4.76,988.31,25.32,
2748436,-0.02,0.04,0.84,3.97,5.19,4.64,988.29,25.33,
2748474,0.01,0.05,0.93,4.27,4.58,4.94,988.27,25.33,
2748524,-0.02,0.04,0.8,3.72,5.25,4.94,988.33,25.31,
2748562,-0.06,0.05,0.79,3.85,3.91,5.0,988.31,25.32,
2748600,-0.0,0.05,0.9,4.82,2.75,4.88,988.29,25.32,
2748639,0.01,0.02,0.75,3.3,3.85,5.07,988.28,25.33,
2748677,-0.01,0.06,0.78,3.54,1.95,5.13,988.25,25.33,
2748715,-0.01,0.04,0.8,3.6,1.46,4.82,988.23,25.33,
2748753,-0.03,0.03,0.75,1.71,1.4,5.0,988.19,25.34,
2748791,0.02,0.04,0.81,1.4,0.92,4.64,988.21,25.34,
2748830,-0.01,0.03,0.85,1.04,2.69,4.64,988.22,25.34,
2748868,0.01,0.02,0.87,0.61,2.5,4.58,988.19,25.34,
2748918,-0.02,0.05,0.98,1.4,0.61,4.39,988.25,25.32,
2748956,-0.01,0.02,1.02,0.61,2.38,4.33,988.19,25.33,
2748994,-0.02,0.04,0.95,0.0,1.89,4.09,988.24,25.34,
2749033,-0.02,0.06,1.07,0.98,1.83,4.03,988.28,25.35,
2749071,0.01,0.03,1.05,-0.18,3.6,3.72,988.23,25.33,
2749109,-0.02,0.03,1.15,1.53,2.5,3.48,988.28,25.34,
2749147,0.01,0.01,1.04,0.79,4.7,3.6,988.26,25.34,
2749185,0.0,0.04,1.14,2.08,4.03,3.36,988.31,25.35,
2749224,-0.01,0.02,1.01,2.32,4.82,2.99,988.34,25.34,
2749262,0.02,0.05,1.08,2.99,3.48,2.81,988.34,25.34,
2749312,0.01,0.02,1.01,3.3,3.78,2.99,988.36,25.33,
2749350,0.05,0.02,1.05,3.05,4.03,2.56,988.31,25.34,
2749388,0.02,0.01,0.97,2.99,5.19,2.44,988.28,25.33,
2749426,-0.01,0.04,0.96,2.87,2.75,2.38,988.26,25.34,
2749465,0.01,0.01,0.96,3.3,2.93,2.01,988.28,25.35,
2749503,0.02,0.02,0.87,1.77,3.97,1.65,988.22,25.34,
2749541,0.0,0.06,1.05,2.93,0.55,1.65,988.24,25.34,
2749579,0.04,-0.02,0.88,2.81,3.11,1.53,988.26,25.34,
2749618,-0.0,0.06,0.99,1.04,1.71,1.22,988.24,25.35,
2749656,-0.0,0.01,0.97,2.69,3.85,1.04,988.19,25.34,
2749706,0.0,0.02,0.94,1.16,2.69,0.73,988.26,25.34,
2749744,0.02,0.02,1.01,1.46,1.1,0.67,988.21,25.33,
2749782,0.02,0.0,1.03,0.79,2.69,0.43,988.18,25.35,
2749820,0.02,0.02,1.06,0.67,1.04,0.31,988.24,25.34,
2749858,-0.0,-0.0,0.97,0.31,1.89,0.0,988.23,25.35,
2749897,0.02,0.02,1.0,0.85,1.59,-0.06,988.19,25.35,
2749935,0.03,0.0,0.96,0.43,3.3,-0.43,988.25,25.35,
2749973,-0.0,0.02,0.99,0.12,2.62,-0.43,988.16,25.35,
2750011,0.0,0.01,1.04,-0.12,2.01,-0.49,988.25,25.35,
2750049,-0.01,0.0,1.01,-1.04,3.3,-0.67,988.27,25.35,
2750099,0.01,0.02,1.13,-0.73,2.75,-0.98,988.35,25.34,
2750138,-0.02,0.02,1.17,-0.61,2.44,-0.92,988.28,25.34,
2750176,-0.01,0.02,1.16,-0.98,2.99,-0.98,988.28,25.34,
2750214,-0.03,0.03,1.1,-0.61,4.09,-1.04,988.32,25.34,
2750252,-0.02,0.04,1.24,0.37,2.14,-0.98,988.29,25.34,
2750290,-0.03,0.02,1.19,0.37,2.69,-1.1,988.37,25.35,
2750329,-0.0,0.04,1.22,0.67,2.32,-0.98,988.27,25.35,
2750367,-0.05,0.04,1.24,2.62,2.2,-0.98,988.21,25.34,
2750405,-0.04,0.02,1.08,1.59,3.78,-0.85,988.28,25.35,
2750455,-0.07,0.03,1.15,3.97,3.48,-0.67,988.34,25.33,
2750493,-0.0,0.01,0.9,2.44,5.31,-0.61,988.25,25.33,
2750531,-0.05,0.08,1.1,4.39,2.81,-0.73,988.23,25.34,
2750570,-0.03,0.01,0.85,3.85,4.27,-0.37,988.21,25.35,
2750608,-0.03,0.06,1.0,4.15,1.77,-0.18,988.15,25.33,
2750646,-0.03,0.05,0.92,4.46,2.32,0.0,988.13,25.35,
2750684,-0.02,0.04,0.97,3.85,1.83,0.12,988.12,25.35,
2750722,-0.03,0.03,0.93,3.85,1.77,0.55,988.16,25.35,
2750761,-0.03,0.04,0.87,3.17,1.22,0.43,988.15,25.36,
2750799,-0.03,0.06,0.94,3.6,1.77,0.79,988.11,25.35,
2750875,-0.05,0.07,1.03,3.42,-0.31,0.98,988.17,25.33,
2750913,-0.02,-0.0,0.8,2.38,4.27,0.98,988.15,25.35,
2750951,-0.03,0.09,0.95,0.61,1.22,1.22,988.17,25.34,
2751041,-0.03,0.05,0.96,-0.12,3.48,1.34,988.16,25.3,
2751079,-0.01,0.05,1.02,1.1,3.17,1.59,988.06,25.32,
2751117,-0.04,0.02,1.0,0.12,3.17,1.83,988.09,25.33,
2751156,-0.04,0.05,1.08,0.61,3.36,1.89,988.15,25.34,
2751194,-0.04,0.05,1.03,-0.06,2.38,2.2,988.18,25.35,
2751232,-0.06,0.05,1.08,0.61,1.34,2.44,988.23,25.35,
2751270,-0.05,0.01,0.98,0.06,3.11,2.62,988.22,25.35,
2751320,-0.04,0.03,1.07,1.04,2.14,2.75,988.15,25.34,
2751358,-0.0,0.01,1.01,0.79,2.38,3.05,988.17,25.34,
2751397,-0.0,0.03,1.08,1.59,1.77,2.93,988.17,25.35,
2751435,-0.04,0.01,1.01,2.44,1.83,3.23,988.19,25.34,
2751473,-0.04,0.03,1.04,3.3,0.12,3.23,988.08,25.35,
2751511,-0.01,0.01,1.02,3.3,0.67,3.3,988.13,25.35,
2751550,-0.04,0.0,0.92,3.48,2.2,3.36,988.14,25.34,
2751588,-0.01,0.02,0.96,4.7,0.43,3.42,988.12,25.36,
2751626,-0.02,0.01,0.95,4.33,0.92,3.6,988.19,25.35,
2751664,-0.02,0.02,0.83,3.78,2.2,3.6,988.16,25.35,
2751714,-0.02,0.03,0.88,4.09,3.05,3.66,988.1,25.34,
2751752,-0.03,0.01,0.8,3.6,3.48,3.72,988.14,25.35,
2751791,-0.0,0.01,0.85,2.87,3.78,3.48,988.06,25.35,
2751829,-0.02,0.02,0.96,3.17,2.2,3.54,988.1,25.36,
2751867,-0.02,0.0,0.9,1.53,3.48,3.85,988.06,25.35,
2751905,-0.01,0.03,0.99,1.95,2.32,3.91,988.07,25.36,
2751943,-0.03,0.0,0.87,1.1,2.75,3.91,988.07,25.36,
2751982,-0.02,0.02,1.0,1.04,1.4,3.97,988.13,25.36,
2752020,-0.01,0.01,1.0,0.55,2.75,4.03,988.09,25.36,
2752058,-0.03,-0.0,0.93,0.24,1.83,4.15,988.1,25.35,
2752108,-0.01,0.01,0.98,0.61,2.93,4.27,988.17,25.35,
2752146,0.0,0.03,1.06,0.31,0.79,3.66,988.08,25.35,
2752184,0.0,0.01,0.96,0.18,2.38,4.27,988.11,25.36,
2752223,-0.02,0.01,1.04,0.73,2.08,4.33,988.15,25.37,
2752261,-0.01,0.02,1.08,-0.18,2.26,4.15,988.08,25.35,
2752299,-0.0,-0.0,1.11,-0.18,2.08,4.15,988.13,25.36,
2752337,-0.01,-0.01,1.08,-0.31,2.38,4.09,988.12,25.37,
2752376,-0.01,0.01,1.03,-0.37,2.93,4.15,988.06,25.36,
2752414,0.0,0.02,1.14,0.18,2.69,3.97,988.04,25.35,
2752464,-0.01,-0.0,1.04,-0.24,3.42,3.78,988.13,25.35,
2752502,-0.0,0.01,1.06,0.0,3.91,3.66,988.09,25.35,
2752540,0.02,0.02,1.1,-0.18,3.36,3.72,988.15,25.36,
2752578,-0.0,-0.01,1.07,0.24,4.27,3.6,988.07,25.36,
2752617,0.0,0.02,1.11,-0.18,3.17,3.3,988.06,25.36,
2752655,0.01,0.0,1.09,0.31,4.94,3.17,988.08,25.36,
2752693,0.01,0.04,1.09,0.31,4.33,3.23,988.1,25.36,
2752731,0.0,0.03,1.15,1.16,4.39,2.93,988.05,25.35,
2752770,0.02,0.01,1.11,1.46,5.25,3.05,988.03,25.36,
2752808,0.03,0.03,1.17,1.71,3.66,2.99,988.07,25.37,
2752858,0.02,0.02,1.08,2.08,3.66,2.75,988.13,25.35,
2752896,-0.02,0.02,1.09,2.93,2.69,2.69,988.08,25.37,
2752934,0.0,0.01,1.02,3.36,3.54,2.56,988.04,25.36,
2752972,0.05,0.03,1.03,3.54,2.81,2.38,988.08,25.37,
2753011,-0.0,0.02,0.95,3.85,3.54,2.08,988.05,25.36,
2753049,-0.02,0.03,0.9,3.78,3.3,1.95,987.93,25.35,
2753087,0.03,0.03,1.0,4.39,4.46,1.59,987.99,25.37,
2753125,0.03,0.05,0.91,3.17,4.52,1.4,987.99,25.36,
2753164,0.0,0.05,0.9,3.54,3.85,1.59,988.0,25.36,
2753202,0.03,0.01,0.85,3.23,4.03,1.53,987.94,25.37,
2753252,-0.02,0.02,0.83,2.26,3.72,1.28,987.96,25.35,
2753290,0.0,0.01,0.83,1.22,4.21,1.22,987.93,25.36,
2753328,0.01,0.01,0.9,0.06,4.58,1.04,987.97,25.37,
2753366,-0.02,0.02,0.96,-0.49,4.82,0.85,987.92,25.35,
2753405,0.0,0.01,1.04,-0.85,5.55,0.73,987.97,25.36,
2753443,0.02,0.01,1.03,-1.4,6.47,0.67,987.94,25.37,
2753481,0.01,0.02,1.14,-1.1,4.94,0.67,987.97,25.37,
2753519,-0.01,0.01,1.15,-0.92,4.82,0.67,987.97,25.37,
2753558,0.03,0.01,1.19,-1.4,5.07,0.61,987.88,25.36,
2753596,0.01,0.01,1.25,-0.79,4.39,0.49,987.89,25.35,
2753646,-0.01,0.02,1.26,-0.31,2.99,0.55,988.01,25.37,
2753684,-0.02,-0.01,1.19,0.37,3.3,0.61,988.01,25.37,
2753722,0.03,-0.02,1.12,-0.18,2.44,0.49,988.0,25.37,
2753760,-0.0,-0.0,1.09,-0.24,1.65,0.55,987.93,25.36,
2753799,0.02,-0.02,1.03,-0.43,2.75,0.43,987.93,25.36,
2753837,0.01,-0.0,1.04,-0.85,1.46,0.24,987.9,25.36,
2753875,-0.03,-0.02,1.09,-0.49,1.83,0.18,987.93,25.37,
2753913,-0.0,-0.04,1.04,-1.95,3.23,0.12,987.92,25.38,
2753952,-0.02,-0.01,1.16,-1.71,1.65,-0.18,987.92,25.37,
2753990,-0.0,-0.03,1.04,-2.26,3.72,0.18,987.89,25.37,
2754066,-0.02,-0.0,1.22,-2.44,4.88,-0.24,987.89,25.35,
2754104,0.01,-0.01,1.14,-4.03,6.29,-0.06,987.86,25.35,
2754142,-0.06,0.01,1.35,-2.69,3.05,-0.31,987.82,25.35,
2754232,-0.02,0.04,1.41,-3.42,2.93,0.06,987.9,25.32,
2754270,0.02,0.0,1.37,-2.62,4.27,-0.06,987.9,25.34,
2754309,0.0,-0.0,1.35,-1.65,1.95,0.18,987.82,25.35,
2754347,-0.06,-0.01,1.34,-0.49,2.62,0.43,987.86,25.35,
2754385,-0.05,0.03,1.34,-0.12,0.61,0.49,987.8,25.35,
2754423,-0.02,0.02,1.43,1.16,0.92,0.43,987.82,25.37,
2754473,-0.01,0.02,1.24,0.37,2.2,0.31,987.83,25.35,
2754512,-0.04,0.02,1.21,2.2,3.91,0.31,987.81,25.36,
2754550,-0.03,0.01,1.1,1.28,5.43,0.24,987.86,25.35,
2754588,-0.01,0.06,1.13,1.77,4.52,0.24,987.79,25.35,
2754626,-0.04,0.03,1.11,2.32,6.35,0.49,987.73,25.35,
2754664,-0.01,0.03,0.95,1.46,6.29,0.37,987.68,25.36,
2754703,-0.0,0.07,1.06,1.83,3.72,0.12,987.77,25.37,
2754741,-0.06,0.07,1.0,0.85,3.54,0.31,987.71,25.37,
2754779,-0.05,0.07,1.05,0.73,4.82,0.43,987.67,25.37,
2754817,-0.0,0.06,1.2,0.43,4.15,0.37,987.62,25.37,
2754867,-0.03,0.05,1.2,0.12,3.42,0.67,987.63,25.35,
2754905,-0.04,0.09,1.18,-0.37,5.07,0.79,987.57,25.38,
2754944,-0.02,0.11,1.24,0.18,3.85,0.92,987.6,25.37,
2754982,-0.02,0.07,1.11,0.43,2.44,1.16,987.59,25.36,
2755020,-0.03,0.08,1.14,0.92,0.92,1.16,987.61,25.37,
2755058,-0.02,0.07,1.1,1.71,2.38,1.1,987.63,25.38,
2755097,-0.0,0.09,1.07,1.65,2.32,1.16,987.55,25.38,
2755135,-0.01,0.1,1.07,3.42,0.85,1.22,987.57,25.38,
2755173,-0.04,0.07,0.97,4.03,1.04,1.46,987.54,25.37,
2755211,-0.01,0.06,1.0,5.07,0.12,1.16,987.54,25.38,
2755261,-0.0,0.07,0.96,5.43,0.12,1.1,987.47,25.37,
2755299,-0.0,0.07,0.9,6.41,0.73,1.1,987.45,25.36,
2755338,0.0,0.07,0.8,6.16,1.34,1.1,987.5,25.38,
2755376,-0.02,0.06,0.72,6.41,2.14,0.92,987.41,25.36,
2755414,-0.01,0.05,0.66,6.16,2.26,0.85,987.35,25.37,
2755452,-0.0,0.04,0.65,5.68,2.38,0.49,987.34,25.37,
2755490,0.01,0.04,0.65,4.82,2.93,0.55,987.34,25.39,
2755529,-0.0,0.02,0.73,4.52,2.32,0.37,987.36,25.39,
2755567,-0.01,0.03,0.74,3.17,2.56,0.49,987.31,25.38,
2755605,-0.03,0.02,0.79,2.87,3.97,0.37,987.31,25.38,
2755655,-0.01,0.04,0.85,1.65,3.48,0.24,987.26,25.36,
2755693,-0.03,0.01,0.85,1.59,5.74,0.24,987.29,25.38,
2755731,-0.01,0.01,0.86,0.06,6.71,0.18,987.26,25.37,
2755770,-0.02,0.01,0.93,0.79,7.45,0.31,987.28,25.38,
2755808,-0.02,-0.01,0.9,-0.18,6.84,0.12,987.23,25.37,
2755846,-0.02,0.01,1.01,0.92,5.62,0.06,987.28,25.38,
2755884,-0.01,-0.01,0.99,0.49,6.77,0.24,987.24,25.38,
2755923,-0.01,0.0,1.08,0.98,5.31,0.18,987.24,25.39,
2755961,-0.03,-0.01,1.1,0.85,5.74,0.31,987.25,25.38,
2755999,-0.0,-0.01,1.13,1.22,5.62,0.12,987.17,25.38,
2756049,-0.01,-0.03,1.15,2.08,5.25,0.18,987.17,25.38,
2756087,-0.01,-0.02,1.04,2.32,5.74,0.18,987.22,25.37,
2756125,-0.04,-0.0,1.08,3.91,5.25,0.12,987.15,25.38,
2756164,-0.02,-0.02,0.95,3.48,7.57,0.0,987.19,25.38,
2756202,-0.01,0.01,0.93,4.09,6.84,0.0,987.21,25.38,
2756240,-0.05,0.01,0.92,4.7,8.18,0.06,987.15,25.39,
2756278,-0.06,0.0,0.92,4.46,7.2,0.12,987.12,25.38,
2756316,-0.06,-0.01,0.84,5.19,8.12,0.06,987.14,25.4,
2756354,-0.04,0.0,0.81,4.58,7.14,0.06,987.11,25.38,
2756404,-0.01,0.02,0.84,5.07,6.96,0.12,987.02,25.36,
2756443,-0.01,0.02,0.73,3.54,7.57,0.31,987.04,25.38,
2756481,-0.04,0.03,0.76,3.72,5.25,0.37,986.92,25.38,
2756519,-0.05,0.0,0.72,2.14,3.48,0.79,986.91,25.38,
2756557,-0.04,0.01,0.81,0.73,3.6,0.79,986.92,25.39,
2756595,-0.03,0.03,0.92,-0.61,2.56,0.61,986.96,25.39,
2756634,-0.03,0.03,0.98,-1.34,0.31,0.79,986.93,25.38,
2756672,0.0,0.02,1.01,-1.95,1.22,0.61,986.94,25.38,
2756710,-0.01,0.04,1.03,-2.26,1.28,0.43,986.94,25.38,
2756748,-0.03,0.05,1.13,-2.01,1.83,0.67,986.95,25.37,
2756798,-0.07,0.04,1.15,-1.59,1.59,0.67,986.97,25.37,
2756837,-0.06,0.05,1.27,-0.67,1.83,0.31,986.96,25.38,
2756875,-0.04,0.04,1.17,-0.98,4.64,0.31,986.99,25.39,
2756913,-0.03,0.07,1.23,0.61,4.27,0.43,986.96,25.39,
2756951,-0.04,0.03,1.12,0.73,6.59,0.55,987.0,25.38,
2756989,-0.03,0.05,1.15,1.16,7.57,0.55,986.96,25.38,
2757028,-0.04,0.05,1.13,1.95,7.69,0.61,986.98,25.39,
2757066,-0.07,0.05,1.1,2.62,7.26,0.61,986.9,25.38,
2757104,-0.05,0.05,1.05,2.99,8.3,0.55,986.92,25.38,
2757142,-0.03,0.07,1.06,3.17,8.67,0.55,986.89,25.39,
2757218,-0.05,0.04,0.98,3.66,9.4,0.92,986.86,25.36,
2757256,-0.02,0.05,1.0,3.85,10.13,0.67,986.77,25.37,
2757295,-0.03,0.04,1.01,3.48,9.89,0.85,986.84,25.38,
2757384,-0.04,0.04,0.98,3.36,7.14,1.34,986.78,25.35,
2757423,-0.03,0.04,1.06,3.66,3.97,1.22,986.78,25.35,
2757461,-0.02,0.03,0.99,3.36,3.66,1.53,986.78,25.37,
2757499,-0.03,0.04,1.0,3.91,2.99,1.22,986.8,25.37,
2757537,-0.02,0.02,0.99,3.66,4.82,1.34,986.76,25.38,
2757576,-0.06,0.02,0.95,3.66,5.25,1.28,986.78,25.38,
2757614,-0.06,0.01,0.93,4.27,6.77,1.34,986.73,25.38,
2757664,-0.03,0.02,0.85,4.7,9.28,0.79,986.68,25.36,
2757702,-0.05,0.0,0.78,5.07,10.8,1.04,986.66,25.36,
2757740,-0.03,0.0,0.86,5.25,10.31,0.92,986.62,25.38,
2757778,-0.03,0.01,0.77,4.64,11.72,0.85,986.6,25.37,
2757816,-0.04,0.01,0.85,4.94,10.99,0.73,986.67,25.39,
2757855,-0.02,-0.03,0.84,4.7,12.27,0.49,986.61,25.38,
2757893,0.01,-0.02,0.8,3.91,11.6,0.37,986.55,25.39,
2757931,-0.01,-0.0,0.87,4.03,9.16,0.37,986.5,25.38,
2757969,-0.04,-0.05,0.75,2.5,9.52,0.24,986.52,25.39,
2758019,-0.04,-0.0,0.76,2.08,6.1,0.31,986.51,25.38,
2758057,-0.02,-0.03,0.71,1.04,5.0,0.12,986.5,25.39,
2758096,-0.01,-0.01,0.76,0.0,3.36,-0.31,986.53,25.38,
2758134,-0.06,-0.02,0.95,1.16,1.65,0.06,986.47,25.39,
2758172,-0.02,-0.03,0.87,-0.79,3.3,0.0,986.38,25.39,
2758210,-0.05,0.01,1.02,0.12,0.98,-0.37,986.48,25.39,
2758248,-0.07,-0.03,0.96,-0.24,3.23,0.06,986.46,25.39,
2758287,-0.03,-0.01,1.04,-1.22,3.36,-0.67,986.36,25.39,
2758325,-0.04,-0.01,1.11,-0.61,3.85,-0.85,986.46,25.39,
2758363,-0.05,-0.01,1.1,-1.34,4.46,-0.73,986.51,25.39,
2758413,-0.05,-0.01,1.1,-0.73,6.35,-0.73,986.47,25.38,
2758451,-0.03,-0.02,1.12,-0.61,5.62,-1.1,986.46,25.39,
2758489,-0.03,-0.03,1.0,-0.49,6.9,-1.22,986.47,25.38,
2758528,-0.05,0.01,0.98,-0.37,7.32,-1.22,986.48,25.39,
2758566,-0.01,0.0,1.07,0.37,7.2,-1.59,986.4,25.39,
2758604,-0.03,-0.02,0.95,-0.98,7.93,-1.77,986.4,25.38,
2758642,-0.03,0.01,1.12,-0.18,6.16,-1.89,986.35,25.4,
2758681,-0.04,-0.02,1.07,-0.73,7.81,-2.01,986.3,25.4,
2758719,-0.03,0.02,1.11,-1.77,6.04,-2.14,986.26,25.4,
2758769,-0.05,0.0,1.16,-2.2,6.47,-2.5,986.23,25.38,
2758807,-0.03,0.01,1.24,-2.56,4.21,-2.69,986.26,25.38,
2758845,-0.03,0.02,1.27,-2.5,4.46,-2.75,986.25,25.4,
2758883,-0.04,0.02,1.23,-3.48,5.0,-2.87,986.18,25.39,
2758922,-0.02,0.03,1.35,-2.32,4.46,-3.36,986.22,25.39,
2758960,-0.05,0.01,1.29,-2.5,5.43,-2.99,986.18,25.39,
2758998,-0.08,0.03,1.39,-1.28,4.21,-3.23,986.24,25.4,
2759036,-0.07,0.03,1.33,-1.34,4.82,-3.23,986.19,25.4,
2759074,-0.04,0.05,1.41,-0.61,3.05,-3.23,986.17,25.4,
2759113,-0.05,0.05,1.36,-0.55,2.99,-3.17,986.14,25.4,
2759163,-0.09,0.04,1.35,0.31,3.66,-2.81,986.12,25.38,
2759201,-0.1,0.04,1.27,0.79,2.26,-2.69,986.08,25.39,
2759239,-0.1,0.06,1.29,0.73,-0.18,-2.5,986.05,25.39,
2759277,-0.11,0.05,1.23,0.37,0.85,-2.44,985.95,25.39,
2759316,-0.13,0.03,1.26,0.43,0.55,-2.5,985.93,25.4,
2759354,-0.14,0.02,1.28,0.79,0.92,-1.77,985.9,25.39,
2759392,-0.11,0.03,1.24,0.55,1.53,-1.77,985.89,25.39,
2759430,-0.17,0.06,1.26,1.1,2.32,-1.46,985.9,25.41,
2759469,-0.14,0.03,1.21,0.98,3.23,-1.04,985.83,25.4,
2759519,-0.13,0.02,1.19,1.71,2.44,-0.73,985.84,25.39,
2759557,-0.14,0.03,1.18,1.34,3.3,-0.43,985.79,25.39,
2759595,-0.1,0.03,1.19,0.98,2.93,-0.12,985.82,25.41,
2759633,-0.13,0.04,1.21,1.53,4.58,0.31,985.78,25.41,
2759671,-0.12,0.02,1.15,1.89,4.09,0.79,985.71,25.4,
2759710,-0.13,0.0,1.19,2.56,3.78,0.85,985.81,25.41,
2759748,-0.12,0.02,1.21,2.5,3.05,0.92,985.73,25.4,
2759786,-0.11,0.0,1.14,2.5,2.14,1.53,985.68,25.41,
2759824,-0.09,0.02,1.22,2.81,1.71,1.83,985.73,25.4,
2759863,-0.1,0.0,1.11,2.44,1.4,2.08,985.74,25.4,
2759912,-0.11,-0.01,1.12,2.87,-0.73,2.32,985.8,25.39,
2759951,-0.05,-0.03,0.95,1.28,0.37,2.32,985.72,25.4,
2759989,-0.04,0.0,0.98,1.71,-0.37,2.08,985.79,25.4,
2760027,-0.09,-0.02,0.92,2.2,1.71,2.2,985.73,25.4,
2760065,-0.05,-0.05,0.9,1.71,-0.37,2.01,985.69,25.4,
2760103,-0.03,-0.06,0.9,2.08,0.06,1.89,985.69,25.4,
2760142,-0.02,-0.06,0.77,-0.37,1.28,1.65,985.69,25.39,
2760180,-0.05,-0.02,0.9,0.73,-1.59,1.46,985.7,25.41,
2760218,-0.03,-0.05,0.82,-0.67,-1.77,1.59,985.65,25.39,
2760256,0.0,-0.03,0.98,-0.98,-2.62,1.46,985.68,25.41,
2760332,-0.04,-0.05,1.03,-1.04,-2.2,1.4,985.72,25.38,
2760370,0.02,-0.03,1.18,-0.18,-2.01,1.04,985.67,25.38,
2760409,0.01,-0.04,1.13,-1.22,-1.04,0.67,985.67,25.39,
2760498,-0.04,-0.03,1.07,-0.55,-3.91,0.49,985.63,25.35,
2760537,-0.02,-0.04,1.07,-0.37,-5.43,0.37,985.54,25.37,
2760575,0.03,-0.04,1.01,-0.79,-5.43,0.06,985.62,25.39,
2760613,-0.04,-0.05,0.98,-0.18,-4.33,0.06,985.5,25.38,
2760651,-0.01,-0.04,1.03,-0.73,-3.36,-0.06,985.52,25.37,
2760690,0.02,-0.02,1.04,-0.67,-2.81,-0.49,985.5,25.38,
2760740,-0.03,-0.03,1.01,-0.61,-2.01,-0.61,985.55,25.37,
2760778,-0.03,-0.02,0.98,-0.98,-1.95,-0.73,985.53,25.39,
2760816,-0.02,-0.01,1.03,-0.67,-2.32,-1.04,985.56,25.39,
2760854,-0.0,-0.02,0.89,-2.14,-0.49,-1.22,985.52,25.39,
2760892,-0.0,0.01,1.05,-1.28,-0.79,-1.22,985.5,25.4,
2760931,-0.02,-0.04,0.95,-1.53,1.77,-1.22,985.47,25.4,
2760969,-0.02,0.0,1.04,-2.01,0.61,-1.71,985.47,25.4,
2761007,-0.04,-0.0,1.11,-1.04,0.61,-1.53,985.48,25.4,
2761045,-0.04,-0.02,1.09,-2.01,2.38,-1.71,985.44,25.4,
2761095,-0.03,0.01,1.25,-0.85,2.26,-1.59,985.38,25.39,
2761134,-0.03,-0.01,1.2,-1.34,3.23,-1.59,985.38,25.4,
2761172,-0.03,0.01,1.23,-1.28,3.23,-1.59,985.35,25.4,
2761210,-0.03,0.01,1.26,-1.53,4.39,-1.83,985.31,25.4,
2761248,-0.06,0.01,1.22,-1.59,4.15,-1.71,985.32,25.4,
2761287,-0.03,0.03,1.26,-1.22,4.21,-1.77,985.25,25.4,
2761325,-0.03,0.02,1.24,-1.46,5.62,-1.77,985.27,25.4,
2761363,-0.03,0.04,1.28,-1.46,4.58,-1.89,985.2,25.4,
2761401,-0.04,0.04,1.33,-1.16,4.33,-1.53,985.2,25.4,
2761440,-0.05,0.03,1.29,-1.28,5.8,-1.95,985.24,25.42,
2761490,-0.03,0.05,1.37,-1.16,6.23,-1.95,985.15,25.39,
2761528,-0.04,0.04,1.27,-1.1,5.98,-1.83,985.14,25.39,
2761566,-0.05,0.06,1.28,-0.92,4.27,-1.77,985.12,25.39,
2761604,-0.04,0.05,1.26,-0.79,4.33,-1.65,985.05,25.4,
2761642,-0.03,0.05,1.17,-0.55,3.23,-1.34,985.05,25.41,
2761681,-0.05,0.06,1.16,0.18,1.34,-1.28,984.96,25.4,
2761719,-0.03,0.06,1.1,-0.06,1.04,-1.4,984.93,25.41,
2761757,-0.03,0.06,1.17,0.12,0.18,-1.22,984.84,25.41,
2761795,-0.04,0.05,1.15,0.12,0.12,-1.1,984.83,25.41,
2761845,-0.06,0.07,1.16,0.67,-0.73,-1.16,984.77,25.39,
2761884,-0.07,0.05,1.1,0.43,0.12,-1.04,984.79,25.4,
2761922,-0.05,0.07,1.08,0.67,-0.79,-1.16,984.73,25.41,
2761960,-0.04,0.06,1.1,0.85,-0.31,-1.1,984.67,25.41,
2761998,-0.04,0.05,1.03,0.49,-0.12,-0.92,984.71,25.42,
2762037,-0.06,0.06,1.07,0.98,-0.37,-0.79,984.69,25.42,
2762075,-0.05,0.06,1.08,0.79,-0.37,-0.67,984.7,25.41,
2762113,-0.07,0.05,1.07,1.16,-0.31,-0.73,984.64,25.41,
2762151,-0.07,0.06,1.1,1.77,0.12,-0.24,984.65,25.42,
2762189,-0.05,0.05,1.1,2.26,0.37,-0.37,984.6,25.41,
2762239,-0.06,0.05,1.08,3.11,0.31,-0.12,984.59,25.4,
2762278,-0.07,0.05,1.04,3.66,0.92,0.24,984.54,25.42,
2762316,-0.06,0.05,0.99,3.54,1.46,0.24,984.54,25.41,
2762354,-0.07,0.04,1.02,4.46,0.98,0.49,984.49,25.42,
2762392,-0.07,0.04,0.92,3.97,1.16,0.73,984.42,25.41,
2762431,-0.07,0.05,0.97,4.76,0.24,0.73,984.44,25.41,
2762469,-0.06,0.03,0.89,4.21,0.49,0.92,984.4,25.42,
2762507,-0.06,0.05,0.92,4.15,-0.55,1.04,984.45,25.43,
2762545,-0.06,0.05,0.9,4.21,0.73,1.28,984.4,25.42,
2762583,-0.06,0.04,0.88,4.03,1.04,1.53,984.35,25.43,
2762633,-0.05,0.04,0.89,4.09,1.65,1.53,984.33,25.41,
2762672,-0.06,0.05,0.9,4.21,2.32,1.77,984.28,25.41,
2762710,-0.06,0.04,0.86,4.15,3.72,1.89,984.34,25.42,
2762748,-0.04,0.04,0.9,4.03,4.27,2.08,984.34,25.42,
2762786,-0.05,0.04,0.86,4.33,4.76,2.38,984.33,25.42,
2762824,-0.04,0.05,0.85,4.27,5.49,2.32,984.26,25.42,
2762863,-0.04,0.04,0.83,4.94,6.1,2.26,984.22,25.42,
2762901,-0.06,0.05,0.79,4.88,6.16,2.38,984.2,25.43,
2762939,-0.03,0.04,0.75,4.82,5.98,2.81,984.18,25.43,
2762977,-0.04,0.05,0.73,4.33,5.8,2.5,984.18,25.43,
2763027,-0.02,0.03,0.73,4.33,5.31,2.99,984.16,25.41,
2763065,-0.02,0.04,0.72,4.27,3.6,3.23,984.1,25.42,
2763104,-0.03,0.03,0.77,4.82,2.81,3.36,984.09,25.43,
2763142,-0.01,0.03,0.71,4.39,1.95,3.36,983.99,25.42,
2763180,-0.02,0.04,0.74,4.46,0.49,3.23,983.95,25.42,
2763218,-0.02,0.02,0.61,3.85,-0.06,3.23,983.93,25.42,
2763257,-0.01,0.04,0.72,3.48,-1.65,3.11,983.92,25.42,
2763295,0.0,0.0,0.64,3.23,-0.31,3.23,983.8,25.43,
2763333,0.0,0.02,0.63,2.26,-0.55,2.99,983.84,25.43,
2763409,0.01,0.0,0.71,1.1,-0.92,2.81,983.79,25.39,
2763447,0.01,0.02,0.8,1.1,-2.5,2.5,983.8,25.41,
2763485,-0.02,0.0,0.83,1.28,-3.05,2.38,983.74,25.41,
2763575,-0.01,0.02,0.86,0.55,-4.46,2.01,983.73,25.38,
2763613,0.0,-0.01,0.83,0.37,-4.39,1.83,983.76,25.41,
2763652,-0.02,-0.0,0.76,-0.18,-3.91,1.65,983.71,25.4,
2763690,-0.02,0.01,0.9,0.55,-4.09,1.53,983.73,25.41,
2763728,0.01,-0.02,0.82,-0.73,-1.71,1.71,983.64,25.41,
2763766,-0.03,0.02,0.93,-0.31,-2.87,1.53,983.61,25.41,
2763805,-0.05,-0.01,0.92,0.37,-0.73,1.1,983.55,25.41,
2763854,-0.02,0.02,0.88,-1.65,0.98,1.04,983.54,25.39,
2763893,-0.02,0.01,0.99,-0.61,1.77,1.34,983.55,25.41,
2763931,-0.01,-0.03,0.99,-1.65,3.42,1.22,983.54,25.41,
2763969,-0.03,0.01,1.18,-1.22,3.23,1.04,983.56,25.43,
2764007,0.0,-0.0,1.17,-2.14,4.64,0.98,983.51,25.42,
2764046,-0.02,0.02,1.35,-1.59,4.27,0.79,983.52,25.4,
2764084,-0.02,0.03,1.32,-2.5,5.68,0.98,983.48,25.41,
2764122,0.02,0.04,1.44,-1.46,5.19,0.79,983.47,25.43,
2764160,-0.02,0.02,1.45,-1.16,6.53,0.85,983.51,25.41,
2764198,-0.01,0.04,1.46,-1.16,6.41,0.92,983.58,25.43,
2764248,-0.01,0.05,1.5,0.24,7.14,0.67,983.46,25.4,
2764286,-0.03,0.04,1.5,0.79,8.24,0.55,983.51,25.41,
2764325,-0.01,0.06,1.54,1.1,8.18,0.55,983.45,25.42,
2764363,-0.01,0.06,1.52,1.65,8.0,0.73,983.46,25.42,
2764401,-0.02,0.06,1.52,1.95,7.75,0.61,983.46,25.41,
2764439,-0.01,0.09,1.53,2.14,7.02,0.98,983.38,25.42,
2764478,-0.02,0.06,1.55,2.99,5.13,1.1,983.33,25.42,
2764516,-0.03,0.05,1.45,3.36,3.72,1.28,983.29,25.43,
2764554,-0.02,0.04,1.41,3.91,2.5,1.28,983.22,25.42,
2764604,-0.0,0.06,1.32,4.33,0.06,1.1,983.15,25.41,
2764642,-0.0,0.06,1.29,4.39,-0.55,1.1,983.22,25.43,
2764680,-0.02,0.05,1.24,4.58,-0.85,0.98,983.15,25.42,
2764719,-0.02,0.05,1.13,4.7,0.92,0.85,983.21,25.42,
2764757,0.01,0.05,1.15,5.31,-0.12,0.73,983.18,25.42,
2764795,-0.01,0.04,1.09,6.23,1.22,0.49,983.14,25.43,
2764833,-0.04,0.06,0.9,5.92,2.01,0.43,983.12,25.42,
2764872,0.03,0.08,0.94,6.84,2.01,0.06,983.05,25.43,
2764910,0.0,0.04,0.78,5.43,4.58,0.18,983.01,25.43,
2764948,-0.04,0.05,0.78,5.25,3.36,0.24,982.97,25.43,
2764998,-0.04,0.04,0.72,4.21,3.36,0.18,982.91,25.42,
2765036,-0.0,0.05,0.74,4.27,2.69,0.12,982.92,25.42,
2765074,-0.0,0.05,0.7,3.97,1.89,0.24,982.89,25.43,
2765113,0.01,0.05,0.73,4.03,0.61,0.24,982.88,25.43,
2765151,0.03,0.03,0.68,3.66,-0.31,0.0,982.82,25.43,
2765189,0.02,0.05,0.75,3.66,-1.4,-0.06,982.83,25.42,
2765227,0.02,0.04,0.74,3.6,-1.53,-0.18,982.71,25.43,
2765265,0.02,0.04,0.79,3.42,-2.44,-0.37,982.72,25.44,
2765304,0.02,0.01,0.76,3.6,-2.14,-0.55,982.68,25.43,
2765342,-0.0,0.03,0.76,3.11,-2.38,-0.61,982.68,25.43,
2765392,0.01,0.04,0.79,2.93,-3.17,-0.73,982.61,25.43,
2765430,-0.0,0.01,0.83,2.38,-2.93,-0.92,982.57,25.43,
2765468,-0.02,0.01,0.86,2.08,-2.93,-1.1,982.54,25.43,
2765507,-0.01,0.01,0.91,1.65,-2.56,-1.04,982.56,25.43,
2765545,-0.01,0.0,0.91,1.83,-1.95,-0.98,982.6,25.45,
2765583,-0.02,0.01,0.88,1.46,-1.28,-1.22,982.58,25.44,
2765621,-0.02,0.0,0.88,2.44,-0.31,-1.1,982.53,25.43,
2765659,-0.01,0.0,0.85,2.87,-0.43,-1.16,982.55,25.44,
2765698,-0.03,0.01,0.86,3.91,-0.06,-1.34,982.48,25.43,
2765736,-0.03,-0.0,0.79,4.82,2.2,-1.04,982.52,25.43,
2765786,-0.02,0.0,0.75,6.1,0.92,-1.1,982.43,25.43,
2765824,-0.04,-0.01,0.67,6.77,1.71,-0.92,982.45,25.43,
2765862,-0.02,-0.01,0.65,6.16,1.77,-0.98,982.37,25.44,
2765900,-0.02,-0.01,0.63,6.77,2.44,-1.1,982.37,25.43,
2765939,-0.03,-0.02,0.61,5.37,2.62,-0.92,982.33,25.45,
2765977,-0.04,-0.03,0.62,5.07,2.62,-0.67,982.27,25.43,
2766015,-0.03,-0.02,0.66,3.48,2.56,-0.79,982.32,25.43,
2766053,-0.03,-0.03,0.65,2.99,2.87,-0.43,982.25,25.43,
2766092,-0.03,-0.03,0.61,1.65,2.5,-0.31,982.25,25.44,
2766142,-0.03,-0.04,0.64,1.89,3.17,-0.12,982.22,25.43,
2766180,-0.03,-0.04,0.63,0.49,2.87,-0.12,982.18,25.43,
2766218,-0.04,-0.03,0.71,0.55,2.14,0.06,982.14,25.44,
2766256,-0.05,-0.04,0.7,-0.98,2.5,0.37,982.19,25.44,
2766294,-0.05,-0.04,0.86,-1.1,2.62,0.37,982.14,25.44,
2766333,-0.05,-0.06,0.87,-2.44,3.66,0.55,982.13,25.43,
2766371,-0.03,-0.03,0.98,-3.3,2.93,0.55,982.15,25.44,
2766409,-0.05,-0.04,1.03,-3.11,4.09,0.92,982.06,25.43,
2766447,-0.03,-0.03,1.11,-2.93,4.39,0.92,982.03,25.44,
2766486,-0.05,-0.02,1.14,-2.44,4.82,1.59,982.1,25.44,
2766563,-0.04,-0.02,1.18,-1.16,4.82,1.65,982.11,25.41,
2766601,-0.01,-0.02,1.21,-0.43,4.58,2.01,982.04,25.41,
2766639,-0.04,-0.03,1.19,1.1,4.46,2.56,982.07,25.43,
2766729,-0.03,-0.01,1.2,2.62,5.25,2.99,981.91,25.38,
2766767,-0.02,-0.01,1.15,2.26,4.52,3.23,981.96,25.43,
2766805,-0.03,0.01,1.22,3.11,3.11,3.36,981.95,25.41,
2766844,-0.02,-0.02,1.06,2.99,4.76,3.42,981.87,25.4,
2766882,-0.02,0.03,1.18,3.05,2.99,3.72,981.9,25.43,
2766920,0.0,0.0,1.14,2.93,4.82,4.03,981.78,25.41,
2766970,-0.03,0.01,1.06,2.62,5.0,3.97,981.9,25.41,
2767008,-0.01,0.03,0.97,2.26,7.57,3.91,981.87,25.43,
2767047,0.0,0.02,0.94,1.89,9.28,4.21,981.78,25.42,
2767085,-0.02,0.02,0.82,1.53,10.13,3.85,981.82,25.44,
2767123,0.01,0.04,0.87,1.53,9.7,3.91,981.78,25.44,
2767161,0.0,0.02,0.8,0.73,10.5,4.03,981.79,25.44,
2767199,0.0,0.04,0.83,0.18,8.97,3.97,981.71,25.43,
2767238,0.01,0.03,0.89,0.79,8.54,4.15,981.72,25.43,
2767276,0.01,0.03,0.85,0.0,8.61,4.03,981.71,25.43,
2767314,0.01,0.06,0.95,0.73,6.84,4.09,981.73,25.44,
2767364,0.01,0.03,0.85,0.73,5.8,4.27,981.66,25.43,
2767402,0.0,0.05,0.89,0.92,3.42,3.78,981.71,25.43,
2767440,0.01,0.04,0.9,1.22,2.81,3.85,981.67,25.43,
2767478,0.04,0.04,0.89,1.1,2.32,3.54,981.64,25.44,
2767517,0.04,0.05,0.94,2.14,0.31,3.36,981.64,25.44,
2767555,0.03,0.05,0.92,2.5,-0.55,3.36,981.56,25.44,
2767593,0.01,0.04,0.87,2.75,-1.04,3.11,981.65,25.43,
2767631,0.02,0.05,0.91,3.48,-2.32,2.81,981.58,25.44,
2767670,0.02,0.04,0.84,3.85,-2.69,2.38,981.52,25.44,
2767708,0.01,0.05,0.83,4.09,-3.17,2.26,981.59,25.44,
2767758,0.04,0.04,0.8,4.09,-2.38,1.83,981.49,25.43,
2767796,0.04,0.05,0.84,4.15,-3.42,1.71,981.51,25.43,
2767834,0.02,0.05,0.91,4.09,-4.7,1.46,981.4,25.43,
2767872,-0.01,0.04,0.91,4.03,-3.72,1.22,981.44,25.44,
2767911,0.0,0.05,0.94,3.66,-3.54,0.92,981.36,25.44,
2767949,0.04,0.05,1.04,4.46,-2.75,0.92,981.32,25.45,
2767987,0.03,0.04,1.0,4.27,-2.14,0.61,981.3,25.45,
2768025,0.03,0.06,1.06,5.31,-2.62,0.61,981.37,25.44,
2768064,0.02,0.03,0.92,5.0,0.06,0.67,981.39,25.44,
2768102,0.0,0.05,0.88,5.37,0.49,0.12,981.36,25.45,
2768152,0.01,0.02,0.72,5.31,3.6,0.06,981.39,25.44,
2768190,0.01,0.05,0.68,5.55,4.15,-0.43,981.38,25.44,
2768228,0.08,0.05,0.71,5.68,4.7,-0.61,981.34,25.45,
2768267,0.0,0.02,0.5,4.64,5.98,-0.43,981.31,25.45,
2768305,-0.03,0.04,0.52,4.46,6.41,-0.43,981.32,25.45,
2768343,-0.02,-0.0,0.5,5.49,8.18,-0.55,981.3,25.46,
2768381,-0.01,0.02,0.42,3.66,7.45,-0.67,981.29,25.46,
2768419,-0.0,0.04,0.5,3.85,7.69,-0.79,981.27,25.45,
2768458,0.02,0.01,0.43,2.44,7.87,-0.67,981.25,25.45,
2768496,-0.0,0.03,0.58,2.38,6.47,-0.61,981.21,25.45,
2768546,0.03,-0.01,0.51,0.61,8.54,-0.73,981.23,25.43,
2768584,0.01,0.0,0.78,0.12,5.68,-0.73,981.16,25.45,
2768622,0.02,-0.0,0.84,-0.85,5.8,-0.49,981.11,25.45,
2768660,0.03,-0.0,0.97,-2.08,4.7,-0.85,981.21,25.45,
2768699,0.01,0.02,1.01,-3.17,3.23,-0.73,981.11,25.45,
2768737,0.05,0.01,1.18,-2.75,-0.24,-0.55,981.14,25.45,
2768775,0.0,0.01,1.14,-3.72,-1.1,-0.61,981.16,25.46,
2768813,0.02,0.02,1.26,-3.05,-1.77,-0.49,981.22,25.46,
2768852,0.02,0.01,1.3,-1.83,-1.83,-0.61,981.19,25.46,
2768902,-0.01,0.03,1.21,-1.22,-3.17,-0.55,981.27,25.44,
2768940,0.01,0.03,1.21,0.12,-1.59,-0.79,981.25,25.46,
2768978,0.01,0.01,1.14,0.79,-1.16,-0.98,981.23,25.45,
2769016,-0.02,0.02,1.14,1.71,-1.28,-0.98,981.16,25.45,
2769055,-0.03,0.02,1.07,2.08,0.85,-1.1,981.14,25.46,
2769093,-0.02,0.03,1.1,2.44,2.56,-0.98,981.11,25.46,
2769131,-0.01,0.03,1.04,3.05,3.97,-0.85,981.08,25.45,
2769169,-0.04,0.03,0.98,3.23,3.78,-0.49,981.05,25.45,
2769207,-0.01,0.02,0.97,3.36,4.64,-0.61,981.05,25.45,
2769246,0.0,0.04,0.95,3.11,4.82,-0.67,981.12,25.46,
2769295,-0.01,0.04,0.95,3.36,4.03,-0.12,981.06,25.44,
2769334,-0.01,0.03,0.91,3.36,4.15,-0.06,981.06,25.46,
2769372,-0.03,0.04,0.89,3.05,4.76,0.18,981.01,25.46,
2769410,-0.01,0.04,0.91,3.11,4.21,0.24,981.04,25.44,
2769448,-0.03,0.03,0.84,2.26,5.55,0.24,981.06,25.46,
2769487,-0.02,0.05,0.84,2.26,5.8,0.24,981.01,25.46,
2769525,-0.01,0.05,0.88,1.95,6.59,0.49,980.99,25.46,
2769563,0.01,0.05,0.93,1.34,6.35,0.55,980.96,25.46,
2769601,-0.01,0.05,1.05,1.95,6.29,0.73,980.98,25.46,
2769639,-0.02,0.04,1.03,1.22,6.84,0.85,980.9,25.45,
2769715,0.02,0.05,1.14,0.98,7.63,1.22,980.9,25.45,
2769754,0.01,0.05,1.17,1.46,5.8,1.46,980.93,25.44,
2769792,0.02,0.04,1.14,2.26,5.49,1.4,980.88,25.45,
2769881,0.02,0.05,1.03,3.17,6.04,1.83,980.85,25.41,
2769920,-0.01,0.06,1.06,3.48,4.7,1.77,980.89,25.43,
2769958,-0.0,0.03,1.02,3.6,5.8,1.95,980.84,25.43,
2769996,0.01,0.04,1.04,3.6,5.92,1.95,980.84,25.44,
2770034,0.02,0.04,1.02,3.91,6.04,1.77,980.79,25.43,
2770073,0.02,0.05,1.04,3.91,5.86,1.95,980.85,25.44,
2770111,0.02,0.04,1.03,4.15,7.14,1.95,980.87,25.44,
2770161,0.04,0.05,0.99,4.21,7.14,1.83,980.83,25.44,
2770199,0.01,0.03,0.93,4.46,7.75,1.83,980.77,25.44,
2770237,0.03,0.03,0.9,3.97,7.39,1.4,980.8,25.45,
2770275,0.02,0.03,0.91,4.52,8.18,1.53,980.72,25.43,
2770313,0.01,0.02,0.84,3.85,8.97,1.34,980.77,25.44,
2770352,0.04,0.04,0.88,4.03,8.54,1.22,980.73,25.44,
2770390,0.03,0.02,0.82,3.66,10.25,1.04,980.74,25.45,
2770428,0.0,0.02,0.84,3.85,9.4,0.98,980.72,25.44,
2770466,0.0,0.01,0.8,4.15,10.07,0.92,980.78,25.47,
2770504,0.01,0.02,0.76,3.54,11.11,0.61,980.74,25.46,
2770554,0.03,0.02,0.81,3.48,11.66,0.85,980.7,25.46,
2770593,0.02,0.02,0.77,2.75,11.78,0.55,980.71,25.45,
2770631,0.01,0.01,0.74,2.5,12.88,0.67,980.68,25.45,
2770669,0.02,0.01,0.8,1.04,12.15,0.55,980.66,25.46,
2770707,0.04,0.01,0.92,0.06,10.68,0.18,980.7,25.47,
2770745,0.01,-0.0,0.91,-1.71,10.19,0.55,980.68,25.46,
2770784,0.02,0.02,1.05,-2.26,6.35,0.31,980.72,25.46,
2770822,0.02,0.01,1.13,-3.17,4.15,0.31,980.7,25.46,
2770860,0.03,0.01,1.15,-4.15,3.17,-0.06,980.75,25.46,
2770910,0.02,0.03,1.15,-4.03,1.34,-0.31,980.77,25.46,
2770948,-0.02,0.02,1.26,-3.54,2.5,-0.55,980.78,25.46,
2770986,0.01,0.03,1.25,-3.11,4.09,-0.98,980.79,25.47,
2771024,-0.01,0.04,1.29,-2.62,4.88,-1.04,980.65,25.47,
2771063,-0.04,0.04,1.3,-2.2,7.32,-0.98,980.71,25.47,
2771101,-0.06,0.03,1.31,-1.53,9.7,-0.85,980.73,25.47,
2771139,-0.0,0.04,1.33,-0.73,12.27,-1.16,980.66,25.47,
2771177,-0.02,0.05,1.3,0.06,13.31,-1.04,980.7,25.47,
2771215,-0.02,0.06,1.25,0.67,14.59,-0.67,980.67,25.47,
2771254,0.01,0.07,1.28,1.22,15.32,-0.85,980.59,25.46,
2771303,-0.0,0.07,1.26,1.22,13.24,-0.61,980.68,25.47,
2771342,-0.02,0.07,1.21,1.34,11.41,-0.49,980.68,25.46,
2771380,-0.01,0.06,1.22,1.22,9.46,-0.61,980.66,25.46,
2771418,0.0,0.06,1.21,1.16,7.69,-0.55,980.67,25.47,
2771456,0.01,0.07,1.19,1.4,5.68,-0.79,980.62,25.47,
2771494,-0.01,0.09,1.18,2.01,4.94,-0.85,980.64,25.47,
2771533,-0.03,0.08,1.1,2.5,5.8,-0.79,980.6,25.47,
2771571,-0.03,0.08,1.11,2.75,5.31,-1.1,980.58,25.45,
2771609,-0.03,0.08,1.21,3.23,6.59,-1.22,980.54,25.46,
2771647,-0.02,0.06,1.1,2.69,9.95,-1.34,980.57,25.47,
2771697,-0.05,0.11,1.18,3.48,9.09,-1.59,980.57,25.47,
2771736,-0.03,0.08,1.12,2.69,11.78,-1.53,980.52,25.47,
2771774,0.0,0.09,1.17,2.62,10.5,-1.71,980.46,25.47,
2771812,-0.01,0.11,1.11,1.46,11.29,-1.95,980.49,25.47,
2771850,-0.05,0.1,1.15,0.85,8.85,-2.08,980.36,25.47,
2771888,-0.03,0.09,1.15,0.73,7.69,-2.01,980.36,25.48,
2771927,-0.04,0.1,1.23,0.49,3.05,-2.14,980.28,25.46,
2771965,-0.06,0.07,1.21,0.73,1.53,-2.44,980.23,25.47,
2772003,-0.08,0.09,1.21,0.31,0.12,-2.56,980.24,25.47,
2772053,-0.02,0.09,1.21,0.61,1.04,-2.81,980.27,25.47,
2772091,-0.08,0.08,1.16,0.79,0.06,-2.81,980.2,25.46,
2772129,-0.12,0.08,1.16,1.83,0.31,-2.81,980.2,25.46,
2772168,-0.09,0.06,1.13,1.95,2.75,-2.87,980.17,25.47,
2772206,-0.07,0.09,1.16,3.42,1.95,-3.3,980.17,25.47,
2772244,-0.11,0.11,1.1,4.58,3.05,-2.99,980.15,25.46,
2772282,-0.1,0.1,1.1,6.23,2.08,-2.93,980.09,25.46,
2772321,-0.07,0.04,1.1,6.84,3.11,-3.11,980.18,25.47,
2772359,-0.07,0.04,1.0,6.9,4.46,-3.05,980.16,25.47,
2772397,-0.08,0.06,0.95,8.0,5.0,-3.23,980.09,25.46,
2772447,-0.07,0.08,0.82,8.06,6.65,-3.11,980.1,25.47,
2772485,-0.09,0.08,0.8,9.03,5.68,-2.75,980.14,25.47,
2772523,-0.1,0.03,0.6,8.12,7.14,-2.62,979.98,25.46,
2772562,-0.07,0.06,0.59,8.18,6.53,-2.75,980.04,25.47,
2772600,-0.09,0.08,0.55,8.42,5.55,-2.56,980.0,25.47,
2772638,-0.08,0.06,0.49,8.06,4.33,-2.26,979.99,25.46,
2772676,-0.06,0.03,0.48,7.51,4.52,-2.2,979.93,25.47,
2772715,-0.07,0.03,0.46,6.47,5.25,-2.32,979.97,25.47,
2772753,-0.05,0.05,0.49,5.43,5.8,-1.83,979.96,25.47,
2772791,-0.07,0.06,0.51,4.82,3.91,-1.71,979.98,25.48,
2772867,-0.05,0.02,0.53,3.42,5.37,-1.59,979.97,25.44,
2772905,-0.05,0.05,0.6,3.54,3.78,-1.4,980.0,25.45,
2772943,-0.07,0.04,0.57,2.62,5.13,-1.34,979.99,25.47,
2773033,-0.02,0.01,0.79,1.28,6.65,-1.1,979.99,25.44,
2773071,-0.08,0.02,0.89,1.04,5.8,-0.79,980.01,25.45,
2773109,-0.04,0.03,0.9,0.24,7.2,-0.98,979.97,25.43,
2773148,-0.04,0.01,0.9,0.06,6.65,-1.1,979.97,25.45,
2773186,-0.03,0.02,0.95,-0.12,3.85,-0.79,979.97,25.46,
2773224,-0.03,0.0,0.82,-0.73,3.54,-0.55,979.92,25.46,
2773274,-0.02,0.03,0.96,0.31,1.83,-0.92,979.92,25.45,
2773312,-0.03,0.02,0.85,-0.24,0.24,-0.55,980.01,25.46,
2773350,-0.07,0.02,0.97,1.1,-0.49,-0.43,979.9,25.46,
2773389,-0.01,-0.02,0.86,1.4,1.04,-0.67,979.93,25.45,
2773427,-0.03,0.03,0.88,1.89,0.43,-1.22,979.97,25.47,
2773465,-0.02,0.03,0.84,2.99,0.92,-1.04,979.96,25.44,
2773503,-0.02,0.03,0.77,2.32,2.08,-0.98,980.0,25.46,
2773541,-0.06,0.03,0.76,3.05,3.78,-1.22,980.03,25.47,
2773580,-0.04,0.01,0.73,2.32,5.49,-1.34,980.02,25.46,
2773618,-0.03,0.02,0.75,2.01,5.86,-1.34,979.94,25.47,
2773668,-0.03,0.02,0.75,1.1,7.39,-1.59,979.93,25.45,
2773706,-0.01,0.02,0.84,0.55,8.18,-1.71,979.94,25.46,
2773744,-0.02,0.02,0.86,-0.12,8.48,-1.65,979.95,25.46,
2773783,-0.03,0.04,0.91,-0.73,7.51,-1.71,979.99,25.47,
2773821,-0.03,0.03,0.89,-1.04,7.45,-1.77,979.97,25.48,
2773859,-0.03,0.03,0.87,-1.59,6.41,-1.65,979.95,25.47,
2773897,-0.01,0.03,0.91,-1.59,5.0,-1.59,979.97,25.48,
2773935,-0.04,0.03,0.91,-1.77,4.09,-1.89,979.86,25.47,
2773974,-0.03,0.04,1.01,-1.89,3.78,-2.01,979.87,25.47,
2774024,-0.01,0.03,1.13,-1.77,3.97,-2.08,979.86,25.46,
2774062,-0.04,0.04,1.15,-1.65,3.11,-2.2,979.88,25.48,
2774100,-0.05,0.03,1.17,-1.53,4.09,-2.38,979.88,25.48,
2774138,-0.02,0.06,1.22,-1.34,4.46,-2.69,979.92,25.47,
2774176,-0.01,0.04,1.22,-1.04,5.68,-2.81,979.87,25.48,
2774215,-0.02,0.03,1.16,-1.04,4.09,-2.87,979.86,25.48,
2774253,-0.03,0.04,1.19,-0.18,3.17,-2.87,979.88,25.49,
2774291,-0.03,0.05,1.13,-0.49,3.48,-3.17,979.85,25.48,
2774329,-0.02,0.07,1.22,0.24,0.31,-3.11,979.79,25.47,
2774367,-0.04,0.04,1.15,0.06,0.37,-3.23,979.8,25.48,
2774417,-0.06,0.04,1.2,0.49,-1.65,-3.48,979.83,25.48,
2774455,-0.04,0.05,1.2,0.24,-1.16,-3.42,979.83,25.48,
2774494,-0.04,0.05,1.19,0.24,-1.4,-3.3,979.81,25.46,
2774532,-0.06,0.05,1.18,0.43,-1.16,-3.6,979.82,25.47,
2774570,-0.07,0.04,1.16,0.73,-0.31,-3.66,979.88,25.48,
2774608,-0.05,0.04,1.15,0.49,0.98,-3.66,979.88,25.49,
2774647,-0.07,0.04,1.16,0.73,2.38,-3.72,979.87,25.49,
2774685,-0.06,0.04,1.13,0.61,3.91,-3.66,979.92,25.49,
2774723,-0.07,0.05,1.13,0.49,4.64,-3.85,979.92,25.48,
2774773,-0.06,0.04,1.08,0.12,6.77,-3.54,979.97,25.47,
2774811,-0.06,0.05,1.11,0.37,5.86,-3.48,979.92,25.48,
2774849,-0.06,0.04,1.08,0.18,6.77,-3.36,979.91,25.49,
2774888,-0.05,0.04,1.08,0.06,6.47,-3.11,979.87,25.47,
2774926,-0.05,0.04,1.08,0.06,5.98,-3.05,979.84,25.47,
2774964,-0.05,0.04,1.06,-0.06,5.31,-2.87,979.86,25.49,
2775002,-0.05,0.04,1.11,0.12,3.72,-2.62,979.75,25.48,
2775041,-0.05,0.04,1.08,-0.37,2.62,-2.5,979.76,25.48,
2775079,-0.06,0.05,1.12,0.0,1.53,-2.5,979.74,25.48,
2775117,-0.04,0.03,1.13,-0.67,0.85,-2.26,979.77,25.5,
2775167,-0.05,0.04,1.15,-0.85,0.31,-2.08,979.71,25.47,
2775205,-0.05,0.04,1.14,-0.92,0.49,-2.2,979.73,25.48,
2775243,-0.06,0.05,1.18,-0.73,1.1,-2.2,979.86,25.49,
2775282,-0.05,0.05,1.15,-0.73,1.95,-2.08,979.84,25.49,
2775320,-0.06,0.06,1.2,-0.43,1.95,-2.08,979.82,25.48,
2775358,-0.06,0.04,1.19,-0.18,3.54,-1.95,979.83,25.49,
2775396,-0.05,0.05,1.18,0.18,3.48,-1.83,979.83,25.48,
2775435,-0.04,0.06,1.2,0.79,3.6,-1.83,979.86,25.48,
2775473,-0.04,0.06,1.15,0.73,3.85,-1.77,979.88,25.49,
2775511,-0.06,0.07,1.13,1.22,3.97,-1.71,979.85,25.49,
2775561,-0.06,0.05,1.11,1.46,4.27,-1.89,979.79,25.48,
2775599,-0.06,0.05,1.08,1.59,4.09,-1.95,979.65,25.49,
2775638,-0.05,0.06,1.1,1.77,4.7,-2.26,979.63,25.49,
2775676,-0.07,0.05,1.08,1.46,5.92,-2.14,979.58,25.49,
2775714,-0.08,0.06,1.11,1.71,6.35,-2.32,979.55,25.49,
2775752,-0.11,0.06,1.08,1.53,6.47,-2.08,979.59,25.49,
2775791,-0.09,0.07,1.1,1.53,7.39,-2.26,979.64,25.49,
2775829,-0.09,0.07,1.08,0.98,8.54,-2.01,979.58,25.49,
2775867,-0.1,0.07,1.14,1.89,6.53,-1.71,979.57,25.5,
2775943,-0.06,0.06,1.09,1.46,7.02,-1.22,979.53,25.46,
2775981,-0.08,0.06,1.03,1.59,6.04,-0.98,979.56,25.47,
2776019,-0.09,0.06,1.01,1.53,4.09,-0.67,979.53,25.48,
2776109,-0.08,0.05,1.01,1.04,2.32,-0.37,979.61,25.46,
2776147,-0.07,0.05,1.0,0.31,2.81,-0.06,979.57,25.46,
2776185,-0.07,0.05,1.02,0.61,3.05,0.06,979.57,25.46,
2776223,-0.05,0.05,1.01,0.18,2.87,0.12,979.53,25.46,
2776262,-0.06,0.04,0.96,0.06,3.36,0.12,979.6,25.47,
2776300,-0.05,0.03,0.99,-0.31,3.54,0.24,979.56,25.49,
2776338,-0.03,0.02,1.03,0.37,2.93,0.06,979.49,25.47,
2776388,-0.03,0.05,1.03,-0.79,2.2,0.06,979.59,25.47,
2776426,-0.01,0.02,1.04,-0.31,2.14,0.24,979.5,25.46,
2776464,-0.02,0.01,0.98,-1.16,1.04,0.12,979.54,25.48,
2776503,-0.0,0.01,1.01,-0.12,0.31,0.12,979.55,25.48,
2776541,-0.02,-0.0,0.93,-0.67,-1.28,0.06,979.45,25.48,
2776579,-0.01,0.02,1.07,-0.12,-3.78,0.06,979.46,25.48,
2776617,-0.0,-0.04,0.87,-0.12,-1.28,0.12,979.51,25.48,
2776656,0.01,0.0,1.07,0.0,-6.29,-0.12,979.49,25.49,
2776694,0.01,0.01,1.08,0.18,-5.92,0.0,979.45,25.5,
2776732,-0.03,0.03,1.13,-0.92,-7.57,0.0,979.41,25.49,
2776782,-0.01,-0.01,1.25,0.67,-7.32,-0.06,979.46,25.48,
2776820,-0.0,0.01,1.35,-0.37,-7.75,-0.85,979.52,25.47,
2776858,0.01,0.02,1.39,0.61,-4.7,-0.73,979.54,25.49,
2776897,-0.03,0.04,1.37,1.28,-3.72,-0.85,979.53,25.47,
2776935,0.02,0.02,1.24,2.01,-2.14,-1.22,979.51,25.49,
2776973,-0.03,0.04,1.23,1.4,-2.87,-1.53,979.54,25.49,
2777011,0.0,0.01,1.22,1.89,-0.67,-1.4,979.47,25.48,
2777050,-0.01,0.01,1.1,1.1,1.95,-1.77,979.53,25.49,
2777088,0.02,0.03,1.15,1.28,0.55,-2.2,979.51,25.48,
2777138,0.0,0.01,1.08,1.1,2.38,-2.44,979.46,25.47,
2777176,0.02,0.05,1.1,0.73,1.53,-2.38,979.54,25.49,
2777214,0.0,0.01,1.08,1.65,3.42,-2.26,979.42,25.49,
2777253,-0.02,0.02,0.99,0.43,2.99,-2.5,979.47,25.48,
2777291,-0.01,0.03,1.06,1.89,2.99,-2.5,979.5,25.5,
2777329,0.01,0.01,1.05,1.71,3.66,-2.69,979.45,25.49,
2777367,-0.01,0.02,1.09,2.08,3.05,-2.75,979.38,25.48,
2777405,-0.02,0.02,1.13,2.56,3.17,-2.5,979.47,25.5,
2777444,-0.04,0.0,1.08,1.89,4.39,-2.62,979.47,25.5,
2777482,-0.02,0.02,1.06,1.89,4.27,-2.69,979.47,25.5,
2777532,-0.03,0.03,0.95,1.65,3.36,-2.44,979.45,25.47,
2777570,-0.04,0.03,0.85,1.46,2.75,-2.56,979.43,25.49,
2777608,-0.02,0.03,0.87,1.4,1.22,-2.5,979.43,25.48,
2777646,-0.03,0.02,0.92,0.85,-0.06,-2.26,979.41,25.5,
2777685,-0.04,0.0,0.91,0.31,0.24,-2.2,979.36,25.5,
2777723,-0.04,0.02,0.95,-1.22,0.49,-2.08,979.3,25.49,
2777761,-0.04,0.01,1.01,-1.71,1.22,-2.01,979.34,25.5,
2777799,-0.03,-0.01,0.98,-3.3,2.26,-1.95,979.27,25.49,
2777838,-0.04,0.02,1.06,-3.23,3.05,-2.14,979.31,25.5,
2777887,0.0,0.01,1.1,-3.78,2.38,-2.01,979.3,25.49,
2777926,-0.04,0.02,1.08,-3.72,1.59,-1.95,979.3,25.5,
2777964,-0.03,0.03,1.14,-3.54,1.65,-1.77,979.3,25.5,
2778002,-0.0,0.0,1.22,-2.75,1.28,-1.89,979.25,25.49,
2778040,-0.04,0.01,1.16,-2.14,1.53,-1.77,979.3,25.49,
2778079,-0.04,0.02,1.21,-1.04,0.24,-1.28,979.29,25.5,
2778117,-0.02,-0.0,1.2,-0.06,1.34,-1.59,979.3,25.52,
2778155,-0.02,0.01,1.11,0.31,2.08,-1.77,979.3,25.5,
2778193,-0.05,0.01,1.15,1.16,0.67,-1.34,979.21,25.49,
2778232,-0.01,-0.0,1.16,0.79,2.38,-1.46,979.18,25.5,
2778281,-0.03,0.01,1.1,0.0,3.11,-1.46,979.11,25.49,
2778320,-0.04,0.0,1.21,0.12,5.19,-1.16,979.22,25.5,
2778358,-0.01,-0.03,1.1,-1.28,6.29,-1.28,979.1,25.49,
2778396,-0.01,0.02,1.23,-1.16,4.94,-1.34,979.1,25.5,
2778434,0.02,-0.0,1.18,-2.69,7.26,-0.98,979.11,25.5,
2778472,0.0,0.01,1.27,-2.62,5.37,-1.22,979.04,25.5,
2778510,-0.02,-0.01,1.26,-2.93,5.74,-1.16,979.13,25.51,
2778549,-0.01,0.01,1.34,-3.42,5.13,-1.04,979.09,25.5,
2778587,0.01,0.01,1.46,-2.87,4.82,-1.04,978.98,25.49,
2778637,0.01,0.02,1.53,-2.44,2.93,-0.98,979.02,25.49,
2778675,-0.03,0.01,1.55,-2.08,3.3,-0.92,979.01,25.49,
2778713,-0.01,-0.0,1.49,-1.89,3.6,-0.79,979.0,25.5,
2778751,0.01,0.03,1.54,-1.53,3.11,-1.1,979.0,25.5,
2778789,-0.03,0.02,1.38,-1.65,4.33,-1.22,979.04,25.5,
2778828,-0.04,0.02,1.32,-1.16,5.31,-1.16,979.0,25.5,
2778866,0.02,-0.0,1.35,-0.92,6.9,-1.46,978.94,25.49,
2778904,0.01,-0.02,1.29,-1.22,6.59,-1.59,979.0,25.5,
2778942,-0.05,0.01,1.26,-1.04,6.71,-1.34,978.93,25.52,
2778980,-0.01,0.04,1.32,-1.16,5.19,-0.98,978.85,25.5,
2779056,-0.01,0.05,1.38,-1.22,0.92,-1.04,978.77,25.48,
2779095,0.01,0.02,1.32,-1.04,3.17,-0.67,978.77,25.49,
2779133,0.03,0.02,1.29,-1.53,3.48,-0.98,978.7,25.49,
2779223,-0.0,0.03,1.26,-1.34,4.7,-0.92,978.7,25.46,
2779261,-0.0,0.04,1.32,-0.98,4.52,-1.46,978.68,25.47,
2779299,0.0,0.04,1.19,-0.98,5.92,-1.65,978.7,25.48,
2779337,0.02,0.07,1.26,-0.18,4.15,-1.65,978.66,25.49,
2779375,0.03,0.04,1.18,0.12,4.46,-1.77,978.64,25.48,
2779413,-0.0,0.05,1.12,0.31,4.27,-2.01,978.61,25.49,
2779452,0.0,0.06,1.23,1.59,3.48,-2.01,978.6,25.49,
2779501,0.0,0.05,1.12,1.34,3.3,-2.44,978.52,25.48,
2779540,-0.03,0.07,1.23,2.26,2.69,-2.62,978.47,25.49,
2779578,0.01,0.04,1.13,1.53,6.1,-2.69,978.49,25.48,
2779616,-0.02,0.07,1.16,2.14,4.33,-3.23,978.51,25.49,
2779654,-0.02,0.06,1.12,2.38,7.39,-3.36,978.51,25.49,
2779692,-0.01,0.06,1.09,1.83,8.67,-3.78,978.49,25.49,
2779731,0.01,0.07,1.11,2.56,8.3,-3.91,978.43,25.49,
2779769,-0.03,0.04,0.99,2.08,9.09,-4.03,978.46,25.5,
2779807,-0.03,0.06,1.01,3.11,9.28,-4.09,978.42,25.5,
2779857,0.01,0.06,1.03,2.93,10.01,-4.33,978.35,25.5,
2779895,-0.03,0.04,1.0,3.05,9.52,-4.39,978.27,25.49,
2779934,-0.03,0.05,1.01,2.87,9.22,-4.21,978.28,25.5,
2779972,-0.01,0.05,0.98,2.5,9.52,-4.58,978.23,25.49,
2780010,-0.01,0.06,0.97,2.32,8.18,-4.58,978.16,25.5,
2780048,-0.02,0.05,0.86,1.89,8.06,-4.58,978.1,25.49,
2780086,-0.02,0.05,0.86,1.77,6.1,-4.76,978.05,25.5,
2780125,-0.01,0.04,0.86,1.46,4.52,-5.0,977.95,25.51,
2780163,-0.03,0.03,0.81,1.16,2.62,-4.94,977.92,25.5,
2780201,-0.04,0.05,0.88,1.34,1.65,-5.31,977.85,25.51,
2780251,-0.03,0.03,0.92,1.16,1.04,-5.43,977.79,25.48,
2780289,-0.02,0.04,0.97,1.34,0.37,-5.55,977.84,25.5,
2780328,-0.05,0.03,0.99,1.59,0.55,-5.55,977.76,25.5,
2780366,-0.08,0.04,1.01,2.01,-0.49,-5.68,977.73,25.5,
2780404,-0.03,0.03,1.04,2.08,-0.92,-5.68,977.71,25.49,
2780442,-0.05,0.05,1.04,2.5,-2.32,-5.8,977.71,25.5,
2780481,-0.09,0.03,1.02,3.17,-2.32,-5.8,977.68,25.5,
2780519,-0.08,0.03,0.96,3.42,-1.83,-5.62,977.64,25.5,
2780557,-0.1,0.04,0.96,4.27,-1.65,-5.55,977.65,25.51,
2780607,-0.12,0.02,0.85,5.07,0.12,-5.13,977.56,25.5,
2780645,-0.1,0.04,0.81,5.74,-0.61,-5.13,977.6,25.5,
2780683,-0.11,0.04,0.73,6.35,0.0,-4.94,977.55,25.51,
2780722,-0.12,0.04,0.65,6.35,0.98,-4.58,977.47,25.5,
2780760,-0.12,0.03,0.64,6.53,2.14,-4.21,977.42,25.5,
2780798,-0.13,0.03,0.6,5.68,3.17,-3.91,977.5,25.51,
2780836,-0.14,0.04,0.63,5.31,4.39,-3.6,977.45,25.51,
2780875,-0.12,0.03,0.63,4.58,5.68,-3.23,977.4,25.51,
2780913,-0.1,0.04,0.66,3.23,5.37,-3.05,977.41,25.52,
2780951,-0.11,0.05,0.66,3.17,5.19,-2.69,977.38,25.49,
2781001,-0.12,0.03,0.69,2.69,5.92,-1.89,977.34,25.5,
2781039,-0.09,0.04,0.79,2.38,4.82,-1.71,977.33,25.51,
2781078,-0.13,0.03,0.81,2.93,5.25,-1.34,977.31,25.51,
2781116,-0.13,0.03,0.78,2.81,4.46,-1.1,977.3,25.49,
2781154,-0.09,0.04,0.86,3.78,4.15,-0.85,977.25,25.52,
2781192,-0.09,0.02,0.78,3.85,4.76,-0.43,977.26,25.49,
2781230,-0.11,0.04,0.74,4.58,3.97,-0.06,977.27,25.51,
2781269,-0.09,0.04,0.7,5.25,4.76,-0.06,977.25,25.51,
2781307,-0.06,0.04,0.66,5.8,4.33,0.06,977.24,25.51,
2781345,-0.1,0.04,0.62,6.53,2.87,0.24,977.23,25.5,
2781395,-0.09,0.02,0.52,6.77,4.39,0.43,977.22,25.5,
2781433,-0.07,0.04,0.54,6.65,4.09,0.49,977.18,25.51,
2781471,-0.09,0.04,0.49,6.59,3.3,0.73,977.11,25.5,
2781510,-0.1,0.02,0.44,5.37,3.05,1.04,977.04,25.5,
2781548,-0.08,0.02,0.45,4.46,3.72,1.04,977.1,25.5,
2781586,-0.06,0.02,0.48,2.32,2.69,1.28,977.03,25.52,
2781624,-0.07,0.01,0.56,0.73,2.2,1.4,977.13,25.52,
2781662,-0.06,0.01,0.69,-0.31,2.32,1.4,977.05,25.52,
2781701,-0.06,0.0,0.73,-1.59,3.6,1.53,976.99,25.51,
2781739,-0.06,0.0,0.81,-1.53,3.11,1.53,977.05,25.51,
2781789,-0.04,0.0,0.86,-2.44,3.66,1.34,977.01,25.49,
2781827,-0.05,-0.0,0.91,-2.81,3.05,1.34,977.1,25.51,
2781865,-0.05,-0.01,0.91,-3.05,3.23,1.4,977.03,25.52,
2781903,-0.04,-0.01,1.02,-3.3,2.93,0.92,977.02,25.5,
2781942,-0.03,-0.02,1.04,-3.36,3.97,1.1,977.04,25.51,
2781980,-0.03,-0.01,1.12,-3.42,3.11,0.92,977.03,25.5,
2782018,-0.04,-0.01,1.18,-2.99,2.69,0.73,977.07,25.52,
2782056,-0.02,-0.02,1.17,-2.93,2.99,0.79,977.03,25.51,
2782095,0.0,-0.02,1.21,-2.08,1.28,0.61,977.08,25.51,
2782170,-0.02,-0.01,1.1,-1.34,-1.83,0.37,976.96,25.47,
2782209,-0.02,-0.01,1.1,-1.34,-2.14,0.06,976.95,25.48,
2782247,-0.02,-0.02,1.1,-1.77,-1.83,-0.37,976.98,25.49,
2782337,-0.04,-0.01,1.1,-1.83,-2.38,-1.04,976.93,25.46,
2782375,-0.02,-0.01,1.12,-1.71,-2.26,-1.4,976.9,25.48,
2782413,-0.03,-0.01,1.09,-2.08,-2.93,-1.65,976.95,25.48,
2782451,-0.05,-0.0,1.14,-2.81,-3.11,-1.71,976.88,25.49,
2782489,-0.07,0.0,1.16,-3.85,-2.87,-2.01,976.81,25.49,
2782527,-0.05,0.01,1.26,-3.85,-3.91,-1.95,976.92,25.49,
2782577,-0.05,0.01,1.37,-3.72,-4.15,-2.14,976.9,25.49,
2782616,-0.06,0.03,1.41,-3.54,-3.72,-2.38,976.97,25.5,
2782654,-0.08,0.04,1.42,-2.87,-2.5,-2.44,976.92,25.5,
2782692,-0.1,0.02,1.44,-2.2,-0.92,-2.69,976.88,25.5,
2782730,-0.05,0.04,1.45,-1.34,0.0,-2.75,976.96,25.5,
2782768,-0.07,0.05,1.46,-0.49,-0.06,-2.75,976.95,25.51,
2782807,-0.08,0.04,1.41,0.12,-0.18,-2.44,976.91,25.5,
2782845,-0.07,0.07,1.38,1.04,-1.65,-2.44,976.9,25.49,
2782883,-0.08,0.07,1.38,1.46,-2.32,-2.2,976.85,25.51,
2782921,-0.06,0.05,1.23,1.16,-2.32,-2.08,976.89,25.51,
2782971,-0.06,0.04,1.27,2.32,-2.26,-2.38,976.79,25.49,
2783009,-0.07,0.05,1.13,2.08,-2.2,-2.2,976.73,25.5,
2783048,-0.07,0.09,1.16,3.17,-2.56,-2.32,976.79,25.5,
2783086,-0.08,0.07,0.99,2.38,-1.04,-2.26,976.76,25.52,
2783124,-0.08,0.07,1.04,2.81,-2.93,-2.14,976.7,25.51,
2783162,-0.08,0.05,1.02,2.38,-2.93,-1.83,976.69,25.51,
2783201,-0.09,0.04,0.97,1.34,-1.65,-1.95,976.69,25.5,
2783239,-0.07,0.08,1.09,1.53,-1.16,-1.77,976.7,25.5,
2783277,-0.06,0.05,1.07,0.85,-0.24,-1.59,976.67,25.5,
2783327,-0.06,0.08,1.12,0.37,-1.77,-1.22,976.69,25.5,
2783365,-0.08,0.06,1.21,0.18,-0.43,-1.22,976.68,25.51,
2783403,-0.08,0.04,1.12,-0.43,0.06,-0.98,976.67,25.51,
2783442,-0.02,0.1,1.43,0.67,-2.75,-1.16,976.61,25.5,
2783480,-0.05,0.04,1.19,-0.73,2.32,-0.92,976.71,25.52,
2783518,-0.06,0.09,1.26,-0.43,0.55,-1.04,976.65,25.52,
2783556,-0.05,0.04,1.31,2.81,2.32,-0.61,976.72,25.52,
2783594,-0.02,0.02,1.12,0.43,1.53,-0.37,976.71,25.51,
2783633,-0.07,0.07,1.35,5.13,-0.98,-0.67,976.64,25.52,
2783671,-0.04,0.02,1.07,3.97,2.01,-0.67,976.66,25.52,
2783721,-0.03,0.07,1.11,6.29,-1.4,-0.55,976.62,25.52,
2783759,-0.04,0.03,0.86,6.16,-0.79,-0.43,976.6,25.52,
2783797,-0.03,0.04,0.86,6.1,-0.31,-0.43,976.53,25.53,
2783835,-0.01,0.01,0.74,6.29,-0.55,-0.43,976.52,25.51,
2783874,-0.02,0.04,0.75,5.62,-2.32,-0.61,976.54,25.53,
2783912,-0.04,0.03,0.66,5.13,-1.34,-0.18,976.55,25.5,
2783950,-0.02,0.04,0.71,4.7,-0.49,-0.37,976.56,25.52,
2783988,0.0,0.01,0.73,5.43,-0.85,-0.55,976.49,25.52,
2784027,-0.01,0.02,0.72,3.6,-1.46,-0.73,976.5,25.52,
2784077,-0.03,0.0,0.75,3.3,0.55,-0.43,976.49,25.52,
2784115,0.01,0.01,0.73,2.2,-0.79,-0.98,976.4,25.52,
2784153,-0.03,0.02,0.82,2.62,-0.12,-0.98,976.4,25.52,
2784191,0.0,0.0,0.75,1.04,1.71,-0.92,976.41,25.52,
2784229,-0.0,0.03,0.91,1.16,0.73,-1.1,976.45,25.52,
2784267,-0.0,-0.02,0.87,0.24,1.4,-1.16,976.36,25.53,
2784306,0.0,0.0,1.02,0.18,0.98,-1.1,976.36,25.52,
2784344,0.0,-0.0,1.04,0.55,1.71,-1.16,976.36,25.53,
2784382,0.01,-0.01,1.02,-0.06,0.98,-1.28,976.39,25.52,
2784420,0.0,0.0,1.06,0.18,-0.43,-1.04,976.33,25.53,
2784470,0.02,0.0,1.09,0.0,-1.71,-1.28,976.3,25.52,
2784508,-0.0,-0.01,1.03,0.43,-1.53,-1.34,976.32,25.52,
2784546,0.02,-0.01,1.01,0.61,-2.14,-1.4,976.3,25.52,
2784585,0.02,-0.0,1.0,1.1,-2.99,-1.59,976.28,25.52,
2784623,-0.01,-0.0,0.99,0.98,-4.46,-1.34,976.22,25.52,
2784661,-0.01,0.0,1.03,1.4,-4.7,-1.53,976.22,25.53,
2784699,-0.03,-0.0,0.92,0.92,-3.36,-1.59,976.31,25.53,
2784738,-0.01,0.02,1.03,1.95,-5.13,-1.46,976.19,25.53,
2784776,-0.01,0.01,0.95,1.95,-3.6,-1.53,976.25,25.53,
2784826,-0.03,0.02,0.96,2.38,-4.15,-1.4,976.21,25.52,
2784864,-0.05,0.01,0.94,2.56,-2.87,-1.1,976.2,25.52,
2784902,-0.06,0.03,0.89,1.83,-2.69,-0.92,976.15,25.52,
2784940,-0.06,0.03,0.84,1.95,-2.87,-0.73,976.13,25.52,
2784978,-0.04,0.02,0.75,1.04,-1.65,-0.98,976.17,25.53,
2785017,-0.04,0.02,0.83,0.98,-1.16,-0.73,976.11,25.53,
2785055,-0.02,0.02,0.75,0.31,0.12,-0.43,976.11,25.53,
2785093,-0.09,0.05,0.75,0.0,0.37,-0.31,976.1,25.54,
2785131,-0.1,0.05,0.79,0.18,1.77,0.0,976.02,25.53,
2785169,-0.05,0.05,0.93,0.37,3.91,-0.18,975.96,25.53,
2785245,-0.08,0.07,0.93,1.28,6.29,0.37,976.02,25.49,
2785283,-0.08,0.07,0.91,1.65,9.7,0.73,975.98,25.52,
2785321,-0.08,0.07,0.91,1.59,10.99,1.1,975.95,25.52,
2785487,-0.02,0.06,1.01,1.83,9.34,2.62,975.89,25.45,
2785525,-0.07,0.05,1.06,1.89,8.24,2.75,975.9,25.47,
2785563,-0.05,0.05,1.07,0.06,8.54,2.81,975.91,25.49,
2785602,-0.03,0.08,1.16,-0.49,7.08,2.75,975.93,25.49,
2785640,-0.04,0.06,1.13,-1.4,7.69,2.75,975.92,25.5,
2785678,-0.05,0.07,1.24,-1.22,6.65,2.93,975.93,25.5,
2785716,-0.02,0.06,1.2,-1.46,8.48,2.87,975.95,25.5,
2785766,-0.05,0.07,1.22,-0.18,6.9,2.93,975.9,25.49,
2785804,-0.06,0.06,1.16,0.37,7.81,3.42,975.89,25.5,
2785843,-0.05,0.06,1.21,1.53,7.32,3.3,975.95,25.51,
2785881,-0.02,0.05,1.18,2.01,8.06,3.17,975.92,25.5,
2785919,-0.07,0.07,1.2,3.48,6.53,3.66,975.87,25.51,
2785957,-0.07,0.05,1.15,3.91,7.63,3.72,975.84,25.51,
2785996,-0.03,0.07,1.11,4.21,6.59,3.66,975.82,25.52,
2786034,-0.03,0.06,1.09,4.46,4.76,3.72,975.84,25.51,
2786072,-0.05,0.05,1.0,3.97,4.21,3.91,975.76,25.51,
2786110,-0.03,0.04,1.02,4.03,2.87,3.78,975.78,25.52,
2786160,-0.03,0.06,0.96,2.93,1.4,3.48,975.78,25.52,
2786198,-0.02,0.05,0.99,2.99,0.61,3.6,975.7,25.52,
2786236,-0.02,0.02,0.91,1.89,0.98,3.3,975.69,25.51,
2786275,-0.04,0.03,0.93,1.77,0.37,3.11,975.64,25.51,
2786313,-0.03,0.03,0.9,1.59,0.06,2.99,975.72,25.51,
2786351,-0.01,0.04,0.89,1.04,-0.37,2.62,975.74,25.53,
2786389,-0.05,0.03,0.89,1.34,0.12,2.5,975.68,25.52,
2786427,-0.05,0.02,0.87,2.01,1.89,2.38,975.65,25.52,
2786466,-0.03,0.03,0.87,2.32,2.81,2.14,975.65,25.53,
2786516,-0.03,0.03,0.89,2.93,3.72,1.95,975.62,25.51,
2786554,-0.04,0.04,0.86,2.99,5.55,1.83,975.65,25.52,
2786592,-0.03,0.03,0.89,3.54,6.53,1.53,975.62,25.53,
2786630,-0.03,0.03,0.86,3.23,7.02,1.46,975.59,25.53,
2786668,-0.04,0.04,0.86,3.23,6.96,1.28,975.52,25.53,
2786707,-0.04,0.03,0.83,2.75,8.18,1.1,975.57,25.53,
2786745,-0.01,0.04,0.85,2.08,8.97,0.98,975.51,25.53,
2786783,-0.01,0.04,0.95,1.89,6.96,0.92,975.48,25.53,
2786821,-0.01,0.03,0.92,0.31,6.59,0.55,975.53,25.52,
2786860,-0.02,0.05,1.04,0.37,5.8,0.43,975.49,25.53,
2786910,-0.01,0.02,1.08,-0.67,5.49,0.37,975.54,25.52,
2786948,-0.01,0.04,1.15,-0.43,4.39,0.06,975.48,25.52,
2786986,-0.02,0.04,1.15,0.0,5.37,-0.31,975.46,25.52,
2787024,-0.0,0.04,1.17,0.55,4.7,-0.55,975.44,25.53,
2787062,-0.02,0.04,1.16,1.04,4.76,-0.79,975.49,25.53,
2787101,-0.04,0.05,1.15,1.71,5.43,-1.1,975.51,25.53,
2787139,-0.02,0.03,1.11,2.44,7.2,-1.34,975.46,25.52,
2787177,-0.01,0.04,1.08,2.99,8.36,-1.65,975.47,25.54,
2787215,-0.01,0.04,1.06,3.66,8.91,-1.77,975.44,25.54,
2787254,-0.0,0.03,1.0,3.91,10.74,-1.89,975.4,25.53,
2787303,-0.03,0.04,1.0,4.46,9.95,-2.2,975.39,25.51,
2787342,-0.02,0.04,1.0,4.58,9.52,-2.5,975.35,25.52,
2787380,-0.03,0.04,0.95,4.52,8.48,-2.69,975.33,25.53,
2787418,-0.03,0.03,0.92,4.33,7.2,-2.87,975.27,25.52,
2787456,-0.04,0.04,0.92,4.09,5.25,-3.23,975.33,25.54,
2787495,-0.03,0.04,0.89,3.78,4.33,-3.17,975.22,25.54,
2787533,-0.03,0.04,0.87,3.36,3.78,-3.3,975.18,25.54,
2787571,-0.07,0.04,0.83,3.23,3.3,-3.66,975.08,25.53,
2787609,-0.07,0.04,0.88,2.81,3.36,-3.6,975.11,25.54,
2787659,-0.06,0.05,0.91,2.81,2.93,-4.03,975.04,25.52,
2787698,-0.07,0.05,0.92,2.26,4.39,-4.21,975.03,25.53,
2787736,-0.05,0.04,0.94,2.14,5.31,-4.27,975.03,25.53,
2787774,-0.04,0.04,0.99,2.08,4.58,-4.27,975.0,25.54,
2787812,-0.04,0.04,0.96,1.46,5.13,-4.7,975.01,25.53,
2787850,-0.06,0.04,0.91,1.34,6.04,-4.82,974.99,25.54,
2787889,-0.07,0.04,0.94,1.28,5.25,-4.76,975.0,25.53,
2787927,-0.06,0.02,0.88,1.04,4.64,-4.94,974.93,25.53,
2787965,-0.06,0.05,0.92,1.04,4.21,-5.25,974.93,25.54,
2788003,-0.1,0.03,0.89,1.71,4.82,-4.88,974.98,25.53,
2788053,-0.03,0.03,0.84,1.28,4.52,-5.19,974.92,25.53,
2788091,-0.11,0.05,0.89,1.34,4.15,-5.19,974.95,25.54,
2788130,-0.07,0.03,0.92,1.16,4.7,-4.82,974.87,25.53,
2788168,-0.06,0.03,0.95,1.04,3.91,-4.88,974.87,25.54,
2788206,-0.11,0.05,0.96,1.16,3.6,-5.13,974.86,25.54,
2788244,-0.09,0.03,0.97,1.16,4.27,-4.7,974.83,25.54,
2788282,-0.04,0.03,1.03,1.28,4.21,-4.82,974.82,25.54,
2788321,-0.06,0.04,1.06,1.16,3.72,-4.7,974.87,25.54,
2788359,-0.1,0.03,1.01,1.28,2.81,-4.27,974.84,25.54,
2788397,-0.11,0.04,1.04,1.16,1.4,-4.15,974.76,25.54,
2788473,-0.1,0.02,1.02,0.79,-0.55,-3.48,974.71,25.52,
2788511,-0.09,0.01,1.04,1.22,0.12,-3.48,974.68,25.53,
2788549,-0.09,0.03,0.99,0.79,-0.73,-3.6,974.67,25.52,
2788639,-0.13,0.02,0.97,2.14,-2.44,-2.5,974.69,25.49,
2788677,-0.09,0.02,0.92,2.56,-1.77,-2.75,974.65,25.5,
2788716,-0.13,0.03,0.9,2.99,-1.22,-2.5,974.69,25.52,
2788754,-0.1,0.03,0.91,3.23,-1.4,-2.08,974.68,25.52,
2788792,-0.12,0.02,0.94,3.3,-0.12,-2.01,974.69,25.52,
2788830,-0.12,0.03,1.0,3.17,0.73,-1.83,974.75,25.52,
2788880,-0.12,0.03,1.0,3.11,2.81,-1.22,974.66,25.5,
2788918,-0.11,0.03,1.03,2.5,3.17,-1.34,974.65,25.51,
2788956,-0.08,0.03,1.05,1.46,4.82,-1.34,974.7,25.52,
2788995,-0.08,0.02,1.07,0.79,4.09,-1.04,974.68,25.53,
2789033,-0.09,0.02,1.06,0.55,3.42,-0.61,974.68,25.52,
2789071,-0.1,0.01,1.02,-0.18,4.39,-0.98,974.61,25.51,
2789109,-0.08,0.04,1.08,-0.37,3.91,-0.61,974.63,25.53,
2789148,-0.07,0.02,1.09,-0.79,4.27,-0.61,974.67,25.52,
2789186,-0.1,0.0,1.05,-1.1,3.97,-0.37,974.65,25.54,
2789224,-0.09,0.03,1.15,-1.04,4.58,-0.31,974.64,25.54,
2789274,-0.06,0.01,1.1,-1.59,4.52,-0.24,974.66,25.53,
2789312,-0.07,0.02,1.18,-0.79,3.66,-0.06,974.68,25.53,
2789350,-0.08,-0.0,1.1,-0.73,4.09,-0.06,974.59,25.52,
2789389,-0.06,0.02,1.16,-0.43,3.05,-0.12,974.61,25.53,
2789427,-0.08,0.01,1.15,-0.12,3.97,0.06,974.54,25.53,
2789465,-0.06,0.01,1.18,0.31,3.11,0.0,974.59,25.53,
2789503,-0.08,-0.01,1.19,0.61,3.72,-0.06,974.51,25.53,
2789541,-0.09,0.0,1.13,0.43,4.33,0.0,974.63,25.53,
2789580,-0.07,0.01,1.21,1.71,3.72,0.06,974.55,25.52,
2789618,-0.08,-0.0,1.11,1.16,4.82,0.18,974.54,25.54,
2789668,-0.07,0.02,1.15,2.01,3.97,0.06,974.54,25.53,
2789706,-0.07,-0.01,1.06,1.71,4.7,0.12,974.49,25.54,
2789744,-0.07,0.01,1.08,2.26,3.72,0.0,974.55,25.53,
2789782,-0.07,0.01,1.07,2.44,3.72,0.06,974.48,25.54,
2789820,-0.07,0.0,1.07,2.87,2.99,0.06,974.39,25.54,
2789859,-0.06,-0.01,1.09,3.3,3.05,0.06,974.45,25.53,
2789897,-0.07,-0.01,1.07,3.05,3.11,0.12,974.4,25.54,
2789935,-0.07,0.01,1.11,3.66,2.56,-0.06,974.4,25.54,
2789973,-0.08,0.01,1.11,3.42,2.01,0.0,974.43,25.53,
2790023,-0.07,-0.0,1.14,3.78,2.08,0.12,974.38,25.54,
2790061,-0.07,-0.01,1.12,3.6,2.38,0.24,974.37,25.54,
2790099,-0.09,0.01,1.11,3.66,2.44,0.12,974.33,25.54,
2790138,-0.1,0.01,1.06,3.66,2.81,0.18,974.31,25.53,
2790176,-0.09,-0.0,1.02,3.66,2.75,0.18,974.39,25.55,
2790214,-0.07,-0.0,0.98,3.48,2.99,0.31,974.34,25.54,
2790252,-0.07,0.01,0.98,3.72,2.87,0.18,974.38,25.55,
2790291,-0.08,0.0,0.95,3.48,3.36,0.31,974.3,25.54,
2790329,-0.07,0.0,0.97,3.6,2.56,0.49,974.28,25.55,
2790367,-0.08,0.01,0.94,3.36,2.2,0.31,974.29,25.53,
2790417,-0.07,0.01,0.95,3.23,1.95,0.55,974.26,25.53,
2790455,-0.07,-0.0,0.95,2.81,1.83,0.37,974.27,25.54,
2790493,-0.07,-0.0,0.94,2.69,1.04,0.49,974.28,25.54,
2790532,-0.07,-0.01,0.93,2.81,1.1,0.73,974.2,25.54,
2790570,-0.09,-0.01,0.91,2.69,1.83,0.73,974.23,25.54,
2790608,-0.09,-0.0,0.9,2.81,2.5,0.67,974.24,25.54,
2790646,-0.09,-0.0,0.94,2.62,2.01,0.92,974.19,25.54,
2790685,-0.08,-0.0,0.96,2.75,2.69,0.92,974.24,25.55,
2790723,-0.08,-0.0,0.94,2.32,3.42,1.16,974.19,25.54,
2790761,-0.08,-0.01,0.97,2.75,3.72,1.16,974.28,25.56,
2790811,-0.08,-0.01,0.94,2.62,3.66,1.53,974.18,25.53,
2790849,-0.08,-0.01,0.96,3.3,3.11,1.53,974.2,25.54,
2790887,-0.08,-0.03,0.93,3.36,3.85,1.65,974.21,25.53,
2790926,-0.06,-0.01,0.92,3.72,2.99,1.65,974.13,25.53,
2790964,-0.05,-0.01,0.92,4.03,2.5,1.65,974.13,25.55,
2791002,-0.08,-0.03,0.88,3.97,2.44,1.89,974.12,25.54,
2791040,-0.06,-0.02,0.87,4.09,2.62,1.83,974.12,25.54,
2791079,-0.05,-0.02,0.84,3.97,2.62,2.08,974.04,25.54,
2791117,-0.05,-0.02,0.8,4.09,2.38,1.95,974.09,25.55,
2791167,-0.05,-0.02,0.78,3.78,2.44,1.77,974.02,25.53,
2791205,-0.06,-0.02,0.73,3.36,3.3,1.59,974.05,25.54,
2791243,-0.04,-0.02,0.74,3.3,2.62,1.77,974.05,25.54,
2791282,-0.03,-0.02,0.72,3.05,2.44,1.71,974.02,25.54,
2791320,-0.04,-0.03,0.72,2.32,2.32,1.59,974.02,25.54,
2791358,-0.03,-0.03,0.76,1.71,1.89,1.34,973.96,25.54,
2791396,-0.05,-0.03,0.77,1.4,1.4,1.34,973.96,25.54,
2791434,-0.04,-0.04,0.81,0.92,0.85,1.16,973.98,25.54,
2791473,-0.03,-0.03,0.85,0.31,1.1,0.92,973.93,25.54,
2791511,-0.04,-0.03,0.88,-0.12,1.1,0.73,973.93,25.54,
2791587,-0.05,-0.05,0.96,-0.79,1.65,0.55,973.87,25.5,
2791625,-0.04,-0.05,0.98,-1.16,1.53,0.24,973.9,25.52,
2791663,-0.04,-0.04,1.0,-1.22,1.22,0.24,973.93,25.53,
2791753,-0.04,-0.05,1.08,-1.59,1.53,-0.24,973.9,25.5,
2791791,-0.03,-0.04,1.08,-1.77,1.95,-0.49,973.95,25.52,
2791830,-0.03,-0.05,1.1,-1.77,2.01,-0.61,973.85,25.52,
2791868,-0.04,-0.05,1.06,-2.01,1.59,-0.79,973.88,25.53,
2791906,-0.06,-0.03,1.17,-1.71,0.73,-1.1,973.86,25.53,
2791944,-0.05,-0.05,1.14,-2.38,1.53,-1.28,973.82,25.53,
2791994,-0.04,-0.02,1.23,-2.08,0.0,-1.22,973.85,25.52,
2792033,-0.08,-0.06,1.21,-1.89,0.61,-1.16,973.86,25.53,
2792071,-0.08,-0.05,1.25,-1.95,-0.18,-1.34,973.84,25.53,
2792109,-0.09,-0.05,1.28,-1.46,0.61,-1.16,973.84,25.54,
2792147,-0.08,-0.03,1.25,-0.98,0.0,-1.16,973.81,25.53,
2792185,-0.09,-0.04,1.25,0.0,-0.85,-1.04,973.8,25.55,
2792224,-0.08,-0.04,1.18,0.49,-0.49,-0.79,973.82,25.54,
2792262,-0.07,-0.03,1.18,1.59,-1.28,-0.73,973.81,25.53,
2792300,-0.06,-0.05,1.08,1.65,-0.85,-0.31,973.7,25.54,
2792338,-0.09,-0.03,1.07,2.14,-2.32,-0.24,973.7,25.53,
2792388,-0.09,-0.06,0.96,2.01,-1.77,-0.06,973.68,25.52,
2792426,-0.08,-0.02,0.95,1.59,-4.21,-0.06,973.57,25.52,
2792465,-0.06,-0.02,1.0,1.34,-3.97,0.12,973.61,25.53,
2792503,-0.06,-0.04,0.95,0.18,-3.6,0.24,973.61,25.54,
2792541,-0.09,-0.03,1.06,0.31,-3.91,0.43,973.55,25.54,
2792579,-0.1,-0.04,1.05,-0.12,-3.23,0.73,973.56,25.54,
2792617,-0.1,-0.03,1.1,-0.37,-3.78,0.79,973.59,25.53,
2792656,-0.1,-0.02,1.08,-0.85,-2.99,0.73,973.6,25.55,
2792694,-0.1,-0.03,1.06,-1.34,-2.32,1.16,973.58,25.55,
2792744,-0.08,-0.04,1.08,-2.26,-1.59,1.65,973.58,25.53,
2792782,-0.07,-0.03,1.12,-2.87,-1.16,2.08,973.59,25.53,
2792820,-0.08,-0.04,1.18,-2.87,-1.34,2.26,973.62,25.55,
2792859,-0.08,-0.04,1.19,-3.54,-1.04,2.38,973.61,25.53,
2792897,-0.06,-0.03,1.3,-3.17,-2.01,2.26,973.59,25.54,
2792935,-0.04,-0.04,1.25,-4.03,-0.98,2.44,973.67,25.53,
2792973,-0.02,-0.02,1.36,-3.23,-1.71,2.44,973.62,25.55,
2793012,-0.03,-0.05,1.37,-3.54,-0.98,2.44,973.56,25.55,
2793050,-0.07,-0.04,1.38,-3.48,-1.46,2.5,973.57,25.53,
2793100,-0.07,-0.03,1.34,-3.48,0.12,2.38,973.57,25.54,
2793138,-0.07,-0.04,1.37,-2.81,0.37,2.38,973.62,25.54,
2793176,-0.04,-0.05,1.28,-2.99,0.98,2.38,973.54,25.53,
2793215,-0.05,-0.03,1.35,-2.08,0.98,2.5,973.63,25.54,
2793253,-0.03,-0.04,1.23,-2.32,3.05,2.62,973.65,25.55,
2793291,-0.06,-0.01,1.26,-2.01,1.53,2.75,973.54,25.53,
2793329,-0.08,-0.04,1.25,-1.89,3.66,2.93,973.63,25.55,
2793368,-0.05,-0.05,1.17,-2.01,3.66,2.81,973.6,25.54,
2793406,-0.02,-0.01,1.26,-1.65,2.87,2.56,973.55,25.55,
2793444,-0.02,-0.03,1.26,-2.14,2.75,2.81,973.47,25.54,
2793494,-0.02,-0.01,1.36,-2.01,1.71,3.23,973.53,25.53,
2793532,-0.04,-0.02,1.37,-2.08,2.56,3.05,973.51,25.55,
2793571,-0.04,-0.01,1.39,-1.77,1.89,2.93,973.46,25.54,
2793609,0.0,0.0,1.35,-2.08,1.83,2.75,973.41,25.55,
2793647,-0.01,0.0,1.3,-2.26,1.77,2.44,973.43,25.55,
2793685,-0.02,-0.0,1.26,-2.5,2.14,2.69,973.46,25.55,
2793724,-0.0,-0.01,1.25,-2.56,2.01,2.44,973.39,25.54,
2793762,-0.01,0.01,1.27,-2.56,1.89,2.32,973.4,25.56,
2793800,-0.02,0.01,1.29,-2.56,1.77,2.44,973.37,25.55,
2793850,0.0,0.01,1.28,-2.2,1.04,1.95,973.28,25.53,
2793888,-0.02,0.01,1.25,-1.89,0.49,1.95,973.28,25.54,
2793927,-0.01,0.01,1.23,-1.89,0.24,2.01,973.27,25.56,
2793965,-0.01,0.03,1.27,-1.77,0.18,1.83,973.2,25.55,
2794003,-0.01,0.03,1.31,-1.71,0.85,1.46,973.19,25.54,
2794041,-0.01,0.02,1.28,-1.59,0.98,1.4,973.23,25.54,
2794080,-0.03,0.03,1.35,-0.79,1.22,1.22,973.18,25.55,
2794118,-0.01,0.02,1.27,-0.61,2.38,0.98,973.15,25.55,
2794156,-0.01,0.05,1.32,0.55,1.89,0.61,973.21,25.56,
2794194,0.0,0.04,1.21,0.67,3.05,0.73,973.17,25.56,
2794244,-0.01,0.05,1.22,1.46,2.5,0.55,973.06,25.53,
2794282,-0.02,0.04,1.11,1.04,3.72,0.37,973.04,25.55,
2794321,-0.02,0.06,1.14,1.28,2.44,0.31,972.99,25.55,
2794359,-0.03,0.04,1.12,1.28,3.23,0.24,972.9,25.55,
2794397,-0.01,0.04,1.1,1.1,3.05,0.18,972.94,25.56,
2794435,-0.01,0.05,1.1,1.28,3.17,0.18,972.9,25.56,
2794474,-0.02,0.06,1.06,1.1,3.36,-0.06,972.92,25.56,
2794512,-0.02,0.06,1.06,1.46,3.17,0.06,972.86,25.54,
2794550,-0.03,0.07,1.07,1.89,3.36,-0.06,972.85,25.56,
2794588,-0.03,0.05,1.06,2.44,3.17,-0.24,972.85,25.56,
2794664,-0.03,0.07,0.97,4.52,3.17,-0.18,972.78,25.54,
2794703,-0.03,0.07,0.92,5.07,2.56,-0.06,972.77,25.54,
2794741,-0.05,0.06,0.91,5.98,2.14,-0.06,972.69,25.54,
2794831,-0.04,0.07,0.85,6.59,2.56,-0.37,972.68,25.51,
2794869,-0.02,0.07,0.79,6.23,2.99,-0.24,972.58,25.51,
2794907,-0.03,0.07,0.76,6.1,2.5,-0.24,972.54,25.53,
2794945,-0.05,0.06,0.7,5.43,2.62,-0.06,972.59,25.53,
2794984,-0.03,0.07,0.66,4.15,2.14,-0.18,972.45,25.53,
2795022,-0.04,0.06,0.69,3.85,0.98,-0.12,972.44,25.55,
2795060,-0.03,0.05,0.68,2.87,0.49,-0.12,972.44,25.55,
2795110,-0.03,0.06,0.78,2.62,-0.31,-0.12,972.43,25.54,
2795148,-0.04,0.05,0.83,2.38,-0.12,-0.12,972.34,25.55,
2795187,-0.05,0.07,0.88,2.56,-0.79,-0.12,972.38,25.54,
2795225,-0.05,0.06,0.91,3.54,0.12,-0.12,972.39,25.55,
2795263,-0.04,0.06,0.89,4.03,0.31,-0.12,972.36,25.56,
2795301,-0.05,0.06,0.89,5.31,-0.43,0.0,972.32,25.55,
2795340,-0.04,0.05,0.84,5.74,0.12,-0.12,972.29,25.56,
2795378,-0.04,0.06,0.86,6.29,-0.79,-0.18,972.24,25.55,
2795416,-0.06,0.05,0.84,6.29,-0.06,0.18,972.13,25.55,
2795466,-0.05,0.05,0.85,6.47,0.0,0.12,972.2,25.54,
2795504,-0.06,0.05,0.86,6.47,0.37,0.06,972.2,25.56,
2795542,-0.06,0.05,0.84,6.41,0.79,0.18,972.18,25.56,
2795580,-0.06,0.04,0.86,6.77,2.26,0.18,972.1,25.56,
2795619,-0.04,0.04,0.82,6.53,4.15,0.31,972.1,25.56,
2795657,-0.05,0.06,0.79,6.1,5.0,0.61,972.11,25.56,
2795695,-0.05,0.04,0.73,6.41,6.47,0.73,972.12,25.55,
2795733,-0.08,0.03,0.68,5.98,8.91,0.55,972.09,25.56,
2795772,-0.05,0.04,0.69,5.74,9.22,0.98,972.06,25.57,
2795810,-0.03,0.04,0.68,5.86,9.16,1.04,972.04,25.57,
2795860,-0.05,0.04,0.66,5.8,8.85,0.98,972.01,25.55,
2795898,-0.04,0.03,0.65,5.37,9.03,1.34,972.05,25.57,
2795936,-0.03,0.03,0.72,5.43,8.54,1.28,971.9,25.56,
2795974,-0.02,0.02,0.7,4.64,8.54,1.34,971.89,25.56,
2796013,-0.04,0.04,0.76,4.21,8.24,1.59,971.84,25.56,
2796051,-0.04,0.02,0.72,3.48,8.36,1.65,971.87,25.57,
2796089,-0.04,0.03,0.76,3.11,6.59,1.71,971.78,25.55,
2796127,-0.03,0.02,0.82,2.69,5.25,1.65,971.76,25.55,
2796166,-0.03,0.02,0.8,1.71,5.0,1.95,971.76,25.55,
2796204,-0.02,0.04,0.88,1.53,3.36,1.71,971.73,25.56,
2796254,-0.04,0.02,0.92,1.4,2.87,2.01,971.77,25.55,
2796292,-0.05,0.03,0.94,1.65,1.89,2.01,971.75,25.56,
2796330,-0.02,0.03,0.93,1.89,1.65,1.89,971.71,25.55,
2796368,-0.04,0.04,0.97,2.62,0.55,1.83,971.73,25.55,
2796407,-0.03,0.02,0.91,3.23,1.1,2.08,971.67,25.57,
2796445,-0.03,0.04,0.93,3.85,0.06,2.08,971.67,25.56,
2796483,-0.03,0.03,0.91,4.46,0.18,2.08,971.68,25.56,
2796521,-0.04,0.03,0.84,4.21,-0.31,1.95,971.7,25.55,
2796560,-0.04,0.03,0.85,5.07,-0.31,1.89,971.69,25.56,
2796598,-0.04,0.02,0.79,5.0,0.12,1.65,971.62,25.57,
2796648,-0.04,0.04,0.77,5.55,-0.24,1.83,971.63,25.54,
2796686,-0.03,0.03,0.75,5.55,0.0,1.65,971.56,25.54,
2796724,-0.04,0.02,0.73,5.13,0.24,1.71,971.58,25.56,
2796762,-0.04,0.03,0.73,4.88,0.92,1.89,971.54,25.56,
2796801,-0.05,0.03,0.74,4.7,2.32,1.89,971.48,25.54,
2796839,-0.04,0.03,0.77,4.15,3.78,1.89,971.55,25.55,
2796877,-0.02,0.03,0.82,3.72,4.94,1.95,971.59,25.57,
2796915,-0.05,0.03,0.84,3.36,5.49,1.95,971.48,25.56,
2796954,-0.05,0.03,0.84,2.99,6.53,2.01,971.46,25.55,
2796992,-0.02,0.03,0.84,2.44,6.53,2.2,971.5,25.56,
2797042,-0.02,0.03,0.85,2.32,5.13,2.38,971.53,25.56,
2797080,-0.03,0.01,0.87,2.14,5.19,2.62,971.44,25.56,
2797118,-0.01,0.02,0.93,2.01,4.09,2.69,971.46,25.56,
2797157,-0.0,0.03,1.0,2.01,2.26,2.75,971.46,25.55,
2797195,-0.03,0.02,1.04,1.65,0.92,2.56,971.4,25.56,
2797233,-0.02,0.01,1.04,1.28,1.1,2.69,971.44,25.56,
2797271,0.0,0.02,1.14,1.83,-0.06,2.56,971.39,25.57,
2797309,-0.0,0.0,1.09,1.71,0.55,2.38,971.45,25.57,
2797348,-0.02,0.02,1.05,1.77,0.73,2.08,971.44,25.56,
2797398,-0.03,0.02,0.99,2.38,2.56,2.08,971.4,25.56,
2797436,-0.02,0.01,0.98,2.81,2.56,2.08,971.38,25.55,
2797474,-0.01,0.01,0.96,2.93,3.36,1.77,971.41,25.57,
2797512,-0.02,0.01,0.92,2.99,4.88,1.53,971.34,25.56,
2797551,-0.01,0.02,0.95,3.17,4.7,1.59,971.35,25.55,
2797589,-0.03,0.01,0.97,3.42,4.82,1.53,971.34,25.56,
2797627,-0.01,0.01,0.94,2.93,5.8,1.53,971.34,25.56,
2797665,0.0,0.02,0.93,3.17,4.82,1.46,971.33,25.56,
2797703,-0.02,0.01,0.93,3.6,4.27,1.46,971.29,25.56,
2797742,-0.0,0.01,0.84,2.93,3.97,1.28,971.35,25.57,
2797818,-0.02,0.01,0.83,3.23,2.08,0.98,971.29,25.53,
2797856,0.0,0.01,0.78,2.81,1.4,0.85,971.22,25.55,
2797894,-0.02,0.02,0.83,2.81,1.1,0.67,971.21,25.55,
2797984,-0.04,0.01,0.85,2.26,0.12,0.37,971.16,25.52,
2798022,-0.03,0.01,0.85,1.65,0.85,0.18,971.14,25.54,
2798060,-0.02,0.02,0.93,1.53,1.04,0.0,971.07,25.53,
2798098,-0.05,0.04,0.93,1.22,1.22,0.06,971.04,25.54,
2798137,-0.03,0.04,1.05,1.65,0.67,-0.06,971.08,25.55,
2798175,-0.04,0.01,1.06,1.16,2.26,-0.37,971.06,25.55,
2798213,-0.03,0.02,1.1,1.1,1.89,-0.37,971.07,25.56,
2798263,-0.05,0.03,1.12,1.77,2.75,-0.55,971.03,25.54,
2798301,-0.04,0.03,1.08,1.95,2.93,-0.98,971.1,25.55,
2798340,-0.05,0.03,1.11,2.32,3.48,-0.92,971.04,25.54,
2798378,-0.03,0.02,1.04,2.44,4.09,-1.16,971.08,25.56,
2798416,-0.06,0.03,1.01,3.05,3.85,-1.16,971.05,25.56,
2798454,-0.06,0.03,0.95,3.42,5.43,-1.1,971.02,25.56,
2798493,-0.02,0.02,0.89,3.54,5.19,-1.16,971.0,25.55,
2798531,-0.02,0.03,0.84,3.72,4.46,-1.28,970.97,25.57,
2798569,-0.05,0.03,0.83,4.21,4.15,-1.34,970.95,25.57,
2798607,-0.05,0.01,0.78,4.15,4.33,-1.28,970.93,25.56,
2798657,-0.03,0.02,0.79,4.15,2.56,-1.28,970.97,25.57,
2798696,-0.02,0.02,0.75,3.91,1.89,-1.4,970.91,25.55,
2798734,-0.05,0.03,0.74,3.42,0.67,-1.34,970.91,25.58,
2798772,-0.05,0.01,0.78,3.36,-0.55,-1.22,970.86,25.56,
2798810,-0.04,0.0,0.76,2.93,-1.34,-1.4,970.88,25.57,
2798848,-0.06,0.02,0.82,2.81,-2.56,-1.34,970.85,25.56,
2798887,-0.03,0.01,0.83,2.69,-2.32,-1.4,970.89,25.57,
2798925,-0.05,0.02,0.89,2.62,-3.36,-1.46,970.8,25.57,
2798963,-0.07,0.01,0.93,2.62,-3.72,-1.22,970.81,25.58,
2799013,-0.07,0.01,0.95,2.14,-3.3,-1.22,970.82,25.56,
2799051,-0.07,0.01,1.02,2.75,-3.11,-1.28,970.86,25.57,
2799090,-0.05,-0.0,0.92,1.95,-0.85,-1.22,970.93,25.57,
2799128,-0.07,0.02,0.97,2.56,-1.83,-0.98,970.86,25.56,
2799166,-0.07,-0.0,0.94,2.75,0.37,-0.79,970.88,25.56,
2799204,-0.09,0.0,0.93,2.56,-0.31,-0.92,970.85,25.57,
2799243,-0.1,-0.0,0.96,3.17,0.73,-0.67,970.9,25.57,
2799281,-0.09,-0.01,0.9,2.62,2.38,-0.37,970.87,25.56,
2799319,-0.07,0.0,0.95,3.11,2.87,-0.24,970.86,25.57,
2799357,-0.08,-0.01,0.9,2.99,3.6,-0.12,970.91,25.56,
2799407,-0.09,0.0,0.91,3.42,2.14,0.31,970.84,25.55,
2799446,-0.08,-0.02,0.84,3.05,3.66,0.31,970.86,25.56,
2799484,-0.07,-0.0,0.87,3.11,3.17,0.61,970.86,25.56,
2799522,-0.07,0.01,0.82,3.3,3.23,0.67,970.81,25.56,
2799560,-0.07,0.01,0.86,2.93,1.95,0.85,970.77,25.56,
2799599,-0.05,-0.01,0.83,3.11,2.87,1.04,970.8,25.55,
2799637,-0.06,-0.01,0.87,2.56,1.16,1.28,970.81,25.56,
2799675,-0.05,-0.01,0.89,2.81,-0.24,1.34,970.78,25.57,
2799713,-0.06,-0.0,0.82,1.59,-0.67,1.4,970.78,25.57,
2799763,-0.06,0.0,0.84,1.83,-0.67,1.59,970.78,25.55,
2799801,-0.06,-0.01,0.78,0.98,-0.12,1.71,970.82,25.56,
2799840,-0.08,0.01,0.82,1.46,-0.73,1.71,970.85,25.56,
2799878,-0.07,-0.0,0.84,1.59,-0.61,2.08,970.81,25.56,
2799916,-0.07,0.01,0.88,1.34,0.43,2.14,970.83,25.57,
2799954,-0.07,0.01,0.9,1.53,1.83,2.5,970.81,25.57,
2799992,-0.07,0.01,0.92,1.46,2.93,2.75,970.78,25.57,
2800031,-0.08,0.01,0.95,1.53,3.91,2.99,970.84,25.56,
2800069,-0.05,0.02,0.93,1.28,4.15,3.11,970.82,25.57,
2800107,-0.06,0.02,0.92,1.28,5.43,3.3,970.82,25.58,
2800157,-0.04,0.01,0.98,1.46,5.19,3.6,970.81,25.54,
2800195,-0.05,0.0,0.96,0.85,5.0,3.97,970.85,25.57,
2800233,-0.06,0.02,1.03,0.49,3.85,3.91,970.81,25.57,
2800272,-0.04,0.0,1.02,0.06,4.76,3.97,970.77,25.57,
2800310,-0.04,0.0,1.09,0.12,3.78,4.21,970.81,25.57,
2800348,-0.03,0.01,1.12,-0.18,4.21,4.33,970.82,25.57,
2800386,-0.04,0.01,1.1,-0.61,4.27,4.21,970.84,25.57,
2800425,-0.06,0.01,1.08,-0.43,4.52,4.27,970.82,25.56,
2800463,-0.05,0.01,1.1,-0.55,5.0,4.33,970.84,25.58,
2800501,-0.04,0.0,1.07,-0.31,6.35,4.15,970.83,25.56,
2800551,-0.05,0.03,1.14,0.92,7.08,4.15,970.81,25.57,
2800589,-0.04,0.0,1.11,1.28,8.18,4.27,970.81,25.56,
2800627,-0.04,0.01,1.07,1.71,8.18,4.33,970.85,25.57,
2800666,-0.05,0.01,1.11,2.01,9.34,4.15,970.78,25.57,
2800704,-0.05,0.0,1.08,1.77,10.38,4.33,970.81,25.58,
2800742,-0.03,0.02,1.09,1.83,9.34,4.64,970.79,25.58,
2800780,-0.05,0.02,1.07,1.65,9.22,4.64,970.74,25.57,
2800819,-0.04,-0.0,1.03,1.65,9.4,4.46,970.82,25.58,
2800857,-0.04,-0.0,1.05,1.34,7.57,4.46,970.81,25.57,
2800895,-0.03,-0.0,0.99,0.67,6.9,4.7,970.79,25.57,
2800971,-0.02,0.01,1.02,0.18,4.15,4.58,970.68,25.55,
2801009,-0.03,-0.02,0.99,-0.18,4.27,4.64,970.77,25.56,
2801047,-0.03,0.01,1.02,-0.31,2.99,4.27,970.67,25.55,
2801137,-0.02,0.0,1.04,-0.67,2.62,4.09,970.72,25.53,
2801176,-0.01,-0.01,1.01,-0.67,3.05,3.97,970.75,25.55,
2801214,-0.02,0.0,0.98,-1.1,2.08,3.6,970.72,25.55,
2801252,-0.03,0.01,1.03,-0.79,1.95,3.6,970.75,25.56,
2801290,-0.02,-0.01,1.05,-1.1,3.3,3.3,970.73,25.57,
2801329,-0.01,0.0,1.11,-1.16,3.3,2.99,970.76,25.56,
2801378,-0.02,0.0,1.15,-1.1,3.3,2.99,970.71,25.56,
2801417,-0.03,0.0,1.14,-0.85,3.97,2.69,970.75,25.56,
2801455,-0.01,0.01,1.16,-0.85,4.21,2.62,970.78,25.57,
2801493,-0.01,0.01,1.15,-0.55,3.97,2.32,970.72,25.56,
2801531,-0.02,0.01,1.13,-0.12,4.03,2.44,970.67,25.57,
2801570,-0.02,0.0,1.1,0.0,4.09,2.14,970.71,25.57,
2801608,-0.02,0.02,1.1,0.43,3.78,1.89,970.72,25.58,
2801646,-0.01,0.02,1.14,0.67,3.85,1.59,970.68,25.58,
2801684,-0.01,0.02,1.07,0.85,3.91,1.46,970.69,25.56,
2801723,-0.01,0.03,1.14,1.16,3.85,1.28,970.69,25.57,
2801773,-0.02,0.02,1.14,1.22,3.97,1.1,970.71,25.57,
2801811,-0.02,0.03,1.18,1.71,3.6,0.67,970.69,25.58,
2801849,-0.02,0.03,1.15,1.65,4.27,0.55,970.7,25.57,
2801887,-0.03,0.04,1.18,2.32,3.48,0.49,970.63,25.57,
2801926,-0.03,0.03,1.14,2.44,4.15,0.31,970.66,25.57,
2801964,-0.03,0.03,1.13,2.81,3.66,0.24,970.64,25.57,
2802002,-0.03,0.03,1.1,2.81,3.85,0.18,970.63,25.57,
2802040,-0.03,0.03,1.02,2.69,3.85,-0.06,970.6,25.58,
2802079,-0.03,0.04,1.05,2.87,3.17,-0.24,970.6,25.57,
2802117,-0.01,0.03,1.01,2.75,3.97,-0.24,970.59,25.58,
2802167,-0.02,0.03,1.02,2.99,1.65,-0.37,970.57,25.58,
2802205,-0.02,0.03,1.02,2.99,0.85,-0.31,970.46,25.57,
2802243,-0.03,0.03,0.99,2.62,-0.06,-0.55,970.54,25.59,
2802282,-0.01,0.03,1.01,2.69,-1.83,-0.67,970.42,25.58,
2802320,-0.03,0.02,1.0,2.62,-2.08,-0.92,970.42,25.58,
2802358,-0.04,0.03,1.05,3.11,-2.2,-1.34,970.47,25.59,
2802396,-0.03,0.02,1.01,2.99,-1.1,-1.4,970.4,25.58,
2802435,-0.05,0.02,0.99,2.75,0.31,-1.77,970.45,25.59,
2802473,-0.06,0.02,0.98,2.69,2.26,-1.83,970.47,25.58,
2802523,-0.07,0.02,0.98,2.2,3.48,-2.01,970.46,25.58,
2802561,-0.06,0.01,1.0,2.32,4.21,-2.14,970.42,25.58,
2802599,-0.04,0.01,0.97,1.95,4.82,-2.14,970.47,25.59,
2802638,-0.07,0.02,1.01,2.32,5.0,-2.2,970.47,25.58,
2802676,-0.04,0.0,0.98,1.89,5.25,-1.95,970.39,25.58,
2802714,-0.07,0.0,0.93,2.2,5.0,-1.71,970.4,25.57,
2802752,-0.08,-0.0,0.91,2.2,4.82,-1.77,970.43,25.57,
2802791,-0.06,0.0,0.85,1.53,4.7,-1.83,970.41,25.59,
2802829,-0.06,0.0,0.87,2.26,2.08,-1.65,970.37,25.58,
2802867,-0.06,-0.0,0.85,1.77,2.44,-1.4,970.26,25.58,
2802917,-0.08,0.01,0.85,2.01,1.22,-1.59,970.27,25.57,
2802955,-0.07,-0.0,0.82,2.38,-0.24,-1.46,970.23,25.58,
2802994,-0.1,0.01,0.88,1.95,-0.49,-1.34,970.26,25.59,
2803032,-0.08,-0.01,0.87,1.53,1.71,-1.28,970.19,25.58,
2803070,-0.08,0.01,0.9,1.22,0.0,-1.1,970.17,25.58,
2803108,-0.1,0.01,0.95,1.46,-0.79,-0.98,970.15,25.57,
2803146,-0.1,0.0,0.91,0.49,-0.18,-0.61,970.14,25.59,
2803185,-0.09,0.0,0.98,0.61,0.73,-0.55,970.21,25.59,
2803223,-0.11,0.01,1.0,0.61,1.22,-0.37,970.26,25.58,
2803261,-0.1,0.02,1.08,0.73,0.55,-0.06,970.32,25.59,
2803311,-0.09,0.01,1.03,0.24,3.97,0.24,970.29,25.57,
2803349,-0.08,0.01,1.06,0.67,4.64,0.49,970.32,25.58,
2803387,-0.09,-0.0,1.0,0.67,5.37,0.98,970.27,25.58,
2803425,-0.09,0.02,0.98,1.28,5.13,0.79,970.3,25.59,
2803464,-0.09,0.02,0.97,1.22,6.1,1.34,970.23,25.58,
2803502,-0.05,0.02,0.99,1.28,5.37,1.65,970.26,25.58,
2803540,-0.06,0.03,0.99,1.65,4.46,1.65,970.24,25.59,
2803578,-0.1,0.03,1.03,2.08,4.46,2.32,970.2,25.58,
2803617,-0.07,0.02,1.07,1.46,4.58,2.32,970.24,25.59,
2803667,-0.07,0.03,1.14,1.77,5.13,2.44,970.28,25.57,
2803705,-0.09,0.02,1.08,1.46,5.86,2.75,970.25,25.58,
2803743,-0.07,0.04,1.14,1.46,6.29,2.69,970.23,25.59,
2803781,-0.08,0.03,1.12,0.61,6.53,2.99,970.22,25.58,
2803819,-0.08,0.04,1.17,1.1,5.13,3.48,970.15,25.58,
2803858,-0.09,0.03,1.12,0.55,6.41,3.23,970.19,25.58,
2803896,-0.06,0.04,1.18,0.31,6.47,3.3,970.19,25.59,
2803934,-0.06,0.05,1.22,0.49,6.77,3.54,970.16,25.57,
2803972,-0.08,0.04,1.19,0.43,7.14,3.6,970.14,25.59,
2804011,-0.08,0.04,1.26,0.79,7.69,3.66,970.2,25.58,
2804086,-0.08,0.05,1.2,1.1,6.71,4.15,970.09,25.55,
2804125,-0.06,0.04,1.14,0.67,7.26,4.09,970.11,25.57,
2804163,-0.03,0.07,1.14,0.61,6.71,3.78,970.13,25.57,
2804253,-0.04,0.04,1.24,1.04,4.94,4.27,970.07,25.54,
2804291,-0.06,0.02,1.27,2.01,4.64,4.39,970.1,25.58,
2804329,-0.05,0.04,1.12,0.85,5.8,4.15,970.01,25.57,
2804367,-0.02,0.05,1.25,2.32,4.88,3.85,970.04,25.58,
2804406,0.01,0.04,1.08,0.73,4.82,3.66,969.98,25.56,
2804444,-0.01,0.06,1.18,1.83,3.23,3.36,970.04,25.58,
2804482,0.0,0.02,1.07,1.28,4.7,3.36,969.93,25.57,
2804532,-0.02,0.06,1.18,1.65,2.5,2.87,969.98,25.56,
2804570,-0.02,0.03,1.09,0.98,3.48,2.75,969.98,25.57,
2804609,0.0,0.05,1.15,0.55,3.54,1.95,969.94,25.57,
2804647,0.01,0.04,1.12,0.37,3.85,1.77,969.86,25.56,
2804685,0.0,0.04,1.11,0.18,3.48,1.65,969.87,25.57,
2804723,-0.03,0.04,1.08,0.24,3.3,1.34,969.86,25.56,
2804761,-0.03,0.03,1.06,0.0,3.48,0.85,969.88,25.57,
2804800,-0.0,0.04,1.06,0.06,2.93,0.67,969.88,25.58,
2804838,-0.02,0.04,1.02,0.12,3.23,0.37,969.82,25.57,
2804876,-0.02,0.05,1.05,0.43,3.42,0.12,969.76,25.57,
2804926,-0.01,0.03,1.03,0.67,2.62,0.06,969.82,25.57,
2804964,-0.02,0.04,1.07,1.53,2.38,-0.37,969.81,25.57,
2805003,-0.03,0.03,1.06,1.53,2.32,-0.31,969.73,25.58,
2805041,-0.02,0.04,1.04,2.44,1.65,-0.61,969.81,25.59,
2805079,-0.02,0.05,1.01,2.69,0.24,-0.98,969.7,25.57,
2805117,-0.0,0.05,1.0,2.81,-0.49,-0.92,969.66,25.57,
2805155,-0.0,0.04,1.0,3.6,-0.49,-0.92,969.67,25.58,
2805193,-0.03,0.04,0.99,3.72,-0.92,-1.04,969.68,25.58,
2805232,-0.01,0.05,1.03,4.39,-2.2,-1.28,969.68,25.58,
2805270,-0.03,0.03,0.96,4.21,-2.01,-1.4,969.65,25.58,
2805320,-0.02,0.04,1.0,4.52,-1.77,-1.59,969.56,25.57,
2805358,-0.01,0.03,0.95,4.39,-0.24,-1.77,969.59,25.59,
2805396,-0.05,0.05,0.96,4.94,-0.98,-1.59,969.64,25.58,
2805435,-0.02,0.04,0.93,4.82,-0.73,-1.83,969.54,25.58,
2805473,-0.08,0.04,0.96,5.19,-1.16,-1.77,969.56,25.59,
2805511,-0.02,0.04,0.91,4.88,-0.55,-1.71,969.59,25.58,
2805549,-0.06,0.05,0.88,5.0,-1.77,-1.83,969.53,25.59,
2805587,-0.07,0.04,0.78,4.94,-0.92,-1.65,969.55,25.58,
2805626,-0.05,0.05,0.85,4.58,-1.28,-1.65,969.51,25.59,
2805676,-0.06,0.03,0.81,4.27,-1.34,-1.28,969.51,25.59,
2805714,-0.04,0.04,0.77,4.09,-1.34,-1.28,969.42,25.58,
2805752,-0.08,0.05,0.84,3.48,-0.73,-1.1,969.45,25.58,
2805790,-0.08,0.03,0.83,3.48,0.12,-0.73,969.38,25.59,
2805829,-0.08,0.04,0.85,2.81,-1.71,-0.49,969.38,25.59,
2805867,-0.08,0.04,1.03,3.17,0.24,-0.31,969.35,25.59,
2805905,-0.09,0.02,0.94,1.28,3.85,-0.18,969.33,25.59,
2805943,-0.1,0.06,1.12,2.56,2.87,-0.06,969.31,25.58,
2805982,-0.07,0.01,1.02,1.89,4.76,0.12,969.37,25.59,
2806020,-0.08,0.05,1.05,1.83,3.97,0.18,969.33,25.6,
2806070,-0.1,0.02,1.01,3.23,6.59,0.67,969.36,25.58,
2806108,-0.08,0.02,1.11,4.27,7.57,0.67,969.31,25.59,
2806146,-0.06,0.02,1.08,5.31,8.06,1.04,969.31,25.6,
2806185,-0.06,0.02,1.07,5.74,7.2,1.28,969.24,25.59,
2806223,-0.07,0.02,0.98,6.41,8.0,1.53,969.26,25.59,
2806261,-0.07,0.04,1.0,7.45,6.16,1.77,969.25,25.58,
2806299,-0.11,0.03,0.93,7.93,7.02,2.2,969.31,25.6,
2806337,-0.05,0.01,0.83,8.0,7.32,2.38,969.3,25.6,
2806376,-0.03,0.03,0.85,8.91,8.54,1.95,969.29,25.59,
2806414,-0.05,0.02,0.76,8.85,9.58,2.81,969.25,25.59,
2806464,-0.08,0.03,0.73,9.58,7.63,3.36,969.24,25.59,
2806502,-0.04,0.01,0.69,9.58,8.61,2.93,969.23,25.58,
2806540,-0.04,-0.0,0.6,8.24,8.3,3.3,969.15,25.58,
2806578,-0.0,0.03,0.67,8.91,6.1,3.48,969.18,25.59,
2806617,-0.06,-0.0,0.52,7.75,7.2,3.54,969.11,25.58,
2806655,-0.03,0.02,0.62,7.02,4.7,3.6,969.12,25.58,
2806693,-0.03,-0.03,0.55,7.93,5.68,3.72,969.06,25.59,
2806731,-0.03,0.0,0.64,5.92,2.93,3.36,969.05,25.59,
2806770,-0.04,0.0,0.61,6.04,1.89,3.54,969.07,25.59,
2806819,-0.05,0.0,0.64,4.03,-1.04,3.54,968.99,25.57,
2806858,0.01,-0.01,0.69,3.66,-2.69,3.54,969.03,25.59,
2806896,-0.06,-0.02,0.63,2.5,-3.17,3.72,969.0,25.58,
2806934,-0.02,-0.02,0.76,2.44,-4.58,3.78,968.98,25.57,
2806972,-0.04,-0.04,0.68,1.4,-4.7,3.42,969.06,25.59,
2807011,-0.01,-0.01,0.71,1.04,-6.71,3.36,969.01,25.59,
2807049,-0.06,-0.03,0.6,2.44,-4.58,3.48,969.04,25.59,
2807087,-0.05,-0.0,0.58,0.55,-3.3,3.17,969.05,25.59,
2807125,-0.03,-0.0,0.63,2.56,-2.38,3.17,969.08,25.6,
2807164,-0.05,-0.04,0.48,1.77,-1.4,2.99,969.07,25.6,
2807241,-0.02,-0.05,0.55,1.59,-1.46,3.23,969.02,25.56,
2807279,-0.04,-0.03,0.64,0.79,-2.75,2.99,969.04,25.57,
2807317,-0.05,-0.03,0.62,0.43,-1.4,3.11,969.08,25.58,
2807407,-0.03,-0.05,0.59,-0.92,-0.49,3.23,969.06,25.55,
2807445,-0.03,-0.02,0.65,-1.53,-1.83,2.75,969.05,25.54,
2807484,-0.03,-0.04,0.72,-1.28,-0.67,2.99,969.01,25.56,
2807522,-0.05,-0.05,0.73,-2.14,-1.34,3.11,968.97,25.57,
2807560,-0.03,-0.03,0.85,-2.08,-1.65,2.99,969.02,25.57,
2807598,-0.02,-0.05,0.88,-2.32,-0.79,2.81,969.01,25.57,
2807648,-0.02,-0.03,0.96,-2.81,0.12,2.99,968.98,25.56,
2807687,-0.03,-0.03,0.98,-2.32,-0.31,2.93,968.95,25.56,
2807725,-0.05,-0.03,1.03,-2.5,-1.95,2.75,968.99,25.57,
2807763,-0.07,-0.04,1.06,-2.99,-2.01,3.11,968.99,25.57,
2807801,-0.04,-0.04,1.08,-3.3,-3.17,3.42,968.98,25.59,
2807840,-0.05,-0.02,1.11,-3.6,-4.7,3.3,968.95,25.57,
2807878,-0.06,-0.02,1.15,-3.42,-5.49,3.36,968.91,25.58,
2807916,-0.02,-0.02,1.2,-3.97,-5.49,3.54,968.97,25.59,
2807954,-0.03,-0.02,1.2,-4.21,-5.37,3.6,968.97,25.58,
2807993,-0.07,0.0,1.24,-3.97,-6.04,3.97,969.06,25.58,
2808043,-0.05,-0.03,1.17,-4.58,-2.32,3.72,969.02,25.56,
2808081,-0.08,0.01,1.32,-4.09,-2.81,3.85,969.04,25.58,
2808119,-0.04,-0.01,1.33,-4.15,-0.98,3.91,969.06,25.59,
2808157,-0.12,-0.01,1.29,-4.33,0.55,4.09,969.12,25.6,
2808195,-0.04,0.02,1.4,-3.78,1.95,4.46,969.11,25.59,
2808234,-0.05,0.01,1.43,-3.85,1.71,4.52,969.14,25.59,
2808272,-0.05,0.01,1.4,-4.03,3.05,4.76,969.05,25.58,
2808310,-0.06,0.02,1.39,-3.85,3.97,5.19,969.11,25.59,
2808348,-0.04,0.01,1.38,-4.09,4.03,5.13,969.07,25.6,
2808398,-0.07,0.03,1.44,-4.21,4.15,5.68,969.03,25.58,
2808436,-0.05,0.03,1.48,-4.21,5.8,5.68,969.17,25.6,
2808475,-0.06,0.02,1.5,-4.15,5.92,6.04,969.07,25.59,
2808513,-0.05,0.04,1.54,-2.75,5.13,6.41,969.12,25.59,
2808551,-0.05,0.03,1.49,-2.2,6.47,6.47,969.12,25.59,
2808589,-0.02,0.03,1.47,-1.04,5.62,6.77,969.14,25.59,
2808628,-0.01,0.02,1.46,0.61,4.76,7.26,969.16,25.6,
2808666,-0.01,0.01,1.26,1.16,4.39,7.14,969.09,25.6,
2808704,-0.04,0.03,1.24,2.14,3.72,7.08,969.1,25.6,
2808742,0.02,-0.01,1.18,2.69,4.94,7.32,969.08,25.6,
2808792,0.03,0.04,1.19,2.38,-1.83,7.26,968.98,25.57,
2808831,0.02,0.01,1.17,2.56,0.37,7.39,968.94,25.59,
2808869,0.06,0.02,1.12,0.06,-1.28,6.96,968.95,25.6,
2808907,0.01,-0.0,1.1,2.2,-1.71,6.77,968.91,25.6,
2808945,0.02,-0.01,1.06,0.06,-1.95,6.35,968.94,25.6,
2808984,0.05,0.01,1.11,0.31,-1.04,5.62,968.93,25.6,
2809022,0.06,0.01,1.06,-0.37,0.55,5.31,968.94,25.61,
2809060,0.07,0.01,1.12,0.12,1.34,4.88,968.85,25.59,
2809098,0.05,-0.01,1.03,0.06,2.62,4.46,968.86,25.6,
2809137,0.06,0.0,1.15,0.85,3.05,3.78,968.81,25.6,
2809187,0.06,0.01,1.12,0.31,3.05,3.48,968.79,25.6,
2809225,0.04,0.01,1.16,0.49,2.38,2.99,968.72,25.6,
2809263,0.02,0.0,1.16,0.06,2.69,2.81,968.7,25.59,
2809301,0.04,0.01,1.2,0.24,2.56,2.38,968.7,25.6,
2809339,0.07,0.02,1.16,-0.06,2.99,1.89,968.76,25.6,
2809378,0.04,0.02,1.24,0.24,4.03,1.71,968.72,25.6,
2809416,0.03,-0.02,1.12,-0.18,6.41,1.46,968.7,25.59,
2809454,0.04,0.0,1.23,0.79,5.62,0.67,968.72,25.6,
2809492,0.05,-0.0,1.1,0.31,7.57,0.73,968.75,25.61,
2809530,0.01,0.04,1.07,0.43,6.77,0.49,968.65,25.6,
2809580,0.04,0.0,1.02,0.67,8.97,0.12,968.62,25.59,
2809618,0.04,-0.0,1.0,0.67,8.91,-0.18,968.62,25.6,
2809657,0.06,0.01,1.08,1.53,9.22,-0.49,968.63,25.6,
2809695,0.05,-0.0,1.03,1.04,10.44,-0.85,968.61,25.6,
2809733,0.02,0.02,1.05,1.71,10.13,-1.1,968.69,25.61,
2809771,0.03,-0.0,1.03,2.08,11.9,-1.46,968.65,25.59,
2809810,0.06,0.01,1.0,2.56,10.38,-2.01,968.77,25.62,
2809848,0.03,0.02,0.93,3.72,9.58,-2.2,968.7,25.6,
2809886,0.05,0.02,0.93,3.91,7.75,-2.38,968.72,25.6,
2809936,0.02,0.02,0.85,4.46,6.16,-2.62,968.67,25.59,
2809974,0.0,0.02,0.8,4.64,4.58,-2.87,968.64,25.6,
2810012,-0.0,0.01,0.77,4.82,3.85,-3.36,968.66,25.6,
2810050,0.0,0.02,0.68,4.21,3.6,-3.66,968.63,25.59,
2810089,-0.0,0.03,0.7,4.03,3.78,-3.85,968.62,25.62,
2810127,-0.01,0.01,0.68,3.54,5.43,-4.03,968.7,25.61,
2810165,-0.01,0.01,0.7,2.62,6.41,-4.09,968.64,25.61,
2810203,-0.02,0.02,0.8,2.38,7.32,-4.15,968.61,25.6,
2810242,-0.02,0.01,0.76,0.98,7.93,-4.15,968.65,25.61,
2810280,-0.03,0.02,0.84,1.53,6.53,-4.33,968.65,25.61,
2810356,-0.03,0.02,0.85,0.85,5.43,-4.21,968.59,25.59,
2810394,-0.03,0.03,0.88,0.43,5.31,-4.21,968.56,25.59,
2810432,-0.03,0.02,0.94,0.31,4.15,-4.03,968.53,25.59,
2810522,-0.04,0.02,1.01,0.0,3.97,-3.72,968.48,25.56,
2810560,-0.04,0.02,0.99,-0.37,3.91,-3.85,968.53,25.57,
2810598,-0.07,0.02,0.99,0.0,3.85,-3.85,968.59,25.59,
2810637,-0.04,0.02,0.99,0.0,4.82,-3.85,968.52,25.58,
2810675,-0.04,0.02,0.97,0.06,4.46,-3.6,968.48,25.59,
2810713,-0.06,0.03,0.94,0.31,4.21,-3.48,968.45,25.59,
2810751,-0.09,0.01,0.93,0.55,4.64,-3.48,968.43,25.58,
2810801,-0.06,0.02,0.98,1.28,4.21,-3.54,968.5,25.57,
2810839,-0.08,0.02,0.96,1.46,4.7,-3.23,968.47,25.59,
2810878,-0.09,0.02,0.98,1.83,4.46,-3.05,968.41,25.59,
2810916,-0.08,0.03,0.99,2.14,5.13,-2.75,968.4,25.59,
2810954,-0.1,0.03,0.97,2.62,5.31,-2.44,968.43,25.6,
2810992,-0.11,0.03,0.96,3.17,5.92,-2.14,968.41,25.59,
2811031,-0.1,0.04,0.94,3.6,6.77,-1.89,968.37,25.58,
2811069,-0.1,0.04,0.92,4.09,6.9,-1.59,968.39,25.6,
2811107,-0.1,0.04,0.85,4.27,7.51,-1.22,968.33,25.59,
2811157,-0.1,0.03,0.86,4.64,8.67,-0.73,968.37,25.59,
2811195,-0.09,0.04,0.86,4.09,8.0,-0.49,968.35,25.6,
2811233,-0.07,0.05,0.92,4.52,7.57,-0.12,968.33,25.61,
2811272,-0.09,0.04,0.89,3.78,7.2,0.24,968.32,25.59,
2811310,-0.11,0.04,0.92,3.72,6.16,0.49,968.28,25.6,
2811348,-0.07,0.04,0.91,3.48,7.02,0.61,968.29,25.6,
2811386,-0.09,0.05,0.89,3.6,6.53,0.79,968.3,25.6,
2811424,-0.11,0.05,0.88,3.48,6.23,1.22,968.2,25.6,
2811463,-0.09,0.05,0.87,3.17,6.59,1.65,968.28,25.59,
2811501,-0.08,0.05,0.89,3.48,6.23,1.89,968.24,25.6,
2811551,-0.08,0.05,0.87,3.48,5.55,2.38,968.26,25.59,
2811589,-0.08,0.05,0.86,3.42,4.76,2.32,968.26,25.59,
2811627,-0.05,0.05,0.9,3.54,4.88,2.75,968.27,25.6,
2811666,-0.05,0.04,0.9,3.23,4.88,2.81,968.19,25.6,
2811704,-0.06,0.05,0.9,3.3,4.52,3.05,968.17,25.59,
2811742,-0.07,0.04,0.94,3.23,4.27,3.23,968.13,25.6,
2811780,-0.05,0.04,0.95,3.36,3.66,3.05,968.13,25.6,
2811818,-0.07,0.04,0.91,2.81,3.66,3.11,968.15,25.61,
2811857,-0.05,0.03,0.91,2.81,3.23,3.11,968.09,25.6,
2811895,-0.02,0.04,0.93,2.2,3.42,3.05,968.11,25.59,
2811945,-0.04,0.04,0.94,2.01,2.75,3.3,968.07,25.58,
2811983,-0.03,0.03,0.93,1.4,2.62,3.17,968.1,25.59,
2812021,-0.03,0.03,0.95,1.1,1.83,2.99,968.07,25.6,
2812060,-0.04,0.03,0.97,1.46,1.04,3.05,968.11,25.59,
2812098,-0.05,0.02,0.94,1.4,1.71,2.56,968.07,25.6,
2812136,-0.02,0.04,0.99,1.53,0.73,2.62,968.11,25.59,
2812174,-0.04,0.02,0.96,1.95,1.34,2.56,968.07,25.59,
2812212,-0.03,0.02,0.91,1.77,1.4,2.32,968.17,25.61,
2812251,-0.02,0.03,0.9,2.2,1.28,2.2,968.14,25.61,
2812289,-0.05,0.01,0.84,2.14,0.73,2.08,968.15,25.61,
2812339,-0.05,0.02,0.87,2.93,-0.18,2.08,968.08,25.6,
2812377,-0.03,0.02,0.83,2.38,-0.12,1.95,968.1,25.6,
2812415,-0.01,0.04,0.89,2.38,-1.1,1.71,968.1,25.6,
2812453,-0.04,0.02,0.86,2.32,-1.22,1.83,968.06,25.6,
2812492,-0.04,0.02,0.94,2.32,-2.01,1.71,968.08,25.6,
2812530,-0.01,0.02,0.98,2.44,-1.59,1.46,968.03,25.6,
2812568,-0.03,0.02,0.93,1.77,-2.2,1.28,968.11,25.6,
2812606,-0.05,0.03,1.01,2.69,-2.38,1.1,968.08,25.61,
2812644,-0.03,0.0,0.91,1.89,-1.04,0.92,968.11,25.61,
2812683,-0.01,0.04,1.02,2.01,-2.2,0.85,968.04,25.61,
2812733,-0.02,0.02,0.96,1.46,-0.67,0.79,968.1,25.6,
2812771,-0.04,0.04,1.02,1.83,-0.61,0.55,968.13,25.6,
2812809,-0.03,0.02,1.02,1.95,0.37,0.55,968.13,25.61,
2812847,-0.03,0.03,1.07,2.08,0.12,0.37,968.13,25.6,
2812885,-0.05,0.03,1.04,2.62,1.1,0.43,968.13,25.6,
2812924,-0.04,0.04,1.02,2.32,1.89,0.31,968.21,25.62,
2812962,-0.02,0.04,1.02,2.69,1.77,0.24,968.11,25.61,
2813000,-0.04,0.03,1.02,2.56,2.2,0.24,968.18,25.61,
2813038,-0.05,0.03,0.97,2.87,2.69,0.12,968.13,25.61,
2813088,-0.05,0.06,1.02,2.87,3.23,0.18,968.15,25.6,
2813126,-0.04,0.04,1.04,3.36,3.36,0.06,968.13,25.61,
2813165,-0.05,0.03,0.98,3.3,3.91,0.06,968.16,25.6,
2813203,-0.05,0.04,1.01,3.42,4.03,0.0,968.12,25.61,
2813241,-0.05,0.05,0.97,3.6,5.13,0.12,968.12,25.62,
2813279,-0.05,0.06,0.99,3.78,4.94,0.18,968.12,25.62,
2813317,-0.06,0.05,0.97,3.85,5.74,0.31,968.14,25.62,
2813356,-0.06,0.05,0.98,4.15,6.53,0.31,968.08,25.61,
2813394,-0.06,0.04,0.98,4.64,7.08,0.31,968.16,25.62,
2813432,-0.05,0.05,0.96,4.58,7.32,0.31,968.06,25.62,
2813508,-0.06,0.05,0.87,4.76,7.39,0.49,968.1,25.58,
2813546,-0.04,0.06,0.88,5.07,6.41,0.67,968.01,25.59,
2813584,-0.07,0.04,0.83,4.94,6.35,0.67,968.08,25.6,
2813674,-0.05,0.04,0.77,4.82,5.43,1.1,968.05,25.57,
2813712,-0.06,0.04,0.78,4.64,4.82,1.1,968.04,25.58,
2813750,-0.06,0.03,0.77,4.58,4.94,1.1,968.0,25.59,
2813789,-0.07,0.04,0.78,4.39,4.64,1.22,967.95,25.59,
2813827,-0.05,0.03,0.78,4.03,4.52,1.4,968.03,25.59,
2813865,-0.05,0.04,0.79,3.97,4.03,1.59,968.02,25.6,
2813903,-0.05,0.03,0.79,3.78,3.54,1.34,968.0,25.61,
2813953,-0.07,0.01,0.74,2.87,3.48,1.46,967.97,25.59,
2813991,-0.04,0.03,0.82,2.75,3.23,1.77,968.0,25.59,
2814030,-0.05,0.01,0.82,2.01,3.17,1.89,968.01,25.6,
2814068,-0.04,0.02,0.85,1.4,3.3,1.71,968.01,25.6,
2814106,-0.04,0.01,0.92,0.79,3.91,1.71,967.99,25.6,
2814144,-0.06,-0.0,0.9,0.49,3.97,1.89,967.99,25.6,
2814183,-0.04,0.01,0.97,0.55,3.6,1.59,967.99,25.59,
2814221,-0.04,0.01,0.95,0.31,4.52,1.71,968.0,25.61,
2814259,-0.03,0.01,0.94,0.12,4.09,1.77,967.99,25.6,
2814297,-0.05,0.01,0.99,0.31,4.39,1.4,968.02,25.6,
2814347,-0.04,0.0,1.01,0.55,3.97,1.65,967.99,25.6,
2814386,-0.05,0.0,1.03,0.67,4.09,1.4,968.05,25.61,
2814424,-0.03,0.0,1.03,0.55,4.39,1.28,968.02,25.62,
2814462,-0.04,0.0,1.06,1.16,4.27,1.22,967.95,25.6,
2814500,-0.03,0.0,1.02,1.1,4.58,1.1,967.94,25.61,
2814538,-0.03,0.02,1.05,1.22,3.85,0.98,967.99,25.61,
2814577,-0.03,0.01,1.04,1.1,4.27,0.79,967.93,25.6,
2814615,-0.04,0.01,1.06,1.4,3.48,0.67,967.97,25.6,
2814653,-0.03,0.01,1.06,1.65,3.36,0.67,967.95,25.6,
2814691,-0.02,0.02,1.07,1.59,3.05,0.49,967.99,25.6,
2814741,-0.04,0.01,1.1,1.89,1.77,0.43,967.93,25.6,
2814779,-0.03,0.02,1.1,2.08,1.1,0.24,967.99,25.61,
2814818,-0.05,0.02,1.12,2.32,0.37,0.12,967.99,25.61,
2814856,-0.06,0.02,1.09,2.32,-0.31,0.0,967.96,25.61,
2814894,-0.04,0.03,1.09,2.14,-0.24,-0.12,967.97,25.6,
2814932,-0.03,0.03,1.08,1.95,0.12,-0.18,967.94,25.6,
2814970,-0.05,0.05,1.04,1.89,-0.12,-0.24,967.92,25.61,
2815009,-0.07,0.04,1.06,2.26,0.55,-0.31,967.9,25.61,
2815047,-0.06,0.03,1.05,1.77,1.04,-0.06,967.86,25.6,
2815097,-0.08,0.04,1.09,2.2,-0.24,0.0,967.87,25.6,
2815135,-0.07,0.03,1.05,1.46,0.06,0.12,967.91,25.6,
2815173,-0.09,0.05,1.1,1.77,-0.67,0.31,967.87,25.62,
2815211,-0.08,0.04,1.04,1.4,-0.55,0.37,967.85,25.61,
2815250,-0.08,0.05,1.07,1.71,-1.22,0.55,967.88,25.62,
2815288,-0.08,0.05,1.07,1.22,-0.55,0.92,967.84,25.61,
2815326,-0.08,0.05,1.06,1.34,-1.28,1.04,967.82,25.61,
2815364,-0.08,0.06,1.09,1.59,-1.53,1.53,967.85,25.62,
2815403,-0.08,0.05,1.02,0.98,-0.49,1.65,967.86,25.62,
2815441,-0.1,0.06,1.09,1.71,-1.59,1.83,967.86,25.62,
2815491,-0.08,0.03,1.05,0.98,0.0,2.32,967.83,25.6,
2815529,-0.08,0.06,1.1,1.4,-1.22,2.62,967.84,25.61,
2815567,-0.08,0.04,1.07,0.92,-0.67,2.99,967.82,25.61,
2815606,-0.09,0.04,1.07,1.04,-0.85,3.05,967.84,25.61,
2815644,-0.07,0.04,1.06,1.04,-0.61,3.48,967.87,25.61,
2815682,-0.07,0.05,1.08,1.16,-1.77,3.6,967.83,25.61,
2815720,-0.06,0.03,1.05,0.98,-1.22,4.03,967.8,25.62,
2815758,-0.05,0.04,1.07,1.04,-1.95,4.15,967.79,25.62,
2815797,-0.07,0.03,1.07,1.4,-1.89,4.52,967.8,25.63,
2815835,-0.04,0.03,1.08,1.34,-2.62,4.58,967.86,25.6,
2815885,-0.05,0.03,1.09,1.22,-2.75,4.76,967.78,25.59,
2815923,-0.03,0.02,1.07,1.16,-3.48,4.64,967.84,25.61,
2815961,-0.04,0.04,1.06,1.59,-4.46,5.0,967.8,25.61,
2815999,-0.05,0.03,1.08,1.71,-5.37,5.0,967.81,25.58,
2816038,-0.06,0.04,1.08,1.53,-6.1,5.13,967.79,25.61,
2816076,-0.06,0.02,1.1,1.71,-5.55,5.13,967.82,25.6,
2816114,-0.06,0.02,1.09,1.71,-5.55,5.07,967.91,25.61,
2816152,-0.05,0.02,1.1,2.2,-4.82,5.31,967.91,25.61,
2816191,-0.05,0.03,1.06,1.83,-3.91,5.31,967.86,25.6,
2816241,-0.04,0.02,1.07,2.38,-3.05,5.55,967.94,25.59,
2816279,-0.02,0.02,1.06,2.2,-2.32,5.43,967.98,25.61,
2816317,-0.03,0.03,1.07,2.56,-2.01,5.37,967.94,25.61,
2816355,-0.01,0.02,1.09,2.62,-1.22,5.37,967.94,25.61,
2816394,-0.02,0.01,1.08,2.87,-0.79,5.0,967.95,25.62,
2816432,-0.02,0.02,1.07,2.62,-0.43,5.0,967.95,25.62,
2816470,-0.02,0.02,1.07,2.99,-0.61,5.13,967.92,25.62,
2816508,-0.02,0.02,1.01,2.81,-0.61,4.76,967.91,25.63,
2816546,-0.01,0.02,1.07,3.05,-1.65,4.82,967.83,25.62,
2816585,-0.01,0.01,1.01,2.69,-2.01,4.58,967.88,25.62,
2816661,-0.03,0.04,1.03,2.81,-2.69,4.27,967.8,25.6,
2816699,-0.02,0.03,0.98,2.69,-3.11,4.09,967.88,25.61,
2816737,-0.03,0.03,1.02,2.75,-2.75,4.03,967.85,25.59,
2816827,-0.03,0.02,1.02,2.56,0.55,3.97,967.87,25.57,
2816865,-0.04,0.04,1.0,2.32,1.16,3.78,967.88,25.58,
2816903,-0.05,0.04,1.0,2.38,2.81,3.78,967.87,25.58,
2816941,-0.03,0.04,1.0,2.08,3.54,4.03,967.93,25.58,
2816980,-0.01,0.04,1.0,2.5,3.6,3.66,967.84,25.58,
2817018,-0.03,0.04,1.02,2.99,3.05,3.85,967.91,25.6,
2817056,-0.03,0.04,0.99,3.42,3.23,3.97,967.93,25.6,
2817106,-0.01,0.04,1.02,3.91,2.38,3.85,967.88,25.58,
2817144,-0.03,0.03,0.94,3.91,1.65,4.03,967.87,25.59,
2817182,-0.04,0.04,0.94,4.39,-0.12,4.33,967.83,25.59,
2817221,-0.02,0.03,0.91,4.15,-0.24,3.97,967.81,25.59,
2817259,-0.01,0.04,0.9,3.97,-1.65,4.03,967.8,25.6,
2817297,-0.02,0.04,0.88,3.97,-2.14,4.09,967.79,25.59,
2817335,-0.02,0.02,0.84,3.3,-2.26,4.15,967.85,25.61,
2817374,-0.02,0.04,0.86,3.36,-3.11,3.91,967.8,25.61,
2817412,-0.03,0.02,0.82,2.75,-2.2,3.97,967.85,25.62,
2817450,-0.03,0.03,0.86,2.62,-2.5,3.85,967.84,25.61,
2817500,-0.01,0.02,0.86,1.89,-1.65,3.78,967.79,25.6,
2817538,-0.03,0.03,0.9,1.83,-1.83,3.66,967.76,25.6,
2817576,-0.02,0.02,0.89,1.59,-1.4,3.54,967.81,25.61,
2817615,-0.01,0.02,0.91,1.34,-0.98,3.6,967.87,25.62,
2817653,-0.04,0.02,0.93,1.65,-0.67,3.3,967.77,25.6,
2817691,-0.03,0.02,0.94,1.89,0.18,3.17,967.84,25.61,
2817729,-0.01,0.02,0.98,2.5,-0.12,3.23,967.86,25.61,
2817767,-0.01,0.01,0.94,2.56,0.49,3.05,967.82,25.61,
2817806,-0.02,0.01,0.92,3.05,0.55,3.3,967.82,25.61,
2817855,-0.04,0.01,0.9,3.17,0.85,3.05,967.84,25.61,
2817894,-0.04,0.0,0.88,3.17,1.46,2.93,967.8,25.61,
2817932,-0.03,0.01,0.86,3.23,1.83,2.99,967.85,25.62,
2817970,-0.04,0.0,0.87,3.3,2.56,2.93,967.85,25.62,
2818008,-0.02,0.0,0.85,2.75,3.97,2.69,967.76,25.62,
2818047,-0.04,0.01,0.87,2.32,4.09,2.99,967.75,25.62,
2818085,-0.04,-0.0,0.86,1.95,4.58,3.05,967.75,25.61,
2818123,-0.03,-0.01,0.85,1.34,4.39,3.05,967.75,25.61,
2818161,-0.03,0.0,0.87,0.67,4.94,2.93,967.78,25.61,
2818199,-0.04,-0.0,0.89,0.24,4.7,3.05,967.79,25.61,
2818249,-0.04,-0.0,0.91,-0.37,5.37,2.99,967.77,25.6,
2818287,-0.05,-0.0,0.98,-0.37,5.13,3.05,967.77,25.62,
2818326,-0.04,-0.01,0.99,-0.37,6.04,2.99,967.77,25.6,
2818364,-0.06,-0.01,1.03,-0.37,5.86,3.05,967.76,25.61,
2818402,-0.04,0.0,1.06,-0.18,6.41,3.11,967.7,25.61,
2818440,-0.04,-0.0,1.07,-0.06,6.47,2.99,967.73,25.62,
2818479,-0.04,0.0,1.1,0.31,6.35,3.05,967.75,25.61,
2818517,-0.06,-0.0,1.06,0.43,7.08,3.17,967.76,25.61,
2818555,-0.05,0.01,1.12,1.4,5.55,2.93,967.75,25.61,
2818593,-0.04,0.0,1.05,0.98,6.53,3.17,967.74,25.63,
2818643,-0.03,0.01,1.04,1.65,5.07,3.3,967.72,25.6,
2818681,-0.04,-0.0,0.99,1.34,6.47,3.23,967.78,25.61,
2818719,-0.04,0.01,0.96,1.53,5.55,3.36,967.75,25.62,
2818758,-0.05,0.01,0.93,1.77,4.82,3.54,967.72,25.62,
2818796,-0.05,-0.0,0.92,1.28,4.76,3.66,967.74,25.61,
2818834,-0.03,0.0,0.97,0.98,4.27,3.42,967.78,25.61,
2818872,-0.04,0.01,0.95,0.55,4.39,3.48,967.75,25.61,
2818911,-0.04,0.01,1.0,0.49,3.11,3.54,967.76,25.63,
2818949,-0.03,0.02,1.01,0.12,3.36,3.48,967.75,25.62,
2818999,-0.04,0.0,1.05,-0.06,3.17,3.6,967.73,25.61,
2819037,-0.04,0.0,1.02,-0.49,3.42,3.54,967.82,25.62,
2819075,-0.04,0.01,1.03,-0.85,3.3,3.42,967.73,25.61,
2819113,-0.05,0.01,1.02,-0.92,3.36,3.6,967.78,25.62,
2819152,-0.02,0.01,1.05,-1.22,3.6,3.66,967.78,25.62,
2819190,-0.02,0.02,1.09,-1.28,3.17,3.6,967.73,25.61,
2819228,-0.05,0.01,1.1,-1.53,3.36,3.48,967.76,25.61,
2819266,-0.04,0.02,1.16,-1.53,3.42,3.54,967.77,25.61,
2819305,-0.03,0.01,1.22,-1.46,3.66,3.23,967.77,25.63,
2819343,-0.04,-0.0,1.2,-1.46,4.52,3.3,967.81,25.62,
2819393,-0.04,0.02,1.24,-1.04,4.94,3.42,967.79,25.6,
2819431,-0.03,0.0,1.2,-0.61,6.1,3.42,967.78,25.62,
2819469,-0.04,0.02,1.24,-0.06,4.52,3.36,967.76,25.61,
2819507,-0.05,-0.0,1.21,0.85,4.94,3.36,967.76,25.61,
2819545,-0.02,0.02,1.18,1.65,3.91,3.11,967.8,25.62,
2819584,-0.02,0.02,1.19,2.38,2.99,3.48,967.74,25.62,
2819622,-0.03,0.01,1.12,2.75,3.23,3.17,967.74,25.61,
2819660,-0.04,0.01,1.14,3.17,2.87,3.11,967.75,25.62,
2819698,-0.05,0.01,1.11,3.11,3.91,2.93,967.66,25.61,
2819736,-0.04,0.01,1.11,3.36,3.72,2.93,967.77,25.63,
2819812,-0.04,0.01,1.09,2.93,4.52,2.81,967.66,25.59,
2819851,-0.06,0.01,1.07,2.69,5.62,2.5,967.71,25.61,
2819889,-0.06,0.01,1.02,2.44,5.49,2.56,967.75,25.62,
2819978,-0.07,0.01,1.0,2.2,6.71,2.75,967.62,25.58,
2820017,-0.04,0.0,1.06,2.2,6.71,2.62,967.67,25.59,
2820055,-0.04,0.01,1.04,1.59,8.0,2.81,967.74,25.6,
2820093,-0.05,0.01,1.06,1.95,7.39,3.11,967.64,25.61,
2820131,-0.04,0.0,1.01,1.4,7.2,3.3,967.63,25.61,
2820169,-0.03,0.03,1.07,1.53,5.74,2.99,967.66,25.6,
2820208,-0.05,0.02,1.03,1.34,6.04,3.3,967.65,25.61,
2820258,-0.05,0.01,1.03,1.22,4.52,3.48,967.65,25.61,
2820296,-0.03,0.0,1.08,1.22,5.19,3.23,967.67,25.61,
2820334,-0.06,-0.0,1.04,1.34,4.58,3.48,967.71,25.61,
2820372,-0.04,-0.0,1.06,1.34,4.52,3.66,967.62,25.62,
2820410,-0.0,-0.0,1.05,0.98,4.82,2.93,967.65,25.61,
2820448,-0.04,-0.0,1.05,1.04,4.46,3.17,967.65,25.62,
2820487,-0.04,-0.01,1.03,1.04,4.15,3.17,967.59,25.62,
2820525,-0.05,-0.01,1.0,1.28,4.58,3.23,967.67,25.61,
2820563,-0.04,-0.01,0.98,1.4,4.27,2.81,967.61,25.62,
2820613,-0.01,-0.0,0.98,1.28,3.3,2.75,967.62,25.61,
2820651,-0.0,-0.01,0.96,1.34,3.11,2.69,967.66,25.62,
2820689,-0.03,0.0,0.94,1.04,2.87,2.62,967.53,25.62,
2820728,-0.03,-0.01,0.99,1.22,2.81,2.81,967.58,25.63,
2820766,-0.04,-0.01,0.98,1.04,1.53,2.5,967.54,25.61,
2820804,-0.05,-0.01,1.0,1.4,1.28,2.32,967.51,25.6,
2820842,-0.03,-0.01,1.0,0.92,0.98,2.38,967.53,25.62,
2820880,-0.03,-0.01,1.0,0.85,1.59,2.08,967.54,25.62,
2820919,-0.03,0.0,0.96,0.55,2.26,2.08,967.53,25.62,
2820957,-0.03,-0.0,0.99,0.79,2.44,2.01,967.52,25.62,
2821007,-0.05,-0.01,0.95,0.06,2.69,2.14,967.55,25.61,
2821045,-0.04,-0.0,0.98,0.0,2.62,1.89,967.51,25.62,
2821083,-0.03,-0.0,1.02,-0.18,2.56,1.83,967.51,25.61,
2821121,-0.03,0.0,1.08,-0.24,2.2,1.83,967.53,25.62,
2821160,-0.02,-0.0,1.05,-0.55,2.93,1.77,967.46,25.63,
2821198,-0.04,-0.0,1.11,-0.06,2.14,1.71,967.51,25.63,
2821236,-0.06,-0.01,1.07,-0.37,2.87,1.89,967.41,25.61,
2821274,-0.05,-0.01,1.01,-0.61,1.4,1.89,967.38,25.62,
2821312,-0.08,0.01,1.12,-0.06,0.06,1.83,967.35,25.62,
2821351,-0.06,-0.01,1.02,-0.31,1.16,1.83,967.33,25.64,
2821401,-0.07,0.02,1.16,0.61,-0.67,2.2,967.32,25.6,
2821439,-0.06,-0.02,1.06,-0.06,1.4,2.38,967.37,25.61,
2821477,-0.09,0.02,1.11,0.98,0.0,2.38,967.36,25.62,
2821515,-0.1,0.0,1.1,1.16,1.71,2.5,967.3,25.62,
2821553,-0.07,0.0,1.09,0.98,1.89,2.69,967.38,25.62,
2821592,-0.06,0.02,1.13,1.34,0.85,2.87,967.32,25.63,
2821630,-0.09,0.01,1.11,1.04,1.95,3.11,967.31,25.62,
2821668,-0.08,-0.01,1.09,1.1,1.77,3.48,967.36,25.63,
2821706,-0.07,0.01,1.07,0.67,1.46,3.72,967.29,25.63,
2821756,-0.08,0.0,1.05,0.49,1.89,3.97,967.3,25.61,
2821794,-0.07,0.02,1.08,0.0,1.1,4.03,967.31,25.62,
2821833,-0.1,0.02,1.1,0.31,2.32,4.15,967.28,25.62,
2821871,-0.07,0.01,1.15,0.12,4.39,4.15,967.19,25.62,
2821909,-0.04,0.03,1.27,0.12,6.04,4.03,967.17,25.61,
2821947,-0.09,0.02,1.31,0.24,7.75,4.27,967.31,25.62,
2821985,-0.1,0.0,1.3,0.31,8.48,4.52,967.27,25.62,
2822024,-0.06,0.01,1.28,0.61,10.07,4.39,967.31,25.62,
2822062,-0.04,0.03,1.27,0.49,9.77,4.52,967.36,25.63,
2822100,-0.05,0.02,1.21,1.34,9.34,4.82,967.39,25.63,
2822150,-0.06,0.02,1.18,1.53,8.79,5.19,967.3,25.62,
2822188,-0.05,0.02,1.2,2.32,7.87,5.31,967.35,25.61,
2822226,-0.04,-0.01,1.12,2.14,6.35,5.43,967.32,25.62,
2822265,-0.02,0.02,1.22,2.2,3.85,5.37,967.29,25.61,
2822303,-0.02,-0.01,1.12,2.38,4.09,5.43,967.23,25.62,
2822341,-0.03,-0.01,1.08,2.56,1.95,5.07,967.21,25.62,
2822379,-0.03,0.0,1.06,2.99,1.34,5.07,967.21,25.63,
2822418,-0.03,-0.01,0.93,2.2,0.61,4.94,967.21,25.62,
2822456,-0.01,0.0,0.97,2.38,-0.12,4.7,967.2,25.62,
2822494,-0.04,-0.01,0.92,1.83,0.43,4.58,967.15,25.63,
2822544,-0.01,-0.01,0.98,2.2,-0.61,4.33,967.08,25.62,
2822582,-0.03,-0.01,0.99,1.83,-0.67,3.85,967.1,25.63,
2822620,-0.04,0.0,1.01,1.53,-0.67,3.85,967.1,25.62,
2822658,-0.04,-0.01,0.98,1.4,0.61,3.78,967.1,25.62,
2822697,-0.03,-0.01,1.0,1.04,0.73,3.54,967.1,25.64,
2822735,-0.02,-0.01,1.0,0.92,1.34,3.42,967.09,25.63,
2822773,-0.04,0.0,1.0,0.67,1.95,3.23,967.13,25.63,
2822811,-0.02,-0.01,1.03,0.79,1.95,3.36,967.1,25.62,
2822849,-0.04,-0.02,1.04,0.55,1.77,3.3,967.01,25.62,
2822888,-0.03,-0.01,1.07,0.61,2.08,2.99,967.06,25.62,
2822963,-0.01,-0.01,1.09,1.1,0.79,2.81,967.06,25.6,
2823002,-0.01,-0.02,1.01,1.04,0.98,2.62,966.98,25.61,
2823040,-0.04,0.0,1.01,1.77,-0.31,2.5,967.01,25.62,
2823130,-0.02,-0.02,0.98,1.95,-0.24,1.95,966.92,25.58,
2823168,-0.02,-0.02,0.99,1.71,0.67,1.77,966.88,25.6,
