timestamp,acc_x,acc_y,acc_z,rot_x,rot_y,rot_z,qfe,temp,Unnamed: 10
3099536,-0.03,-0.08,0.83,3.17,5.43,0.12,899.2,25.58,
3099586,-0.05,-0.09,0.79,3.48,5.62,0.37,899.16,25.56,
3099624,-0.05,-0.09,0.78,3.3,4.64,0.43,899.19,25.58,
3099662,-0.05,-0.08,0.8,4.03,4.21,0.37,899.16,25.57,
3099701,-0.04,-0.08,0.73,3.85,3.6,0.43,899.16,25.57,
3099739,-0.04,-0.07,0.77,4.33,2.44,0.79,899.2,25.57,
3099777,-0.07,-0.1,0.69,4.39,2.38,0.79,899.16,25.57,
3099815,-0.07,-0.08,0.72,4.21,1.34,0.92,899.19,25.58,
3099854,-0.06,-0.08,0.7,3.72,1.59,1.16,899.14,25.58,
3099892,-0.05,-0.09,0.72,3.17,1.28,1.22,899.13,25.57,
3099930,-0.05,-0.1,0.7,2.81,1.16,1.53,899.16,25.58,
3099980,-0.05,-0.08,0.75,1.59,1.28,1.65,899.15,25.57,
3100018,-0.05,-0.09,0.78,1.04,1.83,1.83,899.15,25.57,
3100056,-0.04,-0.08,0.84,-0.06,1.71,1.95,899.18,25.57,
3100094,-0.07,-0.08,0.9,-0.24,2.38,2.08,899.19,25.58,
3100133,-0.05,-0.09,0.96,-0.92,2.38,2.32,899.21,25.58,
3100171,-0.04,-0.08,1.05,-0.73,2.81,2.14,899.23,25.58,
3100209,-0.06,-0.08,1.06,-0.85,3.54,2.32,899.21,25.57,
3100247,-0.03,-0.08,1.11,-0.43,4.15,2.44,899.22,25.58,
3100285,-0.04,-0.08,1.13,-0.43,4.39,2.5,899.26,25.58,
3100324,-0.07,-0.08,1.15,-0.12,3.66,2.62,899.24,25.58,
3100374,-0.06,-0.08,1.1,-0.43,4.15,2.87,899.29,25.57,
3100412,-0.05,-0.08,1.15,0.18,3.23,2.87,899.26,25.57,
3100450,-0.04,-0.1,1.06,0.12,3.3,3.05,899.31,25.58,
3100488,-0.05,-0.08,1.04,0.55,3.11,3.05,899.31,25.58,
3100526,-0.03,-0.07,1.08,0.85,3.36,3.17,899.26,25.57,
3100564,-0.04,-0.08,1.09,1.28,2.87,3.54,899.29,25.57,
3100603,-0.06,-0.09,1.04,1.34,2.44,3.66,899.25,25.59,
3100641,-0.06,-0.08,1.06,1.28,2.69,3.66,899.24,25.57,
3100679,-0.03,-0.08,1.07,1.04,2.69,3.66,899.31,25.56,
3100755,-0.03,-0.09,1.07,0.92,3.23,4.03,899.3,25.54,
3100793,-0.02,-0.08,1.1,0.98,3.42,3.91,899.39,25.57,
3100831,-0.03,-0.08,1.09,0.79,3.72,4.27,899.34,25.56,
3100921,-0.04,-0.09,1.09,0.98,4.03,4.21,899.41,25.53,
3100959,-0.02,-0.08,1.12,0.98,3.11,4.15,899.3,25.54,
3100998,-0.02,-0.09,1.12,0.98,3.23,4.03,899.36,25.55,
3101036,-0.02,-0.09,1.07,0.55,3.91,4.15,899.35,25.55,
3101074,-0.02,-0.08,1.08,0.85,4.27,4.21,899.34,25.56,
3101112,-0.01,-0.09,1.03,0.61,4.76,4.09,899.41,25.56,
3101150,-0.02,-0.09,1.03,0.92,4.88,3.91,899.37,25.56,
3101200,-0.01,-0.08,1.01,0.79,5.74,3.85,899.35,25.56,
3101239,0.0,-0.09,1.03,1.16,5.86,3.72,899.39,25.55,
3101277,-0.01,-0.09,1.02,0.85,5.8,3.48,899.41,25.56,
3101315,0.0,-0.08,1.06,1.1,5.86,3.66,899.44,25.58,
3101353,-0.01,-0.1,0.99,0.79,6.84,3.42,899.41,25.58,
3101391,-0.01,-0.08,1.03,1.16,5.0,3.42,899.43,25.57,
3101430,-0.0,-0.09,0.99,1.22,5.37,3.23,899.37,25.57,
3101468,0.01,-0.08,0.99,1.1,4.64,3.17,899.4,25.58,
3101506,0.01,-0.09,1.0,1.4,3.72,3.17,899.34,25.58,
3101544,0.0,-0.09,0.97,1.34,3.36,2.87,899.41,25.59,
3101594,-0.01,-0.09,1.01,1.46,2.69,2.81,899.42,25.58,
3101632,0.0,-0.09,1.04,1.46,2.38,2.62,899.41,25.57,
3101670,0.01,-0.08,1.09,1.65,1.46,2.38,899.4,25.57,
3101709,-0.0,-0.08,1.09,1.34,1.59,2.14,899.42,25.58,
3101747,0.0,-0.08,1.13,1.59,1.04,2.08,899.41,25.58,
3101785,0.0,-0.09,1.14,1.4,1.22,1.83,899.38,25.56,
3101823,-0.0,-0.09,1.13,1.46,1.4,1.59,899.34,25.58,
3101861,-0.02,-0.08,1.12,1.71,1.65,1.46,899.47,25.59,
3101899,-0.02,-0.08,1.11,1.89,2.38,1.53,899.45,25.59,
3101949,-0.01,-0.09,1.08,2.14,2.5,1.16,899.5,25.56,
3101987,-0.02,-0.09,1.06,2.01,2.56,1.04,899.39,25.57,
3102026,-0.0,-0.09,1.05,1.95,2.93,1.1,899.43,25.59,
3102064,-0.01,-0.08,1.05,1.71,2.69,0.92,899.44,25.57,
3102102,-0.01,-0.09,1.06,1.83,2.99,0.73,899.37,25.58,
3102140,-0.01,-0.09,1.03,1.65,3.42,0.67,899.43,25.56,
3102178,0.03,-0.09,1.04,1.83,3.48,0.55,899.42,25.57,
3102217,0.0,-0.08,1.02,1.77,3.78,0.49,899.4,25.57,
3102255,-0.01,-0.09,1.0,1.77,4.21,0.43,899.43,25.59,
3102293,-0.0,-0.09,0.99,1.77,4.46,0.31,899.46,25.56,
3102343,-0.0,-0.1,0.98,1.95,4.39,0.12,899.38,25.56,
3102381,-0.01,-0.09,0.97,1.83,4.7,0.0,899.43,25.58,
3102419,0.0,-0.09,0.99,2.2,5.0,0.0,899.43,25.57,
3102457,-0.01,-0.09,0.98,1.95,5.0,-0.24,899.35,25.58,
3102496,-0.01,-0.09,0.98,2.08,4.64,-0.12,899.42,25.57,
3102534,-0.03,-0.09,0.98,2.38,4.82,-0.24,899.38,25.58,
3102572,-0.02,-0.09,0.97,2.2,4.64,-0.31,899.33,25.57,
3102610,-0.02,-0.08,1.0,2.38,4.15,-0.37,899.36,25.58,
3102648,-0.02,-0.09,0.98,2.26,3.78,-0.55,899.39,25.59,
3102687,-0.02,-0.1,1.0,2.62,3.36,-0.43,899.38,25.58,
3102737,-0.02,-0.09,0.98,2.5,2.69,-0.37,899.34,25.57,
3102775,-0.02,-0.09,0.96,2.2,1.59,-0.31,899.35,25.57,
3102813,-0.04,-0.09,0.95,1.83,1.59,-0.31,899.35,25.58,
3102851,-0.02,-0.08,0.99,1.77,0.67,-0.43,899.29,25.57,
3102889,-0.03,-0.1,0.99,1.59,0.55,-0.24,899.32,25.58,
3102928,-0.03,-0.09,1.02,1.65,0.49,-0.61,899.31,25.57,
3102966,-0.03,-0.09,1.03,1.89,1.28,-0.31,899.34,25.58,
3103004,-0.03,-0.09,1.0,1.77,1.46,-0.55,899.35,25.58,
3103042,-0.04,-0.1,1.03,2.14,1.53,-0.49,899.3,25.58,
3103092,-0.03,-0.09,1.01,2.2,1.89,-0.55,899.33,25.58,
3103130,-0.04,-0.09,1.0,2.38,1.83,-0.61,899.31,25.57,
3103169,-0.03,-0.09,0.98,2.2,2.38,-0.55,899.31,25.58,
3103207,-0.04,-0.09,0.99,2.32,2.62,-0.55,899.29,25.57,
3103245,-0.04,-0.1,0.98,2.38,2.56,-0.61,899.38,25.59,
3103283,-0.04,-0.09,0.96,2.5,2.81,-0.37,899.37,25.6,
3103321,-0.03,-0.08,0.95,2.38,2.81,-0.43,899.37,25.59,
3103360,-0.03,-0.09,0.96,2.44,2.81,-0.37,899.34,25.59,
3103398,-0.03,-0.09,0.92,2.14,3.11,-0.06,899.31,25.59,
3103436,-0.03,-0.09,0.97,2.01,2.38,-0.24,899.31,25.59,
3103486,-0.03,-0.09,0.95,1.89,2.87,-0.12,899.32,25.56,
3103524,-0.04,-0.09,0.96,1.71,2.62,-0.24,899.35,25.59,
3103562,-0.02,-0.09,0.97,1.65,3.23,-0.24,899.31,25.57,
3103600,-0.03,-0.09,0.92,1.59,3.42,-0.18,899.28,25.59,
3103639,-0.04,-0.09,0.93,1.83,3.85,-0.31,899.27,25.58,
3103677,-0.03,-0.09,0.91,1.77,3.97,-0.31,899.31,25.57,
3103715,-0.04,-0.09,0.9,1.89,3.85,-0.37,899.31,25.58,
3103753,-0.04,-0.09,0.89,1.71,3.72,-0.06,899.29,25.58,
3103791,-0.04,-0.09,0.9,1.95,3.6,-0.12,899.25,25.57,
3103867,-0.06,-0.09,0.91,1.89,3.85,-0.06,899.26,25.56,
3103906,-0.03,-0.09,0.91,1.95,4.15,0.12,899.28,25.58,
3103944,-0.03,-0.09,0.9,1.59,4.82,-0.06,899.33,25.57,
3104033,-0.05,-0.09,0.9,1.89,4.58,0.18,899.35,25.54,
3104072,-0.06,-0.08,0.93,2.08,4.64,0.06,899.23,25.55,
3104110,-0.04,-0.09,0.96,1.95,4.64,0.24,899.31,25.56,
3104148,-0.04,-0.09,0.96,1.95,4.39,0.24,899.27,25.55,
3104186,-0.05,-0.09,0.99,1.95,4.15,0.37,899.22,25.57,
3104225,-0.05,-0.09,1.0,2.14,4.21,0.55,899.32,25.57,
3104263,-0.04,-0.09,1.01,2.08,3.97,0.61,899.29,25.57,
3104313,-0.04,-0.09,1.0,1.95,4.03,0.79,899.23,25.56,
3104351,-0.05,-0.08,1.0,1.83,3.85,0.85,899.32,25.58,
3104389,-0.04,-0.1,0.98,1.83,4.15,0.79,899.29,25.57,
3104427,-0.05,-0.08,1.0,1.83,4.09,0.92,899.27,25.57,
3104465,-0.04,-0.09,1.01,2.08,3.85,1.1,899.33,25.57,
3104504,-0.05,-0.09,0.99,1.59,3.78,0.98,899.33,25.57,
3104542,-0.05,-0.09,0.98,2.08,3.54,1.04,899.35,25.58,
3104580,-0.05,-0.09,0.96,1.83,4.03,1.16,899.3,25.59,
3104618,-0.04,-0.09,0.98,1.89,3.72,1.16,899.33,25.59,
3104668,-0.03,-0.09,0.95,1.89,4.21,1.34,899.31,25.58,
3104706,-0.05,-0.1,0.97,1.83,3.97,1.4,899.28,25.57,
3104744,-0.03,-0.09,0.97,1.65,3.91,1.53,899.31,25.58,
3104783,-0.05,-0.09,0.94,1.46,3.72,1.46,899.38,25.59,
3104821,-0.05,-0.09,0.95,1.34,3.54,1.71,899.28,25.59,
3104859,-0.03,-0.09,0.96,1.04,3.48,1.59,899.28,25.58,
3104897,-0.01,-0.09,1.0,0.79,3.36,1.59,899.31,25.59,
3104935,-0.03,-0.1,0.96,0.61,3.97,1.77,899.26,25.57,
3104974,-0.03,-0.08,1.01,0.79,3.6,1.77,899.29,25.59,
3105012,-0.03,-0.09,0.99,0.37,3.6,1.65,899.29,25.58,
3105062,-0.03,-0.09,1.05,0.37,2.93,1.59,899.3,25.57,
3105100,-0.03,-0.09,1.03,-0.18,3.54,1.53,899.32,25.59,
3105138,-0.02,-0.09,1.06,-0.06,3.78,1.53,899.29,25.58,
3105176,-0.02,-0.09,1.07,-0.06,4.09,1.53,899.36,25.58,
3105214,-0.02,-0.09,1.09,-0.24,4.39,1.53,899.3,25.57,
3105253,-0.03,-0.1,1.12,0.12,5.0,1.28,899.31,25.58,
3105291,-0.03,-0.09,1.1,0.37,4.94,1.34,899.35,25.59,
3105329,-0.03,-0.09,1.08,0.92,4.82,1.28,899.32,25.58,
3105367,-0.03,-0.08,1.07,1.16,5.43,1.1,899.33,25.58,
3105406,-0.02,-0.09,1.04,1.53,5.31,1.16,899.32,25.58,
3105455,-0.04,-0.1,1.02,2.01,4.76,1.28,899.31,25.57,
3105494,-0.03,-0.09,0.97,1.83,4.94,1.1,899.33,25.59,
3105532,-0.04,-0.09,1.0,1.95,4.52,1.1,899.34,25.58,
3105570,-0.01,-0.09,0.96,1.65,4.46,1.16,899.39,25.59,
3105608,-0.02,-0.09,0.95,2.01,3.78,1.22,899.34,25.57,
3105646,-0.03,-0.09,0.94,1.77,3.97,1.22,899.35,25.58,
3105685,-0.03,-0.1,0.96,1.95,3.3,1.28,899.39,25.59,
3105723,-0.03,-0.08,0.96,1.89,2.69,0.92,899.32,25.59,
3105761,-0.04,-0.09,0.94,1.77,2.44,1.04,899.33,25.58,
3105811,-0.02,-0.09,0.97,2.01,1.89,0.92,899.37,25.56,
3105849,-0.02,-0.09,0.97,1.83,1.22,1.1,899.33,25.57,
3105887,-0.03,-0.09,0.95,2.01,1.46,1.04,899.34,25.58,
3105925,-0.02,-0.08,0.94,1.77,1.77,1.04,899.35,25.59,
3105964,-0.02,-0.09,0.97,2.32,1.28,0.85,899.34,25.58,
3106002,-0.02,-0.09,0.98,2.14,1.04,0.79,899.32,25.59,
3106040,-0.02,-0.08,1.0,2.44,0.98,0.85,899.38,25.57,
3106078,-0.02,-0.09,0.99,2.2,1.34,0.92,899.35,25.58,
3106116,-0.02,-0.09,1.0,2.81,0.55,0.85,899.37,25.59,
3106155,-0.01,-0.1,0.94,2.56,0.79,0.67,899.36,25.59,
3106205,-0.02,-0.1,0.93,3.05,0.18,0.73,899.33,25.57,
3106243,-0.03,-0.09,0.88,2.75,0.85,0.43,899.32,25.57,
3106281,-0.03,-0.09,0.9,2.99,0.37,0.49,899.38,25.59,
3106319,-0.02,-0.09,0.87,2.5,1.1,0.37,899.36,25.57,
3106357,-0.02,-0.08,0.91,2.62,0.79,0.37,899.34,25.57,
3106395,-0.03,-0.09,0.91,2.69,1.04,0.37,899.34,25.57,
3106434,-0.02,-0.09,0.91,2.69,0.73,0.31,899.3,25.57,
3106472,-0.02,-0.09,0.95,2.81,0.85,0.24,899.35,25.59,
3106510,-0.01,-0.09,0.96,2.75,0.79,0.31,899.37,25.58,
3106548,-0.04,-0.09,0.98,2.87,-0.18,0.31,899.36,25.59,
3106598,-0.03,-0.1,1.01,2.69,0.85,0.31,899.4,25.58,
3106636,-0.01,-0.09,1.05,2.99,-0.12,0.18,899.39,25.58,
3106675,-0.03,-0.09,1.06,2.99,0.85,0.24,899.42,25.58,
3106713,-0.03,-0.09,1.06,3.23,1.34,0.18,899.4,25.58,
3106751,-0.02,-0.08,1.07,3.78,1.77,0.0,899.41,25.58,
3106789,-0.03,-0.08,1.08,4.09,1.71,0.18,899.36,25.58,
3106827,-0.03,-0.09,1.03,4.15,2.14,0.06,899.43,25.57,
3106865,-0.03,-0.08,1.04,4.33,2.26,-0.06,899.35,25.58,
3106904,-0.02,-0.08,1.02,4.46,3.11,-0.12,899.42,25.59,
3106981,-0.03,-0.08,1.0,4.88,2.87,0.0,899.43,25.56,
3107019,-0.03,-0.09,0.93,4.7,3.23,0.06,899.35,25.55,
3107057,-0.04,-0.09,0.94,5.07,3.48,-0.18,899.37,25.57,
3107147,-0.04,-0.08,0.81,4.7,4.58,-0.06,899.44,25.54,
3107185,-0.05,-0.09,0.78,4.09,5.62,-0.12,899.38,25.54,
3107223,-0.03,-0.09,0.78,4.27,5.55,0.0,899.37,25.56,
3107262,-0.04,-0.1,0.74,3.85,6.47,0.06,899.41,25.57,
3107300,-0.03,-0.09,0.76,4.03,6.41,-0.18,899.41,25.57,
3107338,-0.02,-0.09,0.72,3.42,6.59,-0.06,899.36,25.56,
3107376,-0.02,-0.08,0.74,3.3,5.92,0.06,899.33,25.56,
3107426,-0.04,-0.09,0.77,2.81,6.23,0.0,899.39,25.57,
3107464,-0.04,-0.09,0.81,2.56,6.16,0.06,899.37,25.57,
3107502,-0.04,-0.09,0.88,2.32,5.25,0.06,899.34,25.58,
3107541,-0.01,-0.09,0.9,1.89,4.7,0.12,899.36,25.57,
3107579,-0.03,-0.09,0.92,1.95,4.7,0.18,899.37,25.56,
3107617,-0.04,-0.09,0.91,1.89,4.7,0.31,899.35,25.58,
3107655,-0.04,-0.09,0.89,1.95,4.03,0.31,899.42,25.56,
3107694,-0.04,-0.09,0.86,1.53,4.88,0.18,899.48,25.57,
3107732,-0.04,-0.09,0.87,1.65,4.7,0.37,899.36,25.58,
3107782,-0.03,-0.09,0.9,1.65,3.91,0.31,899.41,25.56,
3107820,-0.04,-0.09,0.93,1.59,3.3,0.31,899.44,25.58,
3107858,-0.03,-0.09,0.97,1.65,3.54,0.43,899.41,25.58,
3107896,-0.03,-0.1,0.92,1.59,3.3,0.37,899.45,25.57,
3107934,-0.04,-0.08,0.96,1.71,2.44,0.37,899.46,25.59,
3107973,-0.04,-0.09,0.91,1.46,2.38,0.43,899.41,25.58,
3108011,-0.01,-0.09,0.91,1.59,2.01,0.31,899.45,25.57,
3108049,-0.03,-0.09,0.93,1.65,1.4,0.43,899.48,25.58,
3108087,-0.04,-0.09,0.94,1.59,0.61,0.43,899.48,25.58,
3108125,-0.06,-0.09,0.96,1.83,0.24,0.55,899.47,25.59,
3108175,-0.04,-0.09,0.98,1.59,-0.06,0.55,899.51,25.58,
3108213,-0.05,-0.09,1.0,2.08,-0.37,0.67,899.52,25.58,
3108251,-0.04,-0.09,1.01,2.01,-0.55,0.61,899.51,25.58,
3108290,-0.03,-0.08,1.0,1.83,-0.79,0.49,899.44,25.59,
3108328,-0.06,-0.09,1.01,1.95,-0.73,0.79,899.49,25.57,
3108366,-0.03,-0.09,0.99,1.4,0.0,0.61,899.52,25.59,
3108404,-0.04,-0.08,1.0,1.71,-0.73,0.49,899.5,25.59,
3108442,-0.03,-0.09,1.0,1.4,-0.24,0.67,899.55,25.59,
3108480,-0.05,-0.07,0.99,1.65,-0.73,0.61,899.52,25.59,
3108518,-0.03,-0.08,0.99,1.65,0.0,0.67,899.49,25.59,
3108568,-0.03,-0.09,0.94,1.46,-0.12,0.55,899.58,25.59,
3108606,-0.05,-0.08,0.96,2.08,0.43,0.67,899.54,25.59,
3108645,-0.03,-0.09,0.92,1.46,0.98,0.73,899.6,25.59,
3108683,-0.05,-0.08,0.93,2.01,0.61,0.79,899.59,25.58,
3108721,-0.04,-0.09,0.88,1.95,1.22,0.73,899.59,25.59,
3108759,-0.05,-0.09,0.85,2.2,1.04,0.55,899.59,25.59,
3108797,-0.03,-0.09,0.8,2.01,1.65,0.79,899.56,25.59,
3108835,-0.04,-0.08,0.77,2.08,1.46,0.92,899.63,25.6,
3108874,-0.05,-0.08,0.82,2.44,1.77,0.73,899.58,25.59,
3108924,-0.04,-0.09,0.81,1.77,3.91,0.79,899.5,25.58,
3108962,-0.05,-0.08,0.92,2.5,4.03,0.98,899.6,25.58,
3109000,-0.04,-0.09,0.93,1.77,5.0,1.16,899.58,25.59,
3109038,-0.04,-0.08,0.98,2.26,5.43,1.16,899.62,25.59,
3109076,-0.05,-0.09,0.94,1.95,6.1,1.04,899.56,25.58,
3109114,-0.09,-0.08,0.96,2.26,4.7,1.46,899.57,25.59,
3109153,-0.06,-0.09,0.93,2.08,4.76,1.53,899.55,25.59,
3109191,-0.04,-0.08,0.95,1.59,4.88,1.53,899.66,25.59,
3109229,-0.06,-0.08,0.98,1.89,4.58,1.83,899.62,25.59,
3109267,-0.06,-0.08,1.03,1.71,4.88,2.01,899.64,25.6,
3109317,-0.05,-0.09,1.05,1.4,5.25,2.01,899.71,25.58,
3109355,-0.06,-0.09,1.06,1.34,4.52,2.32,899.72,25.6,
3109394,-0.06,-0.08,1.06,1.22,4.52,2.26,899.68,25.59,
3109432,-0.04,-0.08,1.03,0.92,4.82,2.32,899.7,25.59,
3109470,-0.05,-0.08,1.05,1.1,4.03,2.5,899.67,25.59,
3109508,-0.05,-0.08,1.03,0.98,4.33,2.44,899.7,25.58,
3109546,-0.03,-0.09,1.05,0.98,4.7,2.44,899.79,25.6,
3109584,-0.04,-0.08,1.03,1.28,3.97,2.62,899.79,25.61,
3109623,-0.05,-0.08,1.02,1.46,3.54,2.75,899.71,25.59,
3109661,-0.03,-0.09,1.0,1.46,3.17,2.62,899.75,25.58,
3109711,-0.03,-0.08,1.02,1.65,2.2,2.81,899.83,25.58,
3109749,-0.02,-0.09,1.0,1.65,2.08,2.87,899.82,25.58,
3109787,-0.02,-0.08,1.01,1.83,1.4,2.75,899.84,25.58,
3109825,-0.03,-0.09,1.01,1.95,1.46,3.11,899.83,25.59,
3109864,-0.02,-0.09,0.98,1.65,0.73,2.81,899.82,25.57,
3109902,-0.02,-0.09,1.02,2.01,-0.31,2.56,899.86,25.59,
3109940,-0.02,-0.09,0.99,2.08,-0.49,2.62,899.85,25.59,
3109978,-0.01,-0.09,0.97,1.89,-1.04,2.69,899.92,25.59,
3110017,-0.02,-0.09,0.96,1.71,-0.79,2.5,899.86,25.58,
3110092,-0.02,-0.09,0.99,1.83,-1.59,2.62,899.95,25.57,
3110131,-0.01,-0.09,0.99,1.65,-1.4,2.5,899.88,25.57,
3110169,-0.02,-0.09,1.0,1.65,-1.4,2.14,899.93,25.57,
3110259,-0.03,-0.09,0.99,1.53,-0.43,2.08,899.9,25.54,
3110297,-0.03,-0.09,0.92,1.34,0.67,2.01,899.96,25.56,
3110335,-0.02,-0.08,0.96,1.65,0.73,1.89,899.96,25.55,
3110373,-0.02,-0.09,0.94,1.83,2.5,1.77,899.97,25.55,
3110411,-0.03,-0.09,0.92,1.95,2.69,1.77,899.98,25.55,
3110449,-0.02,-0.09,0.91,2.2,3.42,1.71,899.99,25.57,
3110488,-0.04,-0.09,0.89,2.2,3.85,1.83,900.0,25.56,
3110538,-0.02,-0.09,0.93,2.5,3.85,1.59,899.99,25.55,
3110576,-0.02,-0.09,0.93,2.38,3.78,1.53,900.0,25.57,
3110614,-0.02,-0.09,0.92,2.75,3.66,1.53,899.97,25.57,
3110652,-0.03,-0.09,0.9,2.75,3.72,1.59,900.0,25.57,
3110690,-0.03,-0.09,0.93,2.75,3.48,1.53,900.07,25.58,
3110728,-0.01,-0.09,0.93,2.38,3.97,1.65,900.01,25.57,
3110767,-0.03,-0.09,0.93,2.26,3.48,1.59,900.05,25.57,
3110805,-0.03,-0.09,0.93,2.26,3.54,1.71,900.06,25.57,
3110843,-0.01,-0.09,0.95,2.32,3.36,1.4,900.01,25.57,
3110893,-0.02,-0.08,0.97,1.83,2.75,1.46,900.03,25.56,
3110931,-0.01,-0.09,0.98,1.77,2.69,1.59,900.14,25.58,
3110969,-0.02,-0.09,1.0,1.71,1.83,1.28,900.03,25.57,
3111007,-0.03,-0.09,1.0,1.89,1.83,1.4,900.1,25.57,
3111045,-0.03,-0.08,0.99,1.89,1.65,1.4,900.07,25.58,
3111084,-0.01,-0.09,0.99,1.89,1.59,1.46,900.09,25.58,
3111122,-0.03,-0.09,0.98,1.95,1.59,1.22,900.15,25.59,
3111160,-0.01,-0.08,0.98,2.08,2.08,1.22,900.17,25.57,
3111198,-0.03,-0.09,0.96,2.26,2.08,1.16,900.18,25.58,
3111236,-0.02,-0.09,0.96,2.14,2.32,1.1,900.18,25.59,
3111286,-0.02,-0.09,0.97,2.08,2.62,0.92,900.23,25.59,
3111325,-0.02,-0.08,0.97,2.14,2.81,0.92,900.15,25.58,
3111363,-0.03,-0.09,0.96,2.2,3.11,0.92,900.21,25.59,
3111401,-0.03,-0.09,0.97,2.26,3.42,0.85,900.19,25.59,
3111439,-0.02,-0.09,0.98,2.32,3.6,0.85,900.25,25.59,
3111477,-0.03,-0.09,0.96,2.32,3.97,0.79,900.2,25.59,
3111515,-0.03,-0.09,0.98,2.56,4.03,0.73,900.27,25.59,
3111554,-0.02,-0.09,1.0,2.26,4.21,0.98,900.22,25.59,
3111592,-0.01,-0.09,1.0,2.26,3.54,0.73,900.26,25.59,
3111630,-0.03,-0.09,1.01,2.26,3.54,0.79,900.3,25.6,
3111680,-0.02,-0.09,1.0,2.14,3.6,0.92,900.28,25.59,
3111718,-0.02,-0.09,1.0,2.08,3.23,0.98,900.2,25.59,
3111756,-0.02,-0.09,0.98,2.08,3.54,0.67,900.28,25.58,
3111794,-0.02,-0.09,0.95,2.01,3.85,0.73,900.3,25.59,
3111833,-0.02,-0.09,0.97,2.32,3.42,0.79,900.27,25.59,
3111871,-0.02,-0.09,0.93,2.01,3.6,0.79,900.27,25.58,
3111909,-0.01,-0.09,0.94,2.2,2.5,0.67,900.3,25.59,
3111947,-0.03,-0.1,0.94,1.95,2.44,0.67,900.27,25.59,
3111985,-0.01,-0.1,0.92,1.34,1.65,0.61,900.34,25.59,
3112035,-0.0,-0.09,0.93,1.22,1.46,0.61,900.36,25.59,
3112073,-0.0,-0.09,0.97,0.61,0.37,0.49,900.34,25.58,
3112112,-0.02,-0.09,0.98,0.73,0.43,0.55,900.32,25.59,
3112150,-0.03,-0.09,1.0,0.43,-0.18,0.49,900.39,25.59,
3112188,-0.02,-0.1,1.07,0.67,-0.67,0.31,900.36,25.6,
3112226,-0.01,-0.1,1.06,0.31,-0.06,0.24,900.37,25.59,
3112264,-0.01,-0.08,1.12,0.67,-0.67,0.12,900.45,25.59,
3112303,-0.01,-0.09,1.1,0.43,0.24,0.12,900.4,25.61,
3112341,-0.02,-0.09,1.15,0.61,0.18,-0.06,900.41,25.59,
3112379,-0.04,-0.09,1.19,0.61,0.61,0.0,900.48,25.6,
3112429,-0.03,-0.08,1.29,0.98,0.61,-0.24,900.43,25.57,
3112467,-0.03,-0.09,1.26,0.37,2.56,-0.18,900.52,25.59,
3112505,-0.03,-0.08,1.31,0.73,2.93,-0.24,900.52,25.58,
3112544,-0.03,-0.09,1.26,0.92,4.52,-0.37,900.5,25.59,
3112582,-0.02,-0.08,1.24,1.34,4.09,-0.24,900.51,25.58,
3112620,-0.03,-0.09,1.17,1.34,4.94,-0.31,900.49,25.6,
3112658,-0.03,-0.08,1.1,1.4,4.88,-0.43,900.51,25.58,
3112697,-0.03,-0.09,1.1,1.95,4.39,-0.49,900.46,25.59,
3112735,-0.04,-0.1,1.01,1.46,4.03,-0.24,900.43,25.58,
3112785,-0.02,-0.09,1.04,2.01,3.42,-0.24,900.48,25.57,
3112823,-0.03,-0.09,1.01,1.22,3.17,-0.31,900.44,25.58,
3112861,-0.04,-0.09,1.04,1.77,1.95,-0.18,900.54,25.59,
3112899,-0.05,-0.1,0.99,1.34,2.08,0.0,900.47,25.59,
3112937,-0.04,-0.08,0.99,1.22,1.28,-0.18,900.53,25.59,
3112975,-0.04,-0.09,0.99,1.16,1.1,0.0,900.52,25.6,
3113014,-0.04,-0.08,0.98,0.85,1.04,-0.12,900.48,25.59,
3113052,-0.05,-0.09,1.01,0.79,1.46,0.0,900.5,25.59,
3113090,-0.05,-0.09,1.01,0.37,1.89,-0.12,900.52,25.59,
3113128,-0.04,-0.09,1.05,0.55,1.34,0.12,900.51,25.58,
3113204,-0.06,-0.09,1.05,0.98,2.14,0.12,900.53,25.56,
3113242,-0.06,-0.09,1.01,1.04,2.5,0.31,900.5,25.57,
3113280,-0.05,-0.09,1.02,1.34,2.5,0.24,900.51,25.58,
3113370,-0.06,-0.09,1.04,1.65,2.99,0.49,900.5,25.55,
3113408,-0.05,-0.09,1.05,1.34,3.48,0.55,900.55,25.56,
3113447,-0.06,-0.09,1.04,1.46,3.36,0.67,900.55,25.57,
3113485,-0.06,-0.08,1.08,1.65,3.11,0.79,900.51,25.57,
3113523,-0.07,-0.09,1.06,1.53,3.78,0.67,900.57,25.56,
3113561,-0.07,-0.08,1.1,1.77,3.42,1.1,900.58,25.56,
3113599,-0.05,-0.09,1.09,2.26,4.03,1.22,900.6,25.57,
3113649,-0.07,-0.08,1.06,2.26,3.91,1.1,900.56,25.56,
3113688,-0.06,-0.09,1.0,2.44,4.21,1.46,900.59,25.57,
3113726,-0.06,-0.08,0.97,2.69,3.66,1.53,900.57,25.56,
3113764,-0.06,-0.09,0.96,2.75,3.72,1.89,900.6,25.59,
3113802,-0.06,-0.09,0.91,2.81,3.23,2.01,900.57,25.59,
3113840,-0.05,-0.08,0.93,2.99,2.14,2.26,900.61,25.59,
3113879,-0.06,-0.09,0.83,2.69,2.93,2.14,900.58,25.58,
3113917,-0.06,-0.08,0.87,2.32,2.69,2.2,900.61,25.58,
3113955,-0.04,-0.1,0.86,2.32,2.69,2.38,900.58,25.59,
3114005,-0.06,-0.09,0.83,1.95,2.56,2.38,900.62,25.58,
3114043,-0.05,-0.1,0.86,1.83,3.3,2.5,900.64,25.58,
3114081,-0.03,-0.08,0.84,1.4,3.72,2.5,900.66,25.58,
3114119,-0.05,-0.08,0.9,1.77,2.87,2.56,900.66,25.57,
3114158,-0.06,-0.1,0.87,1.28,3.42,2.62,900.63,25.57,
3114196,-0.04,-0.08,0.95,1.59,2.44,2.62,900.69,25.59,
3114234,-0.05,-0.1,0.92,1.59,3.54,2.69,900.6,25.58,
3114272,-0.03,-0.09,0.94,1.1,3.17,2.69,900.67,25.58,
3114311,-0.06,-0.09,0.97,1.59,2.93,2.75,900.69,25.59,
3114349,-0.04,-0.09,0.93,0.98,3.66,2.81,900.68,25.57,
3114399,-0.04,-0.09,0.96,1.46,3.85,2.69,900.7,25.57,
3114437,-0.05,-0.08,0.94,1.28,3.85,2.75,900.71,25.57,
3114475,-0.04,-0.1,0.96,1.77,3.54,2.87,900.71,25.58,
3114513,-0.04,-0.09,0.91,1.83,3.3,2.62,900.74,25.59,
3114551,-0.04,-0.08,0.94,2.26,2.62,2.99,900.76,25.58,
3114590,-0.05,-0.1,0.89,1.89,2.99,2.99,900.76,25.58,
3114628,-0.04,-0.09,0.93,1.95,2.56,3.05,900.8,25.58,
3114666,-0.04,-0.1,0.9,2.08,2.81,2.99,900.77,25.58,
3114704,-0.04,-0.09,0.92,1.89,2.44,3.17,900.82,25.57,
3114743,-0.03,-0.09,0.92,2.01,2.56,3.05,900.83,25.58,
3114793,-0.04,-0.08,0.92,1.89,2.62,2.99,900.79,25.56,
3114831,-0.04,-0.08,0.93,2.14,2.93,3.11,900.78,25.55,
3114869,-0.03,-0.09,0.9,1.71,3.11,2.81,900.86,25.57,
3114907,-0.04,-0.09,0.94,1.95,2.87,2.99,900.82,25.57,
3114945,-0.03,-0.1,0.94,1.53,3.36,3.05,900.83,25.57,
3114984,-0.03,-0.09,0.98,1.71,2.99,2.81,900.82,25.57,
3115022,-0.04,-0.1,0.98,1.65,3.48,2.87,900.84,25.57,
3115060,-0.04,-0.09,1.01,1.77,2.93,2.81,900.88,25.57,
3115098,-0.02,-0.09,1.0,1.77,2.93,2.93,900.86,25.58,
3115148,-0.03,-0.09,1.0,1.83,2.5,2.69,900.91,25.55,
3115186,-0.02,-0.08,0.99,1.71,2.56,2.81,900.89,25.56,
3115225,-0.02,-0.09,1.0,1.89,2.2,2.69,900.83,25.57,
3115263,-0.03,-0.1,1.01,2.08,1.77,2.69,900.92,25.58,
3115301,-0.04,-0.1,0.98,1.83,1.83,2.75,900.91,25.57,
3115339,-0.04,-0.1,0.99,2.14,1.16,2.44,900.98,25.56,
3115377,-0.04,-0.09,0.97,2.32,1.71,2.62,900.93,25.57,
3115416,-0.03,-0.08,0.97,2.44,1.4,2.44,900.92,25.57,
3115454,-0.02,-0.09,0.95,2.38,1.89,2.62,900.92,25.58,
3115492,-0.03,-0.09,0.98,2.38,1.28,2.44,900.94,25.57,
3115542,-0.02,-0.1,1.0,2.32,2.01,2.5,900.97,25.56,
3115580,-0.01,-0.08,1.06,2.32,0.73,2.44,900.95,25.57,
3115618,-0.01,-0.09,1.1,2.32,1.04,2.38,900.96,25.56,
3115657,-0.01,-0.09,1.13,2.01,0.55,2.32,900.97,25.56,
3115695,-0.02,-0.08,1.16,2.01,-0.31,2.14,901.1,25.56,
3115733,-0.02,-0.09,1.14,1.71,-0.06,2.2,901.04,25.57,
3115771,-0.02,-0.09,1.15,1.95,-0.18,1.77,901.06,25.57,
3115809,-0.03,-0.1,1.14,2.14,0.49,1.77,901.03,25.58,
3115848,-0.04,-0.1,1.08,2.14,1.77,1.59,901.05,25.57,
3115886,-0.01,-0.1,1.02,2.14,2.32,1.59,901.06,25.57,
3115936,-0.03,-0.08,1.0,2.14,1.89,1.16,901.06,25.56,
3115974,-0.03,-0.1,0.96,1.83,3.11,1.28,901.05,25.57,
3116012,-0.01,-0.09,0.97,1.77,2.14,1.28,901.08,25.57,
3116051,-0.04,-0.11,0.95,1.89,3.11,1.22,901.12,25.56,
3116089,-0.03,-0.1,0.94,1.89,2.2,1.1,901.14,25.58,
3116127,-0.03,-0.1,1.0,2.38,1.46,1.1,901.06,25.57,
3116165,-0.02,-0.1,0.95,1.77,2.5,1.16,901.1,25.58,
3116203,-0.04,-0.09,0.97,2.08,1.71,1.1,901.04,25.56,
3116242,-0.02,-0.1,1.0,2.01,2.01,1.04,901.04,25.57,
3116317,-0.04,-0.1,1.04,1.89,1.71,1.1,901.09,25.56,
3116356,-0.02,-0.1,1.03,1.53,2.38,0.98,901.11,25.57,
3116394,-0.03,-0.09,1.06,1.71,2.5,0.92,901.02,25.56,
3116484,-0.05,-0.1,1.06,1.77,2.44,0.98,901.12,25.52,
3116522,-0.03,-0.1,1.07,1.89,3.05,0.85,901.09,25.55,
3116560,-0.02,-0.1,1.06,1.46,3.3,0.98,901.15,25.56,
3116598,-0.03,-0.1,1.02,1.77,3.97,0.85,901.13,25.56,
3116636,-0.03,-0.1,0.99,1.89,4.21,0.85,901.15,25.56,
3116675,-0.02,-0.11,0.95,1.83,5.37,1.04,901.16,25.56,
3116713,-0.02,-0.1,0.93,1.89,4.82,0.79,901.19,25.55,
3116763,-0.04,-0.11,0.92,1.95,5.13,0.73,901.17,25.55,
3116801,-0.03,-0.09,0.94,1.65,5.37,0.73,901.1,25.57,
3116839,-0.03,-0.1,0.96,1.34,5.68,0.67,901.15,25.57,
3116877,-0.05,-0.1,0.96,1.28,5.98,0.92,901.17,25.57,
3116915,-0.03,-0.1,0.96,1.04,5.86,0.61,901.12,25.57,
3116954,-0.05,-0.09,1.0,0.85,5.49,0.55,901.16,25.58,
3116992,-0.03,-0.09,1.01,0.85,5.07,0.85,901.14,25.57,
3117030,-0.04,-0.1,1.03,0.92,4.82,0.98,901.16,25.57,
3117068,-0.04,-0.1,1.05,1.04,4.64,0.92,901.18,25.58,
3117106,-0.04,-0.09,1.06,0.92,4.15,0.98,901.19,25.57,
3117156,-0.05,-0.09,1.11,1.4,3.72,0.98,901.19,25.56,
3117194,-0.05,-0.1,1.04,0.98,4.15,1.28,901.29,25.59,
3117233,-0.04,-0.08,1.12,1.53,3.3,1.28,901.27,25.57,
3117271,-0.04,-0.09,1.07,1.16,4.09,1.46,901.28,25.59,
3117309,-0.04,-0.09,1.07,1.71,3.42,1.53,901.23,25.58,
3117347,-0.05,-0.09,1.08,1.89,3.6,1.53,901.29,25.57,
3117385,-0.05,-0.09,1.09,2.38,3.36,1.71,901.28,25.58,
3117424,-0.05,-0.1,1.07,2.44,3.36,1.83,901.31,25.58,
3117462,-0.04,-0.09,1.07,2.56,2.32,1.89,901.33,25.59,
3117512,-0.05,-0.1,1.04,2.2,2.38,1.83,901.26,25.57,
3117550,-0.02,-0.09,1.07,2.38,1.71,2.14,901.31,25.58,
3117588,-0.04,-0.1,1.07,2.62,1.59,2.08,901.29,25.57,
3117626,-0.05,-0.1,1.03,2.5,0.79,2.26,901.22,25.57,
3117665,-0.04,-0.08,1.06,2.75,0.0,2.32,901.25,25.58,
3117703,-0.06,-0.09,1.05,2.38,-0.43,2.56,901.28,25.58,
3117741,-0.06,-0.1,1.0,2.44,-0.55,2.44,901.26,25.57,
3117779,-0.05,-0.09,1.01,2.38,-0.12,2.56,901.25,25.58,
3117817,-0.03,-0.09,1.04,2.62,0.18,2.62,901.26,25.58,
3117856,-0.05,-0.1,0.94,2.08,0.31,2.87,901.27,25.59,
3117906,-0.03,-0.09,1.0,2.5,-0.55,2.81,901.32,25.57,
3117944,-0.04,-0.1,0.95,2.01,-0.85,2.75,901.32,25.58,
3117982,-0.05,-0.09,1.03,2.5,-2.08,2.93,901.33,25.58,
3118020,-0.04,-0.1,0.98,1.59,-0.37,2.99,901.34,25.58,
3118058,-0.04,-0.09,0.99,1.65,-0.98,2.99,901.36,25.57,
3118097,-0.04,-0.09,1.05,2.26,-1.1,2.99,901.34,25.57,
3118135,-0.05,-0.1,1.02,1.95,0.12,3.05,901.36,25.58,
3118173,-0.02,-0.1,1.07,2.32,0.18,3.17,901.35,25.57,
3118211,-0.04,-0.1,1.01,2.14,1.1,3.23,901.43,25.59,
3118261,-0.04,-0.09,1.08,2.56,0.18,3.36,901.41,25.56,
3118300,-0.04,-0.1,1.05,2.32,1.28,3.17,901.35,25.57,
3118338,-0.04,-0.09,1.05,2.5,0.92,3.36,901.33,25.57,
3118376,-0.05,-0.09,1.06,2.08,2.5,3.42,901.36,25.57,
3118414,-0.04,-0.09,1.09,2.14,2.75,3.48,901.32,25.56,
3118452,-0.05,-0.09,1.14,2.01,3.23,3.91,901.36,25.56,
3118491,-0.07,-0.11,1.13,2.26,3.54,3.66,901.36,25.58,
3118529,-0.04,-0.1,1.09,2.2,4.52,3.78,901.39,25.57,
3118567,-0.03,-0.08,1.13,2.26,4.46,3.72,901.37,25.56,
3118605,-0.05,-0.1,1.1,2.38,6.04,4.39,901.41,25.56,
3118655,-0.04,-0.1,0.98,1.77,5.92,4.46,901.4,25.55,
3118693,-0.04,-0.09,0.98,2.44,5.25,4.58,901.41,25.57,
3118732,-0.02,-0.1,0.93,2.01,4.76,4.76,901.44,25.56,
3118770,-0.02,-0.09,0.88,2.01,3.48,4.7,901.45,25.56,
3118808,-0.03,-0.1,0.84,1.95,3.97,4.88,901.44,25.56,
3118846,-0.01,-0.1,0.91,2.08,2.87,4.88,901.44,25.58,
3118884,-0.03,-0.11,0.84,1.59,2.69,4.82,901.44,25.57,
3118923,-0.03,-0.09,0.93,1.77,1.71,5.0,901.45,25.57,
3118961,-0.02,-0.11,0.92,1.4,2.5,4.88,901.46,25.57,
3118999,-0.02,-0.1,0.92,1.22,0.73,4.82,901.43,25.58,
3119049,-0.03,-0.11,0.92,1.53,0.98,5.07,901.49,25.57,
3119087,-0.01,-0.09,0.99,1.34,-0.31,4.88,901.46,25.56,
3119125,-0.03,-0.1,0.92,1.1,-0.61,5.0,901.43,25.57,
3119163,-0.05,-0.09,0.98,1.04,-0.12,4.88,901.41,25.57,
3119201,-0.03,-0.1,0.92,0.92,1.1,4.82,901.49,25.57,
3119240,0.01,-0.09,1.02,1.04,0.61,4.76,901.45,25.57,
3119278,0.0,-0.09,1.05,1.34,1.22,4.88,901.49,25.58,
3119316,-0.02,-0.1,0.99,1.1,1.89,4.7,901.46,25.58,
3119354,-0.03,-0.1,1.07,1.89,1.1,4.7,901.58,25.58,
3119430,-0.03,-0.09,0.96,2.01,1.46,4.64,901.5,25.55,
3119468,-0.01,-0.09,0.92,1.89,2.75,4.46,901.52,25.56,
3119507,-0.01,-0.09,0.95,2.26,1.95,4.46,901.49,25.55,
3119596,-0.01,-0.1,0.94,2.5,3.72,4.58,901.48,25.52,
3119635,-0.02,-0.1,0.96,2.08,3.66,4.27,901.52,25.56,
3119673,-0.0,-0.1,0.98,2.5,3.42,4.21,901.52,25.55,
3119711,0.0,-0.11,0.94,2.26,3.91,3.97,901.52,25.55,
3119749,-0.03,-0.1,0.93,2.44,4.58,4.09,901.45,25.55,
3119788,0.01,-0.09,0.96,2.38,4.58,4.21,901.59,25.56,
3119826,-0.01,-0.1,0.94,2.44,4.03,3.97,901.51,25.57,
3119876,-0.04,-0.1,0.91,2.01,4.58,4.15,901.57,25.56,
3119914,0.02,-0.09,1.01,2.62,4.33,3.66,901.58,25.56,
3119952,0.03,-0.1,0.96,2.2,4.58,3.66,901.53,25.57,
3119990,-0.03,-0.09,0.93,2.38,4.09,3.54,901.6,25.57,
3120029,-0.03,-0.09,0.92,2.26,5.07,3.66,901.55,25.56,
3120067,-0.0,-0.09,0.88,1.83,4.33,3.42,901.56,25.57,
3120105,-0.02,-0.09,0.87,1.89,2.69,3.3,901.6,25.57,
3120143,-0.02,-0.09,0.93,2.08,3.05,3.42,901.56,25.58,
3120181,0.0,-0.1,0.94,2.08,2.38,3.3,901.55,25.57,
3120219,0.01,-0.09,0.97,2.38,1.16,3.3,901.56,25.58,
3120269,-0.02,-0.1,0.94,2.5,1.22,3.48,901.59,25.56,
3120308,-0.03,-0.09,0.94,2.69,0.06,3.36,901.57,25.57,
3120346,-0.04,-0.1,0.98,2.99,0.61,3.3,901.54,25.58,
3120384,-0.03,-0.11,0.89,2.14,0.67,3.17,901.61,25.57,
3120422,-0.05,-0.09,0.95,2.26,0.79,3.3,901.53,25.57,
3120461,-0.01,-0.11,0.96,1.65,2.93,3.23,901.58,25.56,
3120499,-0.03,-0.08,1.06,1.59,2.01,3.42,901.64,25.57,
3120537,-0.04,-0.1,0.99,1.95,3.54,3.54,901.61,25.58,
3120575,-0.03,-0.09,0.98,1.22,3.85,3.42,901.66,25.58,
3120625,-0.01,-0.09,1.02,1.71,4.88,3.42,901.62,25.56,
3120663,0.01,-0.09,1.02,1.16,4.88,3.42,901.68,25.56,
3120701,-0.03,-0.09,1.01,1.4,5.31,3.72,901.66,25.57,
3120740,-0.02,-0.09,1.0,1.28,6.41,3.54,901.66,25.56,
3120778,-0.02,-0.06,0.99,1.1,6.96,3.42,901.69,25.58,
3120816,-0.01,-0.09,1.07,1.53,6.77,3.54,901.66,25.59,
3120854,-0.01,-0.11,1.05,1.53,8.36,3.66,901.67,25.58,
3120893,0.0,-0.09,1.04,1.59,7.51,3.48,901.71,25.58,
3120931,-0.01,-0.09,0.94,1.59,8.24,3.48,901.75,25.58,
3120969,-0.01,-0.07,0.93,2.08,7.14,3.85,901.72,25.58,
3121019,0.0,-0.11,0.88,2.08,7.2,3.78,901.7,25.57,
3121057,0.01,-0.09,0.87,1.71,6.53,3.3,901.72,25.57,
3121095,0.02,-0.09,0.92,1.59,6.65,3.23,901.67,25.58,
3121134,0.02,-0.09,0.98,0.73,6.35,3.36,901.78,25.59,
3121172,0.01,-0.09,1.09,0.73,5.49,3.36,901.75,25.58,
3121210,0.0,-0.11,1.1,0.43,6.35,3.11,901.73,25.59,
3121248,-0.01,-0.09,1.09,0.55,5.19,3.17,901.76,25.58,
3121286,0.02,-0.09,1.12,0.79,3.91,2.99,901.73,25.58,
3121324,0.01,-0.08,1.06,0.49,2.01,2.81,901.75,25.58,
3121363,0.01,-0.09,1.11,0.98,0.43,2.99,901.66,25.57,
3121413,0.01,-0.1,1.05,0.31,-0.73,2.62,901.82,25.57,
3121451,-0.0,-0.09,1.13,0.49,-2.01,2.62,901.73,25.57,
3121489,-0.01,-0.1,1.13,0.31,-1.65,2.44,901.77,25.58,
3121527,-0.01,-0.1,1.18,0.37,-1.71,2.26,901.81,25.57,
3121565,0.01,-0.1,1.14,0.55,-1.77,2.01,901.82,25.58,
3121604,-0.01,-0.09,1.14,0.85,-2.32,1.83,901.82,25.58,
3121642,-0.01,-0.09,1.08,0.73,-2.01,1.83,901.79,25.57,
3121680,-0.01,-0.08,1.08,0.98,-2.01,1.77,901.85,25.58,
3121718,-0.01,-0.09,1.04,0.85,-0.24,1.28,901.79,25.57,
3121768,-0.02,-0.09,1.07,1.71,-0.06,1.4,901.82,25.56,
3121806,-0.03,-0.09,1.03,1.46,1.1,1.28,901.78,25.57,
3121845,-0.01,-0.09,1.04,1.83,2.2,1.16,901.84,25.57,
3121883,-0.02,-0.09,1.05,1.89,2.5,1.28,901.73,25.57,
3121921,-0.03,-0.09,1.0,2.2,2.62,1.46,901.79,25.57,
3121959,-0.03,-0.09,0.96,2.08,3.23,1.59,901.75,25.57,
3121997,-0.02,-0.08,0.98,2.2,3.11,1.4,901.8,25.58,
3122036,-0.01,-0.1,0.97,2.08,3.36,1.4,901.79,25.57,
3122074,-0.03,-0.09,1.02,2.08,3.17,1.46,901.76,25.58,
3122112,-0.01,-0.1,1.01,1.71,3.54,1.53,901.8,25.57,
3122162,-0.03,-0.08,1.07,2.01,3.11,1.77,901.85,25.58,
3122200,-0.01,-0.09,1.04,1.77,3.72,1.71,901.8,25.58,
3122238,-0.02,-0.08,1.02,2.08,3.42,1.65,901.82,25.58,
3122277,-0.03,-0.09,0.96,1.95,4.03,1.77,901.83,25.56,
3122315,-0.0,-0.1,0.86,2.08,4.7,1.77,901.88,25.57,
3122353,-0.01,-0.09,0.77,2.26,5.0,1.59,901.86,25.57,
3122391,-0.01,-0.08,0.73,2.69,3.72,1.65,901.86,25.57,
3122429,-0.02,-0.09,0.67,2.5,4.03,1.53,901.85,25.58,
3122468,-0.01,-0.09,0.67,2.14,3.78,1.53,901.82,25.58,
3122506,-0.0,-0.09,0.71,1.89,3.23,1.46,901.85,25.58,
3122582,-0.02,-0.1,0.79,1.53,4.15,1.59,901.83,25.56,
3122620,0.0,-0.09,0.85,1.34,4.03,1.46,901.81,25.56,
3122658,-0.02,-0.09,0.86,1.22,4.03,1.71,901.88,25.57,
3122748,-0.01,-0.09,0.85,1.1,4.21,1.59,901.9,25.54,
3122786,-0.01,-0.09,0.89,1.4,3.66,1.59,901.93,25.56,
3122824,-0.01,-0.09,0.92,1.4,3.48,1.71,901.87,25.56,
3122862,-0.01,-0.09,0.96,1.34,3.66,1.59,901.94,25.56,
3122901,-0.0,-0.09,0.99,1.46,3.42,1.71,901.98,25.57,
3122939,-0.01,-0.1,0.98,1.53,4.09,1.65,901.94,25.57,
3122989,-0.0,-0.08,0.95,1.77,4.39,1.65,901.98,25.55,
3123027,-0.02,-0.09,0.94,1.77,4.27,1.59,901.96,25.56,
3123065,-0.0,-0.09,0.9,1.89,3.66,1.59,901.99,25.56,
3123103,-0.02,-0.09,0.89,1.95,3.66,1.34,901.97,25.57,
3123142,-0.01,-0.09,0.89,1.95,4.03,1.46,901.95,25.57,
3123180,-0.01,-0.09,0.89,2.01,3.72,1.59,902.03,25.57,
3123218,-0.01,-0.08,0.88,1.83,3.42,1.4,902.0,25.58,
3123256,-0.02,-0.09,0.91,1.71,3.54,1.53,902.03,25.56,
3123294,-0.01,-0.09,0.9,1.77,3.91,1.59,901.97,25.57,
3123333,-0.01,-0.09,0.93,1.65,3.23,1.46,901.99,25.57,
3123383,-0.01,-0.09,0.9,1.4,3.85,1.65,902.0,25.55,
3123421,-0.0,-0.09,0.92,1.65,3.42,1.4,902.07,25.57,
3123459,-0.01,-0.09,0.86,1.53,3.78,1.59,902.11,25.58,
3123497,-0.01,-0.09,0.88,1.71,3.11,1.53,902.04,25.57,
3123535,-0.0,-0.09,0.82,1.71,3.48,1.46,902.02,25.57,
3123573,-0.01,-0.09,0.8,1.77,2.75,1.4,902.12,25.57,
3123612,-0.02,-0.1,0.8,2.01,2.87,1.53,902.09,25.57,
3123650,-0.01,-0.09,0.82,1.59,2.69,1.34,902.05,25.57,
3123688,-0.03,-0.09,0.83,1.95,2.87,1.34,902.09,25.57,
3123726,-0.0,-0.09,0.83,1.28,3.17,1.22,902.07,25.57,
3123776,-0.03,-0.1,0.85,1.95,3.6,1.22,902.09,25.55,
3123814,-0.02,-0.1,0.79,1.28,4.46,1.1,902.07,25.56,
3123853,-0.03,-0.07,0.93,1.89,2.01,1.22,902.13,25.57,
3123891,-0.03,-0.11,0.84,2.14,2.93,1.4,902.13,25.58,
3123929,-0.05,-0.09,0.89,1.89,1.89,1.4,902.09,25.58,
3123967,-0.06,-0.09,0.93,2.5,1.46,1.46,902.13,25.58,
3124005,-0.03,-0.08,0.95,1.53,2.2,1.83,902.13,25.57,
3124044,-0.05,-0.09,1.0,1.89,2.08,1.77,902.12,25.58,
3124082,-0.05,-0.11,0.96,1.46,2.69,2.14,902.22,25.59,
3124132,-0.03,-0.08,1.06,1.28,2.26,2.26,902.14,25.56,
3124170,-0.07,-0.1,1.0,0.61,4.15,2.56,902.2,25.57,
3124208,-0.02,-0.06,1.12,1.16,1.22,2.69,902.19,25.57,
3124246,-0.04,-0.1,1.1,1.34,1.59,2.87,902.18,25.57,
3124285,-0.05,-0.1,1.13,1.1,0.55,3.36,902.24,25.57,
3124323,-0.03,-0.09,1.17,1.65,1.95,3.54,902.26,25.57,
3124361,-0.01,-0.1,1.09,1.34,2.62,3.48,902.31,25.57,
3124399,-0.02,-0.08,1.07,1.89,1.59,3.6,902.34,25.58,
3124437,-0.01,-0.09,1.01,1.59,2.99,3.6,902.31,25.58,
3124476,0.02,-0.09,0.95,1.83,2.81,3.6,902.34,25.58,
3124526,-0.01,-0.09,0.86,1.59,3.17,3.6,902.34,25.56,
3124564,-0.0,-0.09,0.82,1.83,2.75,3.36,902.35,25.57,
3124602,0.0,-0.1,0.85,2.01,3.3,3.17,902.36,25.57,
3124640,0.01,-0.1,0.82,1.59,4.21,3.11,902.4,25.57,
3124678,-0.01,-0.09,0.86,1.95,3.72,2.99,902.34,25.57,
3124716,-0.01,-0.11,0.81,1.65,5.19,2.87,902.4,25.57,
3124755,-0.01,-0.09,0.87,1.28,4.88,2.93,902.35,25.57,
3124793,-0.01,-0.1,0.91,1.46,5.92,2.81,902.4,25.57,
3124831,-0.0,-0.1,0.88,1.1,5.92,2.62,902.39,25.57,
3124869,-0.02,-0.09,0.96,1.34,5.31,2.62,902.45,25.58,
3124919,0.0,-0.09,0.91,0.98,6.59,2.62,902.47,25.57,
3124957,-0.01,-0.09,0.99,1.34,5.98,2.56,902.44,25.57,
3124996,-0.02,-0.1,0.92,1.34,6.9,2.81,902.53,25.57,
3125034,-0.0,-0.08,0.97,1.77,5.31,2.62,902.51,25.59,
3125072,0.01,-0.09,0.96,2.08,5.19,2.62,902.54,25.57,
3125110,-0.01,-0.09,0.92,1.65,4.52,2.38,902.57,25.58,
3125148,-0.02,-0.09,0.96,2.26,4.33,2.62,902.57,25.58,
3125187,-0.0,-0.1,0.94,1.71,4.46,2.62,902.57,25.59,
3125225,-0.0,-0.09,1.01,1.95,3.85,2.56,902.52,25.58,
3125263,-0.02,-0.1,0.91,0.98,5.07,2.56,902.59,25.58,
3125313,0.0,-0.1,0.98,1.59,4.76,2.26,902.56,25.56,
3125351,-0.02,-0.1,0.91,0.73,5.25,2.26,902.62,25.58,
3125389,0.0,-0.09,1.04,0.67,4.33,2.2,902.63,25.58,
3125428,0.01,-0.1,1.01,0.12,5.37,2.14,902.55,25.56,
3125466,0.01,-0.08,1.12,0.31,4.09,1.95,902.63,25.57,
3125504,-0.0,-0.09,1.14,0.49,4.33,2.01,902.63,25.57,
3125542,0.01,-0.09,1.18,0.12,3.78,1.95,902.67,25.58,
3125580,-0.0,-0.09,1.21,0.73,3.11,1.77,902.71,25.57,
3125619,-0.02,-0.1,1.14,0.43,2.75,1.71,902.71,25.58,
3125768,-0.01,-0.1,1.07,1.34,2.08,1.59,902.76,25.5,
3125806,0.0,-0.09,1.06,1.34,2.44,1.22,902.78,25.53,
3125844,-0.01,-0.09,1.09,1.77,2.08,1.16,902.82,25.53,
3125934,-0.01,-0.09,1.12,1.28,2.81,0.85,902.83,25.51,
3125972,-0.0,-0.1,1.1,1.22,3.3,0.92,902.84,25.53,
3126010,-0.01,-0.09,1.1,1.28,3.11,0.79,902.84,25.53,
3126049,-0.02,-0.09,1.09,1.28,3.72,0.73,902.83,25.53,
3126087,-0.01,-0.09,1.08,1.16,3.97,0.67,902.86,25.54,
3126125,-0.0,-0.09,1.08,1.28,4.27,0.55,902.86,25.54,
3126163,-0.0,-0.09,1.09,1.16,4.33,0.43,902.84,25.54,
3126213,-0.02,-0.09,1.09,1.1,4.94,0.49,902.86,25.54,
3126251,-0.01,-0.09,1.12,1.16,4.7,0.49,902.87,25.55,
3126289,-0.02,-0.1,1.09,1.04,5.07,0.55,902.88,25.55,
3126328,-0.02,-0.09,1.1,1.34,4.64,0.43,902.91,25.54,
3126366,-0.02,-0.1,1.09,1.04,5.19,0.55,902.9,25.56,
3126404,-0.0,-0.07,1.1,1.22,4.33,0.49,902.9,25.56,
3126442,-0.01,-0.09,1.11,1.34,4.39,0.49,902.92,25.56,
3126480,-0.02,-0.09,1.1,1.28,4.27,0.61,902.95,25.57,
3126519,-0.02,-0.09,1.11,1.53,4.03,0.49,902.93,25.55,
3126557,-0.02,-0.09,1.1,1.28,4.21,0.55,902.97,25.57,
3126607,-0.02,-0.09,1.1,1.46,4.09,0.43,902.94,25.55,
3126645,-0.01,-0.09,1.09,1.28,4.88,0.49,903.01,25.56,
3126683,-0.01,-0.08,1.09,1.4,3.91,0.61,902.95,25.56,
3126721,-0.03,-0.09,1.09,1.46,3.85,0.61,902.96,25.56,
3126760,-0.03,-0.09,1.09,1.34,3.91,0.49,902.98,25.57,
3126798,-0.02,-0.09,1.15,1.46,3.85,0.37,903.01,25.57,
3126836,-0.02,-0.09,1.13,1.34,3.72,0.55,903.04,25.57,
3126874,-0.03,-0.08,1.18,1.53,3.6,0.73,903.03,25.57,
3126913,-0.03,-0.09,1.18,1.46,4.76,0.73,903.0,25.57,
3126962,-0.02,-0.09,1.28,1.46,3.36,0.79,903.03,25.56,
3127001,-0.05,-0.09,1.26,1.4,3.11,0.98,903.0,25.56,
3127039,-0.04,-0.09,1.28,1.71,3.3,0.98,903.02,25.56,
3127077,-0.05,-0.1,1.26,2.14,3.72,0.92,903.08,25.57,
3127115,-0.03,-0.08,1.28,2.38,2.32,0.98,903.07,25.58,
3127153,-0.03,-0.09,1.2,2.32,3.3,1.04,903.03,25.57,
3127192,-0.01,-0.08,1.18,2.5,3.48,1.22,903.05,25.56,
3127230,-0.04,-0.1,1.19,2.75,3.85,1.46,903.04,25.57,
3127268,-0.03,-0.09,1.12,2.56,3.17,1.28,903.03,25.58,
3127306,-0.04,-0.1,1.18,2.93,2.99,1.4,902.99,25.57,
3127356,-0.03,-0.09,1.07,2.56,3.05,1.34,903.02,25.58,
3127394,-0.03,-0.09,1.09,2.93,3.17,1.34,903.04,25.57,
3127433,-0.03,-0.11,0.99,2.44,4.09,1.34,903.04,25.58,
3127471,-0.05,-0.09,0.98,2.56,3.3,1.4,903.03,25.58,
3127509,-0.05,-0.09,0.93,1.89,3.97,1.65,903.06,25.58,
3127547,-0.01,-0.1,0.85,1.77,4.03,1.59,903.04,25.58,
3127585,-0.06,-0.1,0.82,2.26,3.11,1.71,903.04,25.57,
3127624,-0.05,-0.1,0.72,1.65,2.81,1.89,903.03,25.58,
3127662,-0.03,-0.09,0.69,1.71,2.38,1.89,903.02,25.58,
3127700,-0.03,-0.09,0.72,1.16,1.89,1.65,902.96,25.56,
3127750,-0.05,-0.1,0.8,0.79,0.79,2.08,902.99,25.57,
3127788,-0.06,-0.11,0.86,0.73,1.28,2.01,903.01,25.58,
3127826,-0.04,-0.09,0.95,0.0,0.55,2.14,902.98,25.58,
3127865,-0.05,-0.1,0.96,-0.24,0.55,2.56,903.03,25.57,
3127903,-0.06,-0.09,1.01,-0.06,1.28,2.62,902.98,25.58,
3127941,-0.03,-0.09,1.08,-0.06,2.99,2.56,903.04,25.57,
3127979,-0.06,-0.09,1.11,-0.12,3.36,2.62,903.04,25.59,
3128017,-0.05,-0.09,1.14,0.18,3.36,2.93,903.05,25.58,
3128056,-0.03,-0.1,1.15,0.24,3.97,3.05,903.05,25.57,
3128105,-0.03,-0.09,1.16,0.49,3.66,3.11,903.06,25.56,
3128144,-0.02,-0.09,1.18,0.98,2.99,3.3,903.07,25.56,
3128182,-0.04,-0.09,1.15,0.73,3.23,3.42,903.12,25.58,
3128220,-0.02,-0.09,1.17,1.1,2.56,3.48,903.07,25.57,
3128258,-0.03,-0.1,1.18,1.22,2.2,3.6,903.07,25.57,
3128297,-0.01,-0.1,1.17,1.46,1.95,3.6,903.07,25.57,
3128335,-0.02,-0.1,1.14,1.65,2.26,3.3,903.13,25.58,
3128373,-0.02,-0.09,1.13,2.01,1.77,3.42,903.1,25.58,
3128411,-0.01,-0.1,1.04,1.95,2.26,3.42,903.13,25.58,
3128449,-0.02,-0.09,1.04,2.2,2.01,3.3,903.1,25.58,
3128499,-0.02,-0.1,1.0,2.32,2.5,3.36,903.15,25.56,
3128537,-0.02,-0.1,0.98,2.44,2.08,3.23,903.1,25.57,
3128576,-0.01,-0.1,0.98,2.62,2.01,3.11,903.09,25.57,
3128614,-0.02,-0.1,0.95,2.5,2.56,3.11,903.1,25.57,
3128652,-0.01,-0.1,0.91,2.26,2.81,3.11,903.07,25.57,
3128690,-0.02,-0.09,0.91,1.95,2.81,3.05,903.07,25.57,
3128728,-0.02,-0.1,0.85,2.08,3.48,2.99,903.09,25.57,
3128767,-0.02,-0.09,0.87,1.4,3.3,3.05,903.08,25.56,
3128805,-0.02,-0.1,0.88,1.4,4.76,2.93,903.08,25.57,
3128881,-0.0,-0.1,0.95,1.46,4.88,2.81,903.12,25.55,
3128919,-0.02,-0.09,0.96,0.85,4.76,2.81,903.14,25.55,
3128957,-0.01,-0.11,0.98,1.04,5.13,2.44,903.12,25.57,
3129046,-0.02,-0.1,0.99,0.98,5.07,2.32,903.11,25.52,
3129085,-0.01,-0.1,0.96,0.61,5.19,2.26,903.11,25.54,
3129123,-0.01,-0.09,1.0,0.92,5.13,2.56,903.08,25.53,
3129161,-0.01,-0.1,1.0,0.85,5.68,2.44,903.09,25.54,
3129199,-0.02,-0.1,1.0,0.92,4.39,2.32,903.14,25.56,
3129237,-0.01,-0.1,1.02,0.79,5.25,2.2,903.15,25.55,
3129276,0.0,-0.1,0.99,1.04,4.09,1.83,903.19,25.55,
3129326,-0.0,-0.1,1.0,1.59,4.09,2.01,903.16,25.54,
3129364,0.02,-0.1,0.92,1.1,3.97,1.89,903.15,25.55,
3129402,-0.01,-0.08,0.96,1.65,2.56,1.77,903.19,25.55,
3129440,0.01,-0.1,0.96,1.46,3.36,1.77,903.14,25.56,
3129478,0.01,-0.1,0.98,1.46,2.44,1.71,903.15,25.55,
3129516,-0.02,-0.1,0.98,1.59,2.38,1.59,903.18,25.56,
3129555,-0.0,-0.1,0.98,1.4,2.99,1.4,903.19,25.58,
3129593,0.01,-0.1,0.99,1.71,3.05,1.1,903.22,25.58,
3129631,-0.0,-0.09,0.99,1.89,2.75,0.98,903.18,25.56,
3129669,-0.0,-0.09,0.97,2.01,2.5,1.04,903.16,25.56,
3129719,-0.01,-0.09,0.99,1.95,2.99,0.79,903.15,25.57,
3129757,-0.0,-0.09,1.0,2.32,2.69,0.73,903.21,25.56,
3129795,-0.0,-0.09,1.0,2.2,2.38,0.73,903.14,25.55,
3129834,-0.01,-0.09,0.99,2.01,2.38,0.55,903.2,25.56,
3129872,0.0,-0.09,0.98,2.2,2.93,0.49,903.19,25.57,
3129910,0.0,-0.09,0.99,1.95,2.62,0.55,903.19,25.56,
3129948,-0.01,-0.09,1.0,2.2,2.44,0.43,903.17,25.57,
3129986,-0.01,-0.1,0.97,2.14,3.23,0.37,903.15,25.57,
3130025,-0.01,-0.09,1.01,2.26,2.62,0.31,903.18,25.59,
3130063,-0.0,-0.1,0.99,2.2,3.17,0.12,903.23,25.57,
3130113,-0.01,-0.09,0.99,2.56,2.99,0.12,903.2,25.57,
3130151,-0.01,-0.09,0.96,2.56,2.99,0.12,903.19,25.57,
3130189,-0.01,-0.1,0.95,2.69,2.56,-0.06,903.21,25.57,
3130227,-0.02,-0.08,0.93,2.81,1.95,-0.06,903.19,25.58,
3130265,-0.01,-0.08,0.97,2.99,2.08,0.0,903.16,25.58,
3130303,-0.01,-0.09,0.92,3.23,2.01,-0.06,903.21,25.58,
3130342,-0.02,-0.08,0.97,3.42,1.77,-0.18,903.23,25.59,
3130380,-0.04,-0.09,0.94,3.11,2.93,-0.12,903.21,25.57,
3130418,-0.02,-0.08,0.96,3.36,2.26,0.0,903.25,25.58,
3130468,-0.02,-0.1,0.92,2.87,4.09,-0.06,903.28,25.57,
3130506,-0.02,-0.09,0.85,2.56,4.03,-0.06,903.2,25.57,
3130544,-0.01,-0.08,0.98,3.42,2.44,0.0,903.22,25.57,
3130583,-0.01,-0.1,0.93,2.81,2.38,0.12,903.19,25.57,
3130621,-0.01,-0.09,1.01,3.17,1.28,0.06,903.2,25.58,
3130659,-0.02,-0.1,0.98,2.81,1.83,-0.12,903.17,25.58,
3130697,-0.01,-0.09,0.96,2.5,0.12,0.0,903.24,25.57,
3130735,-0.03,-0.09,0.94,2.44,0.0,0.06,903.26,25.58,
3130773,-0.03,-0.1,0.94,2.75,1.04,-0.18,903.24,25.58,
3130812,-0.03,-0.09,0.85,2.93,1.71,-0.43,903.2,25.57,
3130861,-0.04,-0.08,0.89,2.87,0.49,0.06,903.21,25.57,
3130900,-0.03,-0.1,0.86,2.32,2.56,-0.06,903.27,25.57,
3130938,-0.02,-0.09,0.9,1.95,3.54,-0.24,903.23,25.58,
3130976,-0.02,-0.1,0.95,2.32,2.87,-0.06,903.2,25.57,
3131014,-0.04,-0.09,0.94,1.89,2.44,-0.12,903.2,25.57,
3131053,-0.04,-0.08,0.98,1.65,3.17,0.06,903.2,25.58,
3131091,-0.0,-0.1,1.0,1.65,3.05,0.12,903.25,25.58,
3131129,-0.03,-0.09,1.01,1.77,1.83,0.12,903.26,25.58,
3131167,-0.05,-0.09,0.98,1.89,1.46,0.06,903.22,25.57,
3131217,-0.01,-0.08,1.0,2.08,2.14,0.12,903.27,25.56,
3131255,-0.03,-0.09,0.99,1.95,1.77,0.06,903.24,25.56,
3131294,-0.07,-0.1,0.98,2.01,1.53,0.37,903.28,25.58,
3131332,-0.05,-0.09,0.99,2.2,2.44,0.12,903.29,25.57,
3131370,-0.02,-0.08,0.99,2.14,2.14,0.24,903.28,25.58,
3131408,-0.04,-0.08,0.98,2.2,2.14,0.49,903.32,25.58,
3131446,-0.04,-0.09,0.97,2.32,2.75,0.55,903.32,25.58,
3131485,-0.03,-0.09,0.97,2.69,3.3,0.61,903.3,25.59,
3131523,-0.03,-0.08,0.98,2.56,3.17,0.73,903.3,25.58,
3131561,-0.05,-0.09,0.96,2.62,3.72,0.79,903.31,25.56,
3131611,-0.04,-0.09,0.98,3.05,4.03,0.92,903.37,25.57,
3131649,-0.04,-0.1,0.92,2.93,4.03,0.92,903.3,25.56,
3131687,-0.05,-0.08,0.94,3.17,4.15,1.04,903.29,25.56,
3131726,-0.03,-0.09,0.89,3.3,5.0,1.4,903.3,25.57,
3131764,-0.05,-0.09,0.87,3.23,4.46,1.28,903.34,25.57,
3131802,-0.04,-0.09,0.83,3.3,4.52,1.53,903.34,25.58,
3131840,-0.05,-0.08,0.78,3.17,4.76,1.53,903.25,25.56,
3131878,-0.04,-0.09,0.76,3.05,4.27,1.77,903.35,25.57,
3131917,-0.03,-0.09,0.71,3.05,4.15,1.83,903.36,25.59,
3131955,-0.04,-0.09,0.73,2.99,4.33,1.95,903.36,25.57,
3132031,-0.03,-0.08,0.72,1.77,4.58,2.2,903.38,25.54,
3132069,-0.04,-0.08,0.76,2.01,4.58,2.08,903.35,25.57,
3132107,-0.04,-0.09,0.74,1.53,5.31,2.08,903.37,25.57,
3132197,-0.02,-0.09,0.8,1.16,4.94,2.26,903.38,25.52,
3132235,-0.03,-0.08,0.84,0.98,4.88,2.26,903.43,25.54,
3132273,-0.04,-0.08,0.84,1.04,5.13,2.38,903.43,25.55,
3132312,-0.02,-0.09,0.86,1.16,4.76,2.44,903.44,25.54,
3132350,-0.02,-0.08,0.87,0.92,4.33,2.38,903.43,25.55,
3132388,-0.02,-0.09,0.91,0.79,3.97,2.44,903.47,25.56,
3132438,-0.01,-0.09,0.92,0.73,3.6,2.38,903.44,25.54,
3132476,-0.02,-0.08,0.97,0.73,2.87,2.32,903.5,25.55,
3132515,-0.04,-0.09,0.97,0.85,2.44,2.5,903.54,25.56,
3132553,-0.03,-0.09,1.01,0.79,1.77,2.56,903.51,25.56,
3132591,-0.02,-0.08,1.06,1.22,1.4,2.44,903.59,25.56,
3132629,-0.03,-0.08,1.05,0.92,2.2,2.5,903.55,25.56,
3132667,-0.02,-0.08,1.12,1.59,1.71,2.44,903.6,25.56,
3132706,-0.03,-0.09,1.05,1.46,1.95,2.38,903.6,25.56,
3132744,-0.01,-0.08,1.03,1.83,1.53,2.5,903.54,25.55,
3132782,-0.03,-0.08,1.0,1.89,2.2,2.44,903.63,25.56,
3132832,-0.02,-0.09,0.99,2.08,2.14,2.26,903.58,25.56,
3132870,-0.02,-0.09,1.01,2.56,1.89,2.32,903.57,25.56,
3132908,-0.02,-0.1,0.99,2.2,1.89,2.26,903.61,25.56,
3132947,-0.02,-0.08,1.02,2.08,1.4,2.08,903.61,25.57,
3132985,-0.03,-0.08,1.04,2.08,1.89,2.14,903.68,25.57,
3133023,-0.02,-0.09,1.0,2.01,2.38,2.08,903.73,25.56,
3133061,-0.02,-0.08,1.02,2.01,2.87,2.14,903.65,25.58,
3133099,-0.01,-0.09,1.0,2.14,2.99,2.14,903.65,25.57,
3133138,-0.02,-0.09,0.95,2.26,3.23,1.95,903.67,25.57,
3133176,-0.01,-0.07,0.94,2.26,2.75,1.77,903.74,25.57,
3133226,-0.02,-0.09,0.92,1.95,3.05,1.83,903.71,25.56,
3133264,-0.01,-0.09,0.96,2.2,2.69,1.89,903.73,25.57,
3133302,-0.01,-0.09,0.96,1.89,2.69,1.71,903.67,25.56,
3133340,-0.02,-0.09,0.93,2.01,2.87,1.71,903.68,25.57,
3133379,-0.02,-0.08,0.94,1.95,2.32,1.65,903.72,25.56,
3133417,-0.01,-0.09,0.92,1.95,2.87,1.59,903.72,25.57,
3133455,-0.01,-0.09,0.91,1.77,3.36,1.4,903.7,25.58,
3133493,-0.02,-0.08,0.94,1.71,3.78,1.34,903.75,25.57,
3133531,-0.01,-0.08,0.97,1.53,3.54,1.28,903.73,25.57,
3133581,-0.02,-0.09,1.03,1.89,3.72,1.16,903.74,25.56,
3133619,-0.02,-0.09,1.0,1.65,4.09,1.04,903.83,25.57,
3133658,-0.02,-0.09,1.01,1.89,4.33,1.22,903.76,25.57,
3133696,-0.02,-0.09,0.93,1.95,4.52,1.16,903.83,25.58,
3133734,-0.01,-0.08,0.94,2.32,3.36,1.16,903.81,25.58,
3133772,-0.0,-0.09,0.93,2.08,3.91,1.04,903.84,25.58,
3133810,0.03,-0.08,0.96,1.89,2.69,0.67,903.87,25.57,
3133849,-0.02,-0.08,1.0,2.38,1.89,0.92,903.89,25.58,
3133887,-0.02,-0.09,0.96,1.95,2.08,0.79,903.86,25.57,
3133925,-0.0,-0.08,1.01,2.32,1.95,0.55,903.9,25.58,
3133975,0.0,-0.09,0.94,1.83,1.77,0.61,903.82,25.57,
3134013,-0.01,-0.08,0.92,2.14,1.46,0.49,903.89,25.57,
3134051,-0.04,-0.08,0.89,2.32,2.38,0.55,903.92,25.57,
3134090,-0.02,-0.08,0.88,2.93,2.56,0.55,903.93,25.57,
3134128,-0.02,-0.09,0.91,3.05,2.56,0.43,903.93,25.57,
3134166,-0.01,-0.09,0.85,2.99,3.48,0.43,903.92,25.58,
3134204,-0.01,-0.08,0.89,3.11,3.91,0.37,903.97,25.59,
3134243,-0.01,-0.08,0.84,2.99,4.39,0.31,904.03,25.58,
3134281,-0.01,-0.08,0.8,3.23,4.27,0.24,904.04,25.57,
3134319,-0.04,-0.08,0.78,3.48,4.82,0.18,904.02,25.57,
3134369,-0.02,-0.09,0.77,3.42,5.31,0.18,904.02,25.56,
3134407,-0.01,-0.08,0.77,3.05,5.55,0.06,904.03,25.57,
3134445,-0.02,-0.08,0.78,2.81,5.8,0.06,904.0,25.56,
3134484,-0.01,-0.08,0.8,2.56,6.41,0.12,904.04,25.57,
3134522,-0.01,-0.08,0.79,2.26,6.41,0.12,904.06,25.57,
3134560,-0.04,-0.08,0.78,1.95,6.53,0.12,904.08,25.57,
3134598,-0.01,-0.08,0.82,1.83,6.29,-0.06,904.04,25.57,
3134636,-0.01,-0.08,0.75,1.34,6.35,-0.12,904.14,25.59,
3134675,-0.03,-0.07,0.82,1.71,4.76,0.0,904.06,25.57,
3134725,-0.01,-0.1,0.78,1.16,5.68,-0.06,904.13,25.57,
3134763,-0.02,-0.07,0.89,1.65,3.78,-0.12,904.08,25.56,
3134801,-0.03,-0.09,0.82,1.71,3.91,0.12,904.15,25.57,
3134839,-0.02,-0.08,0.83,1.28,3.66,-0.12,904.12,25.57,
3134877,-0.02,-0.08,0.89,2.01,2.56,-0.12,904.21,25.57,
3134916,-0.02,-0.09,0.87,1.4,2.14,0.0,904.2,25.58,
3134954,-0.02,-0.07,0.92,1.95,1.04,-0.12,904.14,25.57,
3134992,-0.03,-0.09,0.92,1.77,1.65,-0.18,904.27,25.57,
3135030,-0.02,-0.08,0.95,1.95,1.46,-0.06,904.19,25.58,
3135068,-0.04,-0.09,0.92,2.2,1.46,-0.18,904.24,25.57,
3135144,-0.04,-0.08,0.89,2.56,1.95,-0.18,904.26,25.54,
3135183,-0.02,-0.08,0.92,2.81,1.71,-0.12,904.31,25.54,
3135221,-0.01,-0.08,0.89,2.75,1.4,-0.24,904.29,25.57,
3135311,-0.03,-0.08,0.95,2.81,0.98,0.0,904.36,25.54,
3135349,-0.02,-0.08,0.99,2.93,-0.37,-0.24,904.33,25.55,
3135387,-0.01,-0.08,1.02,3.11,-0.49,-0.06,904.36,25.54,
3135425,-0.02,-0.09,0.98,2.56,0.0,0.0,904.41,25.55,
3135463,-0.03,-0.07,1.0,2.87,-0.37,-0.12,904.39,25.55,
3135502,-0.04,-0.09,0.97,2.69,-0.37,-0.06,904.44,25.56,
3135552,-0.05,-0.08,0.99,2.87,-0.79,-0.12,904.48,25.56,
3135590,-0.04,-0.08,0.98,2.44,-0.12,-0.12,904.49,25.57,
3135628,-0.04,-0.07,1.07,2.5,0.18,-0.31,904.47,25.55,
3135666,-0.05,-0.07,1.11,1.77,0.85,-0.12,904.52,25.57,
3135704,-0.05,-0.06,1.16,1.71,1.34,-0.06,904.52,25.57,
3135743,-0.04,-0.08,1.17,1.4,3.05,-0.12,904.51,25.56,
3135781,-0.04,-0.06,1.21,1.34,2.56,0.0,904.6,25.57,
3135819,-0.06,-0.07,1.13,1.16,2.62,0.12,904.57,25.56,
3135857,-0.05,-0.07,1.11,1.04,1.65,0.24,904.62,25.56,
3135895,-0.04,-0.07,1.09,1.04,2.01,0.24,904.58,25.57,
3135945,-0.04,-0.06,1.06,0.98,0.61,0.37,904.66,25.56,
3135983,-0.06,-0.08,1.04,1.04,0.92,0.55,904.66,25.57,
3136022,-0.05,-0.07,1.05,0.61,0.67,0.55,904.66,25.58,
3136060,-0.06,-0.08,1.08,1.16,0.85,0.79,904.62,25.57,
3136098,-0.05,-0.08,1.04,0.85,1.46,0.85,904.72,25.57,
3136136,-0.05,-0.07,1.06,1.04,1.04,0.79,904.66,25.56,
3136175,-0.05,-0.07,1.07,0.67,2.08,0.98,904.68,25.57,
3136213,-0.07,-0.08,1.08,0.98,2.5,1.28,904.71,25.57,
3136251,-0.06,-0.08,1.09,0.79,3.54,1.22,904.75,25.58,
3136301,-0.07,-0.07,1.15,1.1,4.82,1.46,904.79,25.56,
3136339,-0.06,-0.07,1.17,1.34,5.25,1.71,904.75,25.57,
3136377,-0.06,-0.07,1.18,1.77,6.23,1.89,904.72,25.56,
3136416,-0.05,-0.07,1.18,2.01,6.9,1.89,904.78,25.56,
3136454,-0.05,-0.06,1.19,2.14,6.96,2.2,904.79,25.56,
3136492,-0.06,-0.07,1.16,2.69,7.02,2.5,904.83,25.56,
3136530,-0.05,-0.07,1.15,2.62,7.81,2.5,904.87,25.57,
3136568,-0.05,-0.07,1.17,2.87,7.81,2.62,904.87,25.58,
3136607,-0.05,-0.07,1.14,3.05,7.93,2.99,904.87,25.57,
3136645,-0.04,-0.07,1.16,3.17,7.69,3.05,904.85,25.57,
3136695,-0.04,-0.07,1.16,3.17,7.39,3.36,904.87,25.54,
3136733,-0.04,-0.07,1.16,3.23,6.59,3.48,904.9,25.57,
3136771,-0.04,-0.08,1.12,2.93,6.65,3.6,904.94,25.56,
3136810,-0.04,-0.07,1.1,2.87,5.55,3.85,904.86,25.57,
3136848,-0.03,-0.08,1.08,2.75,5.25,3.78,904.96,25.57,
3136886,-0.04,-0.06,1.12,2.62,4.27,3.97,904.95,25.56,
3136924,-0.02,-0.08,1.09,2.44,4.03,4.15,904.99,25.55,
3136962,-0.04,-0.09,1.02,2.44,3.42,4.03,904.97,25.57,
3137001,-0.03,-0.08,1.03,2.75,3.36,4.27,905.04,25.59,
3137039,-0.02,-0.08,0.94,2.32,2.81,4.09,904.99,25.57,
3137089,-0.03,-0.08,0.87,2.56,2.56,4.21,905.02,25.56,
3137127,-0.03,-0.08,0.89,2.44,2.93,4.27,905.01,25.57,
3137165,-0.02,-0.08,0.85,2.2,3.23,4.39,905.05,25.57,
3137203,-0.02,-0.07,0.9,2.01,2.26,4.39,905.04,25.56,
3137242,-0.03,-0.08,0.9,1.53,2.62,4.46,905.04,25.56,
3137280,-0.03,-0.09,0.92,1.4,2.81,4.52,905.08,25.57,
3137318,-0.01,-0.09,0.94,1.34,2.5,4.33,905.08,25.58,
3137356,-0.03,-0.08,0.91,0.79,2.26,4.39,905.09,25.57,
3137395,-0.02,-0.09,0.94,1.28,3.17,4.39,905.12,25.57,
3137444,-0.02,-0.08,0.87,0.73,3.78,4.21,905.11,25.56,
3137483,-0.01,-0.08,0.91,0.92,3.78,4.21,905.15,25.57,
3137521,0.0,-0.09,0.91,0.61,3.54,4.15,905.13,25.56,
3137559,-0.01,-0.09,0.93,0.79,3.36,3.91,905.19,25.57,
3137597,-0.02,-0.09,0.93,0.55,4.09,4.03,905.21,25.57,
3137636,0.0,-0.08,0.96,0.98,3.48,3.91,905.21,25.57,
3137674,0.0,-0.08,1.0,1.04,2.56,3.6,905.22,25.58,
3137712,-0.01,-0.08,1.04,0.79,2.93,3.48,905.28,25.57,
3137750,0.01,-0.09,1.1,0.98,3.11,3.48,905.26,25.57,
3137788,0.01,-0.08,1.13,1.1,2.69,3.23,905.27,25.57,
3137838,0.0,-0.08,1.15,1.1,1.77,3.3,905.24,25.54,
3137876,0.0,-0.08,1.13,0.98,1.65,2.93,905.35,25.55,
3137915,0.0,-0.1,1.09,1.22,1.4,2.99,905.33,25.57,
3137953,0.01,-0.09,1.01,1.4,1.22,2.69,905.37,25.57,
3137991,-0.0,-0.08,0.98,1.83,1.1,2.5,905.33,25.57,
3138029,0.02,-0.09,0.97,2.2,1.46,2.44,905.32,25.58,
3138067,0.01,-0.09,0.97,2.26,1.4,2.26,905.39,25.56,
3138106,-0.01,-0.1,1.01,2.08,1.22,1.95,905.37,25.57,
3138144,0.01,-0.08,1.05,1.95,2.01,1.77,905.42,25.58,
3138182,0.02,-0.08,1.14,1.83,1.83,1.77,905.37,25.58,
3138258,-0.0,-0.08,1.14,1.71,0.67,1.4,905.44,25.54,
3138296,-0.0,-0.1,1.1,1.65,2.01,1.22,905.41,25.55,
3138334,0.02,-0.09,1.1,1.71,1.71,1.16,905.45,25.56,
3138424,0.01,-0.09,1.08,1.95,1.77,0.61,905.46,25.53,
3138462,0.01,-0.1,1.05,1.83,2.26,0.61,905.39,25.53,
3138501,0.02,-0.1,1.02,1.65,1.77,0.55,905.46,25.54,
3138539,-0.02,-0.09,0.94,2.01,1.65,0.37,905.5,25.55,
3138577,0.01,-0.09,0.97,2.14,1.59,0.24,905.46,25.54,
3138615,-0.0,-0.11,0.84,2.08,2.38,0.18,905.44,25.55,
3138653,-0.0,-0.09,0.83,1.95,1.4,-0.06,905.47,25.55,
3138703,-0.01,-0.09,0.83,1.77,2.69,-0.18,905.49,25.55,
3138742,-0.02,-0.09,0.9,1.4,2.44,-0.24,905.53,25.55,
3138780,0.0,-0.09,0.94,1.53,2.62,-0.24,905.44,25.54,
3138818,-0.05,-0.1,0.92,1.04,2.26,-0.24,905.46,25.55,
3138856,-0.04,-0.09,1.01,1.22,2.56,-0.18,905.48,25.55,
3138894,-0.02,-0.09,0.97,0.43,2.75,-0.18,905.53,25.56,
3138933,-0.02,-0.08,1.0,0.98,2.62,-0.18,905.57,25.56,
3138971,-0.04,-0.1,0.96,0.67,3.6,-0.18,905.57,25.55,
3139009,-0.03,-0.09,1.0,1.1,3.36,-0.12,905.51,25.56,
3139059,-0.04,-0.09,0.98,0.92,4.58,-0.06,905.55,25.55,
3139097,-0.03,-0.08,1.04,1.04,4.03,-0.12,905.59,25.56,
3139135,-0.02,-0.09,1.04,0.98,4.58,-0.12,905.55,25.57,
3139174,-0.02,-0.09,1.07,0.67,4.09,-0.06,905.57,25.56,
3139212,-0.04,-0.09,1.08,1.04,4.27,0.0,905.56,25.57,
3139250,-0.04,-0.09,1.08,0.79,4.52,0.06,905.55,25.56,
3139288,-0.04,-0.08,1.15,1.1,3.85,0.06,905.66,25.56,
3139326,-0.05,-0.09,1.11,0.92,4.15,0.12,905.7,25.56,
3139364,-0.04,-0.09,1.13,1.34,3.72,0.18,905.65,25.56,
3139403,-0.03,-0.09,1.12,1.16,4.46,0.18,905.67,25.57,
3139453,-0.03,-0.08,1.13,1.65,3.78,0.37,905.72,25.55,
3139491,-0.05,-0.09,1.09,1.53,4.46,0.49,905.64,25.57,
3139529,-0.04,-0.09,1.09,1.4,4.21,0.49,905.69,25.57,
3139567,-0.05,-0.09,1.09,1.53,4.52,0.55,905.68,25.58,
3139605,-0.04,-0.09,1.07,1.4,4.39,0.61,905.68,25.57,
3139643,-0.03,-0.09,1.08,1.65,4.03,0.67,905.72,25.58,
3139682,-0.03,-0.09,1.06,1.53,4.27,0.79,905.73,25.57,
3139720,-0.03,-0.08,1.07,1.71,3.97,0.85,905.71,25.57,
3139758,-0.04,-0.09,1.07,1.77,4.58,0.85,905.7,25.57,
3139808,-0.04,-0.08,1.04,1.53,4.52,1.1,905.7,25.57,
3139846,-0.04,-0.09,1.05,1.4,4.76,0.98,905.72,25.56,
3139884,-0.04,-0.09,1.04,1.65,4.82,1.28,905.7,25.57,
3139922,-0.04,-0.08,1.06,1.65,4.52,1.4,905.71,25.57,
3139961,-0.05,-0.08,1.06,1.46,4.39,1.34,905.75,25.58,
3139999,-0.04,-0.09,1.03,1.53,4.88,1.53,905.8,25.58,
3140037,-0.04,-0.09,1.08,1.77,4.39,1.59,905.75,25.57,
3140075,-0.04,-0.09,1.07,1.77,4.15,1.65,905.71,25.57,
3140113,-0.05,-0.08,1.09,1.89,3.97,1.83,905.82,25.56,
3140152,-0.03,-0.09,1.07,1.71,4.27,1.95,905.85,25.57,
3140202,-0.04,-0.08,1.1,1.95,3.6,2.01,905.8,25.56,
3140240,-0.05,-0.09,1.06,1.59,3.48,2.26,905.81,25.56,
3140278,-0.05,-0.08,1.11,2.08,3.17,2.26,905.79,25.56,
3140316,-0.04,-0.09,1.11,1.71,4.21,2.32,905.79,25.57,
3140354,-0.03,-0.08,1.13,2.01,4.09,2.38,905.8,25.56,
3140393,-0.05,-0.09,1.11,1.83,4.46,2.62,905.82,25.57,
3140431,-0.04,-0.09,1.08,1.83,4.64,2.38,905.83,25.58,
3140469,-0.03,-0.09,1.07,1.89,4.64,2.56,905.85,25.57,
3140507,-0.04,-0.08,1.03,1.89,4.09,2.81,905.85,25.57,
3140545,-0.06,-0.09,1.06,2.2,4.27,2.75,905.86,25.57,
3140595,-0.04,-0.08,1.06,1.65,4.52,2.87,905.8,25.55,
3140633,-0.03,-0.09,1.11,2.14,3.85,2.87,905.83,25.56,
3140672,-0.04,-0.09,1.0,1.4,4.88,2.99,905.84,25.56,
3140710,-0.03,-0.08,1.05,1.95,3.6,3.23,905.87,25.57,
3140748,-0.03,-0.1,0.89,1.65,4.33,3.3,905.85,25.57,
3140786,-0.05,-0.08,0.91,1.53,2.44,3.17,905.86,25.57,
3140824,-0.04,-0.09,0.9,1.77,2.87,3.36,905.93,25.57,
3140863,-0.02,-0.08,0.92,0.98,2.26,3.36,905.84,25.56,
3140901,-0.02,-0.08,0.99,1.71,2.81,3.3,905.86,25.57,
3140951,-0.02,-0.08,1.04,1.1,2.2,3.54,905.86,25.56,
3140989,-0.03,-0.09,1.09,1.4,1.1,3.48,905.85,25.56,
3141027,-0.04,-0.09,1.04,0.92,1.22,3.54,905.9,25.57,
3141065,-0.05,-0.09,1.05,1.34,0.73,3.72,905.9,25.57,
3141104,-0.03,-0.1,0.96,0.85,1.83,3.78,906.0,25.56,
3141142,-0.04,-0.08,0.97,1.22,1.22,3.48,905.93,25.57,
3141180,-0.02,-0.08,1.01,1.71,2.69,3.72,905.96,25.57,
3141218,-0.02,-0.1,0.97,1.34,3.23,3.48,905.99,25.59,
3141256,-0.03,-0.09,1.05,1.95,3.17,3.6,905.97,25.57,
3141295,-0.01,-0.1,1.05,1.77,4.46,3.42,905.96,25.57,
3141370,-0.02,-0.08,1.05,1.89,4.33,3.11,906.0,25.54,
3141409,-0.01,-0.09,1.01,1.83,4.76,3.17,906.02,25.56,
3141447,-0.01,-0.08,0.99,1.83,4.7,2.93,906.0,25.56,
3141537,-0.01,-0.09,0.96,2.2,4.82,3.05,905.99,25.53,
3141575,0.0,-0.09,0.94,2.08,5.13,2.62,906.04,25.54,
3141613,-0.0,-0.09,0.93,1.89,4.58,2.5,906.05,25.54,
3141651,-0.0,-0.08,0.9,1.71,4.09,2.75,906.03,25.56,
3141689,-0.01,-0.09,0.89,1.4,3.85,2.26,905.99,25.56,
3141727,-0.0,-0.08,0.91,1.34,3.54,2.08,906.02,25.56,
3141766,0.0,-0.08,0.91,1.1,2.62,2.2,906.04,25.56,
3141816,-0.01,-0.09,0.88,0.98,2.01,1.77,906.02,25.55,
3141854,0.0,-0.08,0.88,1.04,1.22,1.65,906.04,25.55,
3141892,-0.0,-0.09,0.9,1.1,0.98,1.59,905.99,25.55,
3141930,0.0,-0.09,0.87,1.1,0.0,1.53,906.04,25.55,
3141968,-0.0,-0.08,0.92,1.4,-0.43,1.28,906.04,25.56,
3142006,-0.0,-0.09,0.91,1.22,-0.12,1.34,905.97,25.54,
3142045,0.01,-0.09,0.95,1.46,-1.1,1.22,906.04,25.56,
3142083,-0.0,-0.09,0.97,1.4,-0.92,0.85,906.02,25.56,
3142121,-0.01,-0.09,0.99,1.46,-1.16,0.85,905.99,25.56,
3142171,-0.01,-0.08,1.06,1.65,-1.04,0.73,906.08,25.56,
3142209,-0.0,-0.08,1.07,1.53,-0.79,0.61,906.12,25.56,
3142247,-0.0,-0.08,1.1,1.89,-1.04,0.37,906.11,25.55,
3142286,0.0,-0.08,1.11,2.14,-0.55,0.31,906.18,25.56,
3142324,-0.01,-0.08,1.1,2.44,0.0,0.18,906.12,25.56,
3142362,-0.0,-0.08,1.07,2.75,-0.18,0.06,906.13,25.56,
3142400,0.0,-0.08,1.07,3.11,-0.43,-0.06,906.1,25.56,
3142438,-0.01,-0.08,1.04,2.87,0.12,0.0,906.21,25.57,
3142476,-0.01,-0.08,1.01,3.36,0.55,-0.18,906.12,25.57,
3142514,-0.01,-0.09,0.98,3.3,0.12,-0.37,906.1,25.57,
3142564,-0.02,-0.09,0.96,3.36,0.37,-0.24,906.14,25.56,
3142602,-0.01,-0.09,0.96,2.99,0.18,-0.49,906.13,25.56,
3142641,-0.01,-0.08,0.94,2.93,0.49,-0.61,906.09,25.57,
3142679,-0.02,-0.08,0.91,2.93,0.55,-0.67,906.14,25.57,
3142717,-0.02,-0.09,0.9,2.93,0.79,-0.79,906.13,25.57,
3142755,-0.01,-0.08,0.94,2.69,0.61,-0.85,906.14,25.56,
3142793,-0.02,-0.08,0.91,2.69,0.98,-0.73,906.11,25.57,
3142832,-0.03,-0.08,0.91,2.5,1.16,-0.92,906.17,25.57,
3142870,-0.03,-0.09,0.94,2.75,1.22,-0.85,906.12,25.56,
3142920,-0.03,-0.09,0.92,2.5,1.1,-0.98,906.19,25.54,
3142958,-0.03,-0.08,0.93,2.32,1.34,-0.79,906.18,25.56,
3142996,-0.03,-0.08,0.92,2.56,1.83,-0.92,906.14,25.56,
3143034,-0.04,-0.09,0.91,2.44,2.14,-0.85,906.11,25.56,
3143072,-0.05,-0.08,0.92,2.14,2.26,-0.73,906.16,25.56,
3143110,-0.05,-0.09,0.94,2.5,2.5,-0.61,906.17,25.57,
3143149,-0.04,-0.09,0.95,2.01,3.11,-0.55,906.16,25.55,
3143187,-0.05,-0.09,0.97,2.32,2.69,-0.43,906.23,25.57,
3143225,-0.04,-0.08,0.99,2.01,3.36,-0.37,906.2,25.57,
3143263,-0.05,-0.08,0.99,2.26,3.42,-0.18,906.22,25.58,
3143313,-0.05,-0.09,0.98,2.26,3.6,-0.24,906.16,25.56,
3143351,-0.05,-0.08,1.01,2.38,3.97,0.0,906.19,25.56,
3143389,-0.04,-0.08,1.0,2.01,4.33,0.0,906.18,25.56,
3143427,-0.04,-0.07,1.04,2.2,3.66,-0.06,906.22,25.57,
3143466,-0.05,-0.09,1.01,2.2,4.46,0.31,906.26,25.57,
3143504,-0.05,-0.08,1.09,2.2,3.97,0.37,906.23,25.56,
3143542,-0.05,-0.08,1.06,1.95,4.76,0.55,906.23,25.56,
3143580,-0.05,-0.08,1.09,2.5,3.85,0.61,906.2,25.56,
3143618,-0.05,-0.09,1.07,2.75,3.91,0.79,906.28,25.57,
3143657,-0.04,-0.08,1.05,2.75,3.48,0.79,906.27,25.57,
3143707,-0.04,-0.08,1.03,2.87,3.3,1.34,906.33,25.56,
3143745,-0.05,-0.08,1.0,2.87,2.26,1.46,906.3,25.57,
3143783,-0.05,-0.08,0.98,2.99,2.38,1.53,906.27,25.56,
3143821,-0.05,-0.08,0.96,2.75,2.14,1.83,906.27,25.58,
3143859,-0.04,-0.08,0.97,2.81,1.16,1.89,906.29,25.56,
3143897,-0.04,-0.08,0.94,2.69,1.46,1.89,906.31,25.57,
3143936,-0.04,-0.08,0.9,2.75,1.83,2.01,906.28,25.57,
3143974,-0.05,-0.09,0.87,2.62,2.62,2.32,906.26,25.57,
3144012,-0.05,-0.08,0.86,2.69,2.56,2.5,906.29,25.56,
3144062,-0.05,-0.08,0.85,2.62,2.75,2.62,906.26,25.56,
3144100,-0.05,-0.08,0.86,2.56,2.75,2.56,906.26,25.56,
3144138,-0.04,-0.08,0.85,2.32,3.36,2.87,906.38,25.57,
3144177,-0.04,-0.08,0.87,2.2,2.93,2.87,906.33,25.56,
3144215,-0.06,-0.09,0.85,2.08,3.17,3.23,906.33,25.56,
3144253,-0.04,-0.08,0.85,1.77,2.75,3.36,906.35,25.56,
3144291,-0.04,-0.08,0.85,1.46,2.62,3.36,906.39,25.57,
3144329,-0.05,-0.09,0.84,1.59,2.26,3.66,906.36,25.56,
3144368,-0.04,-0.08,0.82,1.4,1.89,3.6,906.39,25.56,
3144406,-0.03,-0.08,0.85,1.34,1.65,3.85,906.37,25.56,
3144482,-0.04,-0.09,0.87,1.34,1.28,4.27,906.38,25.53,
3144520,-0.04,-0.08,0.87,1.28,1.83,4.21,906.37,25.53,
3144558,-0.03,-0.08,0.88,1.4,1.4,4.33,906.4,25.55,
3144648,-0.02,-0.08,0.85,1.22,1.59,4.46,906.46,25.51,
3144686,-0.04,-0.08,0.85,1.28,1.59,4.76,906.49,25.53,
3144724,-0.03,-0.08,0.83,1.22,1.28,4.76,906.45,25.54,
3144762,-0.03,-0.09,0.85,1.22,1.1,4.76,906.51,25.53,
3144801,-0.02,-0.09,0.86,1.22,1.22,4.64,906.5,25.54,
3144839,-0.02,-0.09,0.87,1.46,0.73,4.7,906.58,25.54,
3144889,-0.03,-0.08,0.88,1.53,1.1,4.88,906.49,25.53,
3144927,-0.02,-0.08,0.89,1.46,0.85,4.76,906.51,25.53,
3144965,-0.02,-0.09,0.89,1.65,1.28,4.7,906.55,25.53,
3145003,-0.02,-0.09,0.88,1.71,1.71,4.76,906.55,25.54,
3145042,-0.01,-0.08,0.86,1.77,2.14,4.88,906.59,25.54,
3145080,-0.0,-0.08,0.87,1.59,2.08,4.76,906.67,25.54,
3145118,-0.02,-0.09,0.85,1.65,2.01,4.7,906.62,25.56,
3145156,-0.01,-0.09,0.83,1.46,2.44,4.64,906.6,25.54,
3145194,-0.0,-0.09,0.85,1.46,2.2,4.64,906.6,25.53,
3145233,-0.01,-0.08,0.84,1.34,2.38,4.58,906.65,25.54,
3145283,-0.0,-0.08,0.82,1.59,2.44,4.58,906.66,25.53,
3145321,-0.01,-0.08,0.84,1.46,2.5,4.27,906.66,25.54,
3145359,-0.0,-0.09,0.83,1.59,2.26,4.39,906.69,25.54,
3145397,-0.01,-0.09,0.81,1.59,2.01,4.27,906.7,25.54,
3145435,-0.01,-0.08,0.82,1.59,2.62,4.33,906.76,25.53,
3145474,0.0,-0.09,0.82,1.59,2.5,4.09,906.74,25.54,
3145512,0.0,-0.09,0.81,1.59,2.38,4.03,906.73,25.54,
3145550,-0.01,-0.08,0.79,1.59,2.38,3.91,906.8,25.54,
3145588,-0.0,-0.09,0.79,1.77,2.75,3.72,906.8,25.53,
3145626,-0.01,-0.09,0.8,1.83,3.23,3.66,906.72,25.53,
3145676,-0.02,-0.09,0.82,1.77,3.85,3.6,906.76,25.52,
3145714,-0.02,-0.09,0.82,1.53,4.21,3.6,906.81,25.52,
3145753,-0.02,-0.08,0.85,1.4,5.07,3.42,906.84,25.53,
3145791,-0.02,-0.08,0.9,1.4,5.07,3.66,906.85,25.54,
3145829,-0.01,-0.09,0.89,1.4,5.25,3.6,906.84,25.54,
3145867,-0.02,-0.08,0.92,1.34,5.49,3.6,906.84,25.52,
3145906,-0.01,-0.08,0.93,1.53,5.92,3.6,906.83,25.54,
3145944,-0.02,-0.08,0.94,1.95,5.31,3.6,906.88,25.53,
3145982,-0.02,-0.08,0.93,1.83,5.43,3.48,906.92,25.53,
3146020,-0.01,-0.09,0.98,2.08,5.92,3.48,906.95,25.54,
3146070,-0.0,-0.09,1.02,2.26,5.55,3.6,906.99,25.54,
3146108,-0.02,-0.08,1.05,2.2,5.55,3.3,907.0,25.53,
3146147,-0.01,-0.07,1.11,2.2,5.62,3.6,906.96,25.53,
3146185,-0.02,-0.09,1.1,1.89,5.55,3.48,906.99,25.54,
3146223,-0.01,-0.08,1.17,2.08,4.15,3.48,907.01,25.55,
3146261,0.0,-0.08,1.23,2.14,4.03,3.48,907.11,25.55,
3146299,-0.02,-0.09,1.21,1.77,4.15,3.54,907.08,25.55,
3146337,-0.0,-0.07,1.25,2.32,3.66,3.36,907.13,25.55,
3146376,-0.01,-0.08,1.2,2.32,4.03,3.17,907.12,25.55,
3146426,-0.01,-0.08,1.2,2.5,4.39,3.05,907.17,25.54,
3146464,-0.01,-0.09,1.16,2.44,5.74,2.81,907.13,25.55,
3146502,-0.01,-0.09,1.09,2.32,6.04,2.81,907.1,25.54,
3146540,-0.01,-0.08,1.07,2.56,6.41,2.62,907.14,25.54,
3146578,0.0,-0.09,1.01,2.44,7.14,2.62,907.17,25.54,
3146616,0.01,-0.08,1.04,2.26,6.35,2.32,907.17,25.53,
3146655,-0.01,-0.09,0.98,1.83,7.08,2.32,907.16,25.55,
3146693,0.0,-0.09,1.06,1.89,6.41,2.14,907.2,25.54,
3146731,0.02,-0.1,1.03,1.22,6.59,2.2,907.23,25.55,
3146769,0.0,-0.08,1.11,1.53,4.64,2.14,907.22,25.54,
3146819,0.01,-0.08,1.06,0.79,4.64,2.14,907.26,25.54,
3146858,0.02,-0.09,1.14,1.34,2.75,1.89,907.29,25.54,
3146896,0.01,-0.09,1.05,0.61,2.2,1.83,907.3,25.54,
3146934,-0.01,-0.08,1.1,0.85,0.73,1.65,907.29,25.56,
3146972,0.01,-0.08,1.06,0.49,1.1,1.28,907.31,25.55,
3147010,0.02,-0.08,1.12,0.49,-0.73,1.1,907.33,25.54,
3147049,-0.02,-0.08,1.11,0.73,-0.79,1.1,907.34,25.55,
3147087,-0.0,-0.08,1.12,0.79,-0.85,0.85,907.33,25.55,
3147125,-0.0,-0.08,1.16,1.16,-1.16,0.85,907.34,25.56,
3147163,0.0,-0.08,1.15,1.22,-1.22,0.67,907.35,25.56,
3147213,-0.01,-0.08,1.18,1.71,-1.16,0.61,907.39,25.55,
3147251,-0.02,-0.08,1.13,1.83,-0.55,0.43,907.38,25.55,
3147290,-0.01,-0.08,1.13,2.38,-1.04,0.43,907.41,25.55,
3147328,-0.02,-0.08,1.09,2.38,-0.73,0.37,907.42,25.55,
3147366,-0.02,-0.08,1.07,2.81,-1.04,0.24,907.38,25.54,
3147404,-0.02,-0.08,1.04,2.69,-0.43,0.24,907.41,25.56,
3147443,-0.03,-0.09,1.01,2.75,0.06,0.12,907.41,25.55,
3147481,-0.04,-0.08,1.02,2.75,0.43,0.31,907.41,25.55,
3147519,-0.04,-0.08,1.03,2.75,1.22,0.12,907.43,25.56,
3147596,-0.04,-0.07,1.03,1.95,2.32,0.18,907.38,25.53,
3147634,-0.03,-0.08,1.05,1.71,2.32,0.37,907.4,25.53,
3147673,-0.05,-0.08,1.02,1.16,2.62,0.43,907.44,25.53,
3147763,-0.02,-0.08,1.06,0.49,2.38,0.61,907.47,25.51,
3147801,-0.04,-0.08,1.05,0.24,2.2,0.61,907.59,25.54,
3147839,-0.05,-0.07,1.06,-0.18,1.95,0.98,907.5,25.53,
3147878,-0.03,-0.06,1.12,0.06,1.77,1.1,907.5,25.52,
3147916,-0.04,-0.08,1.07,-0.06,2.38,1.28,907.55,25.53,
3147954,-0.03,-0.08,1.1,0.18,2.26,1.22,907.53,25.53,
3147992,-0.04,-0.08,1.12,0.24,3.36,1.28,907.53,25.54,
3148042,-0.03,-0.07,1.2,0.92,2.56,1.83,907.6,25.52,
3148081,-0.05,-0.08,1.19,1.28,3.78,1.53,907.55,25.52,
3148119,-0.04,-0.08,1.17,1.77,4.46,1.77,907.59,25.54,
3148157,-0.01,-0.07,1.2,2.14,4.88,1.71,907.66,25.56,
3148195,-0.02,-0.07,1.1,2.08,4.46,1.83,907.56,25.52,
3148233,-0.04,-0.06,1.14,2.93,4.21,1.89,907.61,25.53,
3148272,0.01,-0.09,1.12,2.56,6.04,1.83,907.61,25.54,
3148310,-0.0,-0.08,1.12,2.99,5.86,1.89,907.65,25.55,
3148348,-0.02,-0.09,1.05,2.99,6.16,1.95,907.6,25.54,
3148398,-0.02,-0.08,1.06,2.99,5.74,1.83,907.66,25.55,
3148436,-0.02,-0.09,1.04,3.3,7.08,1.89,907.6,25.54,
3148474,-0.0,-0.09,1.03,3.05,5.55,2.08,907.66,25.55,
3148513,-0.01,-0.09,1.01,2.87,5.62,2.01,907.65,25.55,
3148551,-0.01,-0.08,1.01,2.75,5.43,1.95,907.69,25.56,
3148589,-0.01,-0.08,1.0,2.69,5.43,2.08,907.65,25.56,
3148627,-0.01,-0.09,1.02,2.62,5.13,2.08,907.66,25.55,
3148665,-0.02,-0.09,1.0,2.56,6.16,1.95,907.72,25.55,
3148704,-0.02,-0.08,0.99,2.62,7.02,1.77,907.66,25.55,
3148742,-0.01,-0.09,0.99,2.5,6.96,1.77,907.72,25.55,
3148792,-0.02,-0.09,1.0,2.5,6.71,1.65,907.72,25.53,
3148830,-0.01,-0.09,1.0,2.08,6.53,1.59,907.73,25.54,
3148868,-0.0,-0.08,1.01,2.08,6.96,1.53,907.74,25.56,
3148906,-0.01,-0.09,0.97,1.83,7.57,1.65,907.73,25.54,
3148945,-0.02,-0.08,0.96,1.95,6.96,1.4,907.73,25.56,
3148983,-0.01,-0.09,0.97,1.77,7.2,1.28,907.69,25.55,
3149021,-0.0,-0.09,0.98,1.77,6.59,1.16,907.74,25.57,
3149059,0.0,-0.09,0.94,1.83,5.98,1.46,907.78,25.56,
3149098,-0.02,-0.09,0.94,1.89,5.74,1.16,907.71,25.55,
3149136,-0.0,-0.08,0.98,2.26,5.49,1.1,907.75,25.56,
3149186,0.0,-0.09,0.95,2.01,5.25,1.04,907.75,25.54,
3149224,-0.01,-0.09,0.99,2.14,4.82,0.92,907.73,25.54,
3149262,-0.01,-0.09,0.93,1.65,5.13,0.79,907.8,25.56,
3149300,0.01,-0.07,0.98,1.77,4.76,0.49,907.78,25.55,
3149338,-0.0,-0.09,0.93,1.22,5.31,0.55,907.81,25.55,
3149377,-0.02,-0.09,0.94,1.46,4.21,0.61,907.78,25.56,
3149415,-0.0,-0.1,0.95,1.22,4.52,0.37,907.76,25.54,
3149453,-0.01,-0.09,0.96,1.22,3.54,0.43,907.77,25.55,
3149491,-0.02,-0.09,0.99,1.4,4.03,0.49,907.79,25.55,
3149530,-0.01,-0.1,0.98,0.98,4.15,0.18,907.85,25.55,
3149579,-0.02,-0.08,1.03,1.22,4.27,0.24,907.74,25.54,
3149618,-0.01,-0.09,1.0,1.16,4.52,0.12,907.83,25.56,
3149656,-0.01,-0.08,1.02,1.22,3.72,0.0,907.8,25.55,
3149694,-0.01,-0.08,1.04,1.1,4.15,0.06,907.81,25.56,
3149732,-0.02,-0.1,1.0,1.22,4.58,0.0,907.83,25.56,
3149770,0.0,-0.09,1.03,1.4,3.78,-0.12,907.85,25.56,
3149809,-0.0,-0.08,1.02,1.1,3.48,-0.31,907.83,25.55,
3149847,-0.03,-0.08,1.0,1.28,3.66,-0.31,907.83,25.56,
3149885,-0.01,-0.08,1.03,1.16,3.48,-0.37,907.85,25.56,
3149935,-0.02,-0.09,1.05,1.34,3.05,-0.31,907.88,25.55,
3149973,-0.03,-0.09,1.05,1.04,2.01,-0.43,907.87,25.55,
3150011,-0.02,-0.08,1.09,1.22,1.77,-0.55,907.83,25.55,
3150050,-0.02,-0.08,1.06,1.22,1.89,-0.55,907.87,25.56,
3150088,-0.03,-0.09,1.05,1.28,1.53,-0.49,907.86,25.56,
3150126,-0.02,-0.09,1.04,1.1,1.77,-0.43,907.85,25.56,
3150164,-0.02,-0.08,1.05,1.34,1.16,-0.55,907.85,25.55,
3150203,-0.04,-0.08,1.04,1.22,1.46,-0.49,907.88,25.56,
3150241,-0.04,-0.08,1.03,1.34,1.04,-0.37,907.89,25.55,
3150279,-0.03,-0.08,1.06,1.46,1.65,-0.55,907.91,25.56,
3150329,-0.04,-0.08,1.04,1.34,1.77,-0.55,907.86,25.55,
3150367,-0.03,-0.08,1.07,1.28,1.83,-0.73,907.89,25.55,
3150405,-0.04,-0.08,1.05,1.22,2.62,-0.61,907.96,25.56,
3150443,-0.04,-0.08,1.06,1.34,2.5,-0.49,907.92,25.56,
3150482,-0.04,-0.08,1.06,1.22,3.36,-0.61,907.99,25.56,
3150520,-0.03,-0.08,1.06,1.34,3.17,-0.61,907.98,25.57,
3150558,-0.04,-0.08,1.05,1.34,3.23,-0.43,907.9,25.55,
3150596,-0.03,-0.08,1.04,1.59,3.17,-0.73,907.92,25.56,
3150635,-0.05,-0.08,1.03,1.53,3.05,-0.61,907.9,25.57,
3150711,-0.04,-0.08,1.03,1.77,2.56,-0.43,907.93,25.54,
3150749,-0.03,-0.07,1.05,2.08,1.89,-0.43,907.95,25.55,
3150787,-0.03,-0.09,1.02,1.71,2.14,-0.55,907.95,25.54,
3150877,-0.03,-0.09,1.0,1.65,1.77,-0.18,907.94,25.52,
3150915,-0.05,-0.07,1.02,2.14,0.85,-0.37,907.88,25.53,
3150953,-0.04,-0.09,0.98,1.83,2.44,-0.24,907.85,25.52,
3150991,-0.04,-0.08,0.98,2.01,1.53,-0.31,907.93,25.54,
3151029,-0.04,-0.08,0.97,2.01,1.65,-0.18,907.93,25.54,
3151068,-0.05,-0.07,0.95,1.89,0.92,0.06,907.92,25.54,
3151106,-0.06,-0.08,0.99,2.32,0.61,-0.06,907.94,25.54,
3151156,-0.05,-0.08,0.93,1.95,0.61,0.06,907.95,25.53,
3151194,-0.06,-0.08,0.96,2.69,0.43,0.18,907.94,25.54,
3151232,-0.06,-0.09,0.91,2.01,1.04,0.18,907.95,25.54,
3151270,-0.06,-0.07,0.97,2.81,0.67,0.31,907.94,25.54,
3151309,-0.06,-0.08,0.92,2.62,1.89,0.43,907.94,25.55,
3151347,-0.07,-0.08,0.91,2.38,1.22,0.61,907.91,25.54,
3151385,-0.07,-0.08,0.91,2.32,2.14,0.61,907.92,25.55,
3151423,-0.07,-0.08,0.88,2.2,2.81,0.85,907.92,25.54,
3151462,-0.06,-0.07,0.9,2.26,2.81,0.92,907.93,25.54,
3151511,-0.06,-0.08,0.9,1.83,3.36,1.1,907.93,25.53,
3151550,-0.06,-0.08,0.93,2.44,3.72,1.53,907.96,25.55,
3151588,-0.05,-0.08,0.92,1.83,3.97,1.53,908.0,25.55,
3151626,-0.06,-0.07,0.96,2.38,3.42,1.59,907.99,25.55,
3151664,-0.06,-0.07,0.96,2.01,4.27,1.83,907.96,25.54,
3151703,-0.06,-0.07,0.99,2.26,4.64,1.77,907.99,25.55,
3151741,-0.04,-0.08,1.05,2.38,4.27,2.08,907.99,25.54,
3151779,-0.06,-0.07,1.06,2.32,3.97,2.38,908.02,25.56,
3151817,-0.06,-0.07,1.04,2.26,4.15,2.69,907.99,25.54,
3151855,-0.05,-0.07,1.05,2.32,4.52,2.56,908.0,25.55,
3151905,-0.05,-0.08,0.99,2.44,4.03,2.99,908.07,25.54,
3151944,-0.05,-0.07,1.01,2.99,3.6,3.17,908.04,25.54,
3151982,-0.04,-0.08,0.94,2.56,4.39,3.23,908.02,25.53,
3152020,-0.04,-0.07,0.98,2.81,3.91,2.93,908.08,25.55,
3152058,-0.03,-0.08,0.95,2.75,4.58,3.05,908.08,25.54,
3152096,-0.04,-0.08,0.96,2.69,4.09,3.23,908.04,25.54,
3152135,-0.03,-0.08,0.98,3.11,4.46,3.48,908.1,25.55,
3152173,-0.04,-0.08,0.97,2.75,4.09,3.3,908.09,25.55,
3152211,-0.03,-0.08,0.98,3.23,3.66,3.48,908.11,25.54,
3152249,-0.04,-0.08,0.95,2.93,3.42,3.48,908.11,25.54,
3152299,-0.04,-0.07,0.96,3.05,3.05,3.42,908.14,25.55,
3152337,-0.03,-0.08,0.93,2.81,2.81,3.48,908.11,25.54,
3152376,-0.03,-0.08,0.97,2.93,2.56,3.6,908.12,25.54,
3152414,-0.02,-0.08,0.96,2.32,2.87,3.54,908.23,25.55,
3152452,-0.03,-0.08,0.98,2.5,2.56,3.66,908.15,25.54,
3152490,-0.02,-0.08,0.98,2.26,2.69,3.72,908.15,25.57,
3152529,-0.02,-0.08,0.99,2.2,1.89,3.66,908.18,25.56,
3152567,-0.02,-0.09,1.0,2.2,1.59,3.6,908.15,25.55,
3152605,-0.01,-0.08,0.98,1.83,1.16,3.6,908.2,25.56,
3152655,-0.02,-0.08,1.0,1.65,0.73,3.48,908.17,25.54,
3152693,-0.03,-0.08,1.04,1.89,0.37,3.54,908.19,25.56,
3152731,-0.02,-0.09,1.06,1.65,0.0,3.36,908.21,25.56,
3152770,-0.01,-0.08,1.08,1.65,-0.12,3.3,908.21,25.56,
3152808,-0.03,-0.08,1.07,1.71,0.24,3.36,908.22,25.55,
3152846,-0.02,-0.08,1.07,1.77,0.43,3.11,908.22,25.54,
3152884,-0.02,-0.08,1.09,2.01,0.43,3.11,908.26,25.56,
3152923,-0.02,-0.08,1.06,1.83,0.73,3.05,908.27,25.56,
3152961,-0.03,-0.08,1.09,2.14,0.98,2.87,908.25,25.55,
3152999,-0.01,-0.08,1.05,1.95,2.01,2.69,908.28,25.56,
3153049,-0.02,-0.08,1.07,2.44,1.46,2.56,908.23,25.54,
3153087,-0.01,-0.09,1.03,2.08,2.32,2.5,908.26,25.55,
3153125,-0.0,-0.08,1.05,2.32,2.32,2.32,908.24,25.54,
3153164,-0.02,-0.08,1.01,2.14,2.14,2.38,908.28,25.56,
3153202,-0.02,-0.08,0.99,2.38,1.77,2.26,908.27,25.55,
3153240,-0.01,-0.09,0.99,1.95,1.89,2.14,908.24,25.55,
3153278,-0.0,-0.09,0.97,1.83,2.69,2.01,908.28,25.53,
3153316,-0.0,-0.09,0.96,1.71,2.62,1.65,908.25,25.56,
3153355,-0.01,-0.08,1.0,1.95,2.08,1.71,908.3,25.56,
3153393,0.0,-0.09,0.98,1.71,2.38,1.65,908.25,25.55,
3153443,-0.0,-0.09,1.0,1.95,2.32,1.34,908.3,25.54,
3153481,0.0,-0.09,1.0,2.14,2.87,1.34,908.27,25.54,
3153519,-0.01,-0.09,0.97,1.95,2.81,1.04,908.33,25.55,
3153557,-0.0,-0.09,0.96,2.26,3.23,0.98,908.25,25.56,
3153595,-0.0,-0.09,0.95,2.38,3.36,0.61,908.34,25.56,
3153634,-0.02,-0.09,0.9,2.2,3.6,0.67,908.31,25.56,
3153672,-0.01,-0.08,0.94,2.32,4.03,0.49,908.3,25.55,
3153710,-0.01,-0.09,0.89,2.08,4.82,0.43,908.31,25.55,
3153748,-0.02,-0.08,0.91,1.95,4.09,0.49,908.32,25.57,
3153824,-0.02,-0.08,0.92,1.71,5.55,0.43,908.35,25.53,
3153862,-0.01,-0.08,0.99,2.08,5.49,0.18,908.33,25.54,
3153900,-0.0,-0.08,0.96,1.22,5.0,0.31,908.27,25.54,
3153990,-0.01,-0.08,0.95,1.16,5.13,0.18,908.31,25.5,
3154028,-0.01,-0.08,1.0,1.59,4.03,0.37,908.34,25.52,
3154066,-0.03,-0.08,0.98,1.16,4.09,0.18,908.43,25.52,
3154105,-0.03,-0.09,0.96,1.59,3.91,0.12,908.35,25.53,
3154143,-0.02,-0.09,0.99,1.46,4.09,0.18,908.34,25.53,
3154181,-0.02,-0.09,1.0,1.65,3.54,0.24,908.38,25.54,
3154219,-0.03,-0.09,1.01,1.46,3.6,0.24,908.37,25.54,
3154269,-0.03,-0.08,1.02,1.71,3.36,0.18,908.4,25.54,
3154307,-0.03,-0.08,1.02,1.71,3.6,0.24,908.33,25.53,
3154346,-0.02,-0.09,1.0,1.59,3.66,0.18,908.38,25.53,
3154384,-0.02,-0.08,1.01,1.77,3.97,0.24,908.37,25.53,
3154422,-0.03,-0.09,1.0,1.59,3.78,0.24,908.38,25.54,
3154460,-0.02,-0.08,1.03,1.71,3.36,0.43,908.41,25.55,
3154499,-0.03,-0.09,1.02,1.4,3.42,0.37,908.41,25.54,
3154537,-0.03,-0.08,1.09,1.71,2.87,0.24,908.3,25.54,
3154575,-0.03,-0.09,1.07,1.53,2.93,0.24,908.37,25.56,
3154613,-0.03,-0.08,1.13,1.53,2.26,0.24,908.35,25.53,
3154663,-0.03,-0.09,1.08,1.4,3.42,0.37,908.42,25.54,
3154701,-0.03,-0.08,1.09,1.59,3.42,0.18,908.41,25.54,
3154739,-0.03,-0.09,1.07,1.53,3.66,0.37,908.37,25.54,
3154778,-0.03,-0.09,1.07,1.83,3.54,0.31,908.4,25.55,
3154816,-0.03,-0.09,1.03,1.59,3.72,0.18,908.37,25.56,
3154854,-0.04,-0.09,1.05,1.46,3.54,0.43,908.46,25.54,
3154892,-0.04,-0.08,1.02,1.65,3.78,0.49,908.39,25.56,
3154930,-0.03,-0.09,0.99,1.77,3.36,0.43,908.45,25.55,
3154969,-0.03,-0.1,0.96,1.71,3.11,0.49,908.42,25.56,
3155019,-0.03,-0.09,0.96,1.34,2.08,0.67,908.4,25.53,
3155057,-0.02,-0.09,0.94,0.85,1.59,0.55,908.42,25.54,
3155095,-0.02,-0.08,0.94,0.79,1.65,0.61,908.42,25.54,
3155133,-0.03,-0.09,0.94,0.73,1.53,0.73,908.36,25.53,
3155171,-0.04,-0.1,0.92,1.22,2.08,0.73,908.38,25.53,
3155209,-0.02,-0.09,0.94,1.1,1.77,0.49,908.45,25.54,
3155248,-0.02,-0.09,0.94,0.98,1.83,0.55,908.45,25.56,
3155286,-0.01,-0.09,0.93,0.92,1.83,0.61,908.45,25.54,
3155324,-0.03,-0.1,0.91,0.98,2.26,0.49,908.46,25.55,
3155362,-0.03,-0.09,0.92,0.85,2.5,0.67,908.41,25.54,
3155412,-0.02,-0.08,0.94,0.67,2.32,0.55,908.43,25.54,
3155450,-0.03,-0.09,0.95,0.67,2.5,0.61,908.44,25.56,
3155488,-0.03,-0.09,0.98,0.73,2.99,0.43,908.49,25.55,
3155527,-0.02,-0.09,1.0,0.73,3.48,0.55,908.51,25.56,
3155565,-0.02,-0.09,1.03,0.85,3.91,0.49,908.46,25.54,
3155603,-0.04,-0.09,1.04,0.79,4.03,0.49,908.5,25.56,
3155641,-0.03,-0.09,1.05,1.04,4.15,0.43,908.43,25.55,
3155679,-0.03,-0.09,1.05,0.85,4.46,0.49,908.41,25.55,
3155718,-0.03,-0.09,1.05,0.98,4.52,0.49,908.52,25.53,
3155756,-0.03,-0.08,1.04,0.92,4.39,0.43,908.49,25.55,
3155806,-0.05,-0.09,1.02,1.22,5.0,0.55,908.45,25.53,
3155844,-0.03,-0.09,1.02,1.34,5.07,0.55,908.45,25.54,
3155882,-0.04,-0.08,1.04,1.4,4.82,0.55,908.5,25.55,
3155920,-0.04,-0.08,1.04,1.46,5.37,0.61,908.53,25.55,
3155958,-0.05,-0.09,1.0,1.34,6.1,0.49,908.51,25.56,
3155996,-0.04,-0.08,1.04,1.34,5.98,0.49,908.49,25.55,
3156035,-0.03,-0.08,1.07,1.4,6.1,0.43,908.46,25.55,
3156073,-0.02,-0.08,1.06,0.92,5.8,0.49,908.47,25.54,
3156111,-0.04,-0.09,1.07,1.22,5.62,0.55,908.49,25.55,
3156161,-0.05,-0.09,1.05,0.85,5.92,0.61,908.5,25.53,
3156199,-0.02,-0.08,1.11,0.73,4.64,0.61,908.52,25.54,
3156237,-0.05,-0.09,1.11,0.37,4.39,0.85,908.52,25.54,
3156276,-0.04,-0.08,1.13,0.49,4.58,1.1,908.48,25.55,
3156314,-0.05,-0.09,1.11,0.06,4.33,0.92,908.51,25.55,
3156352,-0.04,-0.08,1.17,0.37,4.33,0.92,908.55,25.55,
3156390,-0.04,-0.09,1.17,0.24,4.82,0.92,908.52,25.54,
3156428,-0.05,-0.07,1.16,0.73,4.82,0.92,908.59,25.55,
3156467,-0.05,-0.08,1.12,1.04,5.55,1.28,908.54,25.55,
3156505,-0.04,-0.08,1.1,0.98,5.74,1.04,908.48,25.56,
3156555,-0.03,-0.08,1.1,1.1,6.23,1.16,908.53,25.54,
3156593,-0.04,-0.08,1.09,1.1,5.92,1.22,908.55,25.55,
3156631,-0.04,-0.08,1.1,1.16,5.74,1.34,908.57,25.55,
3156669,-0.02,-0.08,1.1,1.28,6.16,1.16,908.58,25.55,
3156708,-0.03,-0.09,1.07,1.71,5.74,1.28,908.56,25.55,
3156746,-0.03,-0.08,1.05,1.46,4.64,1.65,908.59,25.54,
3156784,-0.03,-0.08,1.04,1.46,4.82,1.34,908.55,25.55,
3156822,-0.02,-0.08,1.05,1.77,4.46,1.28,908.52,25.55,
3156861,-0.02,-0.08,1.11,1.71,3.78,1.34,908.5,25.55,
3156936,-0.03,-0.08,1.12,1.65,4.27,1.16,908.6,25.52,
3156975,-0.02,-0.07,1.19,1.83,3.66,1.28,908.58,25.53,
3157013,-0.02,-0.08,1.16,1.95,3.3,1.28,908.58,25.54,
3157103,-0.02,-0.08,1.13,2.56,3.05,1.28,908.56,25.52,
3157141,-0.0,-0.08,1.06,2.56,2.38,1.22,908.57,25.51,
3157179,-0.02,-0.08,1.05,2.87,1.53,1.28,908.6,25.52,
3157217,-0.03,-0.08,1.0,2.69,1.77,1.04,908.54,25.53,
3157255,-0.02,-0.08,0.98,2.99,1.28,1.04,908.52,25.53,
3157294,-0.02,-0.08,0.95,2.75,0.79,1.1,908.55,25.53,
3157332,-0.02,-0.08,0.96,2.81,0.67,0.92,908.53,25.54,
3157382,-0.02,-0.08,0.93,2.5,1.77,0.92,908.53,25.51,
3157420,-0.01,-0.08,0.94,2.56,1.34,0.85,908.46,25.53,
3157458,-0.03,-0.08,0.94,2.44,1.22,0.79,908.5,25.54,
3157496,-0.03,-0.09,0.91,2.32,1.65,0.79,908.49,25.53,
3157535,-0.02,-0.08,0.96,2.38,1.4,0.67,908.47,25.54,
3157573,-0.02,-0.09,0.95,2.32,1.4,0.55,908.53,25.54,
3157611,-0.02,-0.08,0.96,2.44,1.22,0.55,908.47,25.54,
3157649,-0.03,-0.08,0.94,2.01,1.95,0.49,908.46,25.54,
3157687,-0.03,-0.08,0.94,2.38,1.83,0.55,908.47,25.54,
3157726,-0.04,-0.08,0.94,2.32,1.53,0.49,908.48,25.55,
3157776,-0.03,-0.08,0.96,2.44,1.59,0.43,908.47,25.53,
3157814,-0.03,-0.08,0.95,2.14,1.83,0.43,908.53,25.54,
3157852,-0.02,-0.08,0.96,2.26,1.22,0.31,908.55,25.55,
3157890,-0.03,-0.08,0.96,2.14,1.95,0.43,908.52,25.55,
3157928,-0.03,-0.08,0.96,2.2,1.95,0.43,908.56,25.55,
3157967,-0.02,-0.08,0.98,2.2,1.59,0.31,908.52,25.55,
3158005,-0.03,-0.08,0.97,2.01,1.1,0.24,908.49,25.54,
3158043,-0.02,-0.08,0.98,2.14,1.53,0.18,908.46,25.54,
3158081,-0.03,-0.08,0.98,2.32,1.16,0.24,908.56,25.56,
3158131,-0.03,-0.08,0.98,2.08,0.55,0.24,908.5,25.54,
3158169,-0.04,-0.08,0.98,2.08,0.92,0.31,908.5,25.54,
3158208,-0.03,-0.08,0.96,2.14,1.04,0.31,908.48,25.53,
3158246,-0.03,-0.08,0.97,2.2,0.98,0.18,908.5,25.55,
3158284,-0.03,-0.08,0.95,2.26,1.1,0.18,908.5,25.56,
3158322,-0.02,-0.08,0.96,2.2,1.1,0.12,908.51,25.54,
3158361,-0.03,-0.08,0.97,2.14,1.34,0.18,908.46,25.54,
3158399,-0.03,-0.08,0.95,2.26,1.4,0.06,908.52,25.54,
3158437,-0.03,-0.08,0.97,2.2,1.28,-0.12,908.49,25.54,
3158475,-0.03,-0.09,0.96,2.2,2.01,0.06,908.54,25.55,
3158525,-0.03,-0.08,0.98,2.32,1.65,0.0,908.49,25.53,
3158563,-0.04,-0.08,0.96,2.14,2.08,0.06,908.51,25.53,
3158601,-0.04,-0.08,0.95,2.5,2.08,0.0,908.5,25.54,
3158640,-0.03,-0.08,0.96,2.26,2.26,0.0,908.5,25.54,
3158678,-0.03,-0.08,0.97,2.5,2.01,0.12,908.44,25.54,
3158716,-0.03,-0.08,0.95,2.26,1.4,0.06,908.45,25.54,
3158754,-0.04,-0.08,0.96,2.32,1.04,0.0,908.54,25.54,
3158792,-0.03,-0.09,0.95,2.08,1.89,0.06,908.51,25.54,
3158831,-0.03,-0.08,0.95,2.01,1.71,0.06,908.44,25.54,
3158869,-0.04,-0.08,0.95,1.59,1.71,-0.06,908.44,25.54,
3158919,-0.05,-0.08,0.96,1.65,2.44,0.0,908.46,25.53,
3158957,-0.04,-0.08,0.96,1.4,2.32,-0.06,908.47,25.53,
3158995,-0.04,-0.08,1.0,1.46,2.26,0.0,908.45,25.53,
3159033,-0.05,-0.08,0.98,1.53,2.99,0.06,908.47,25.54,
3159072,-0.05,-0.07,1.0,1.95,2.81,0.06,908.45,25.55,
3159110,-0.04,-0.08,0.99,2.01,3.11,0.06,908.44,25.53,
3159148,-0.05,-0.07,0.98,2.14,2.75,0.12,908.5,25.57,
3159186,-0.05,-0.07,0.99,2.5,2.93,0.18,908.55,25.55,
3159224,-0.05,-0.09,0.93,2.32,3.66,0.43,908.46,25.54,
3159274,-0.03,-0.07,0.98,2.87,3.23,0.18,908.43,25.53,
3159313,-0.06,-0.08,0.9,2.44,3.48,0.31,908.49,25.54,
3159351,-0.05,-0.07,0.93,3.11,2.99,0.49,908.41,25.54,
3159389,-0.05,-0.08,0.88,2.75,4.58,0.31,908.53,25.55,
3159427,-0.04,-0.08,0.91,3.05,4.46,0.31,908.41,25.54,
3159465,-0.05,-0.08,0.89,2.93,4.7,0.37,908.49,25.54,
3159504,-0.05,-0.08,0.89,2.87,5.0,0.43,908.5,25.54,
3159542,-0.03,-0.08,0.9,2.99,4.94,0.49,908.5,25.54,
3159580,-0.05,-0.08,0.91,2.87,4.39,0.61,908.4,25.53,
3159618,-0.04,-0.08,0.92,2.81,4.15,0.67,908.5,25.54,
3159668,-0.04,-0.07,0.95,2.81,3.11,0.67,908.47,25.53,
3159706,-0.06,-0.08,0.94,2.69,2.62,0.98,908.51,25.54,
3159744,-0.04,-0.07,0.97,2.56,1.89,0.98,908.49,25.54,
3159782,-0.05,-0.08,0.95,2.38,1.22,1.16,908.41,25.54,
3159821,-0.04,-0.08,0.98,2.56,1.28,1.22,908.44,25.53,
3159859,-0.04,-0.08,0.94,2.5,2.14,1.16,908.5,25.55,
3159897,-0.04,-0.07,0.94,2.81,1.83,1.28,908.46,25.53,
3159935,-0.05,-0.07,0.93,2.87,1.65,1.34,908.48,25.54,
3159974,-0.03,-0.09,0.88,2.87,2.08,1.53,908.51,25.54,
3160012,-0.04,-0.09,0.84,2.69,1.59,1.46,908.54,25.55,
3160088,-0.05,-0.07,0.88,2.38,0.37,1.65,908.47,25.51,
3160126,-0.04,-0.08,0.93,2.14,0.67,1.59,908.44,25.52,
3160164,-0.04,-0.08,0.96,1.95,0.61,1.77,908.53,25.53,
3160254,-0.05,-0.08,0.99,1.95,1.77,1.95,908.53,25.49,
3160292,-0.04,-0.08,0.99,1.71,2.99,1.77,908.5,25.5,
3160330,-0.04,-0.08,0.98,2.14,3.17,1.77,908.54,25.53,
3160368,-0.04,-0.08,0.96,2.01,2.87,1.89,908.58,25.51,
3160406,-0.05,-0.08,0.92,2.2,3.72,1.89,908.52,25.51,
3160445,-0.04,-0.07,0.94,2.56,4.39,1.95,908.5,25.52,
3160495,-0.03,-0.08,0.89,2.44,4.33,1.77,908.55,25.51,
3160533,-0.03,-0.08,0.97,2.44,3.23,1.95,908.53,25.51,
3160571,-0.03,-0.09,0.97,2.14,3.54,1.95,908.52,25.53,
3160609,-0.04,-0.08,1.01,2.08,2.93,2.2,908.57,25.52,
3160647,-0.03,-0.08,1.02,2.01,2.81,2.2,908.54,25.52,
3160686,-0.04,-0.08,1.01,2.08,2.62,2.14,908.52,25.53,
3160724,-0.03,-0.07,1.04,2.08,2.62,2.2,908.55,25.53,
3160762,-0.04,-0.08,1.01,1.83,3.11,2.32,908.59,25.52,
3160800,-0.04,-0.08,1.02,1.95,2.38,2.38,908.51,25.53,
3160838,-0.04,-0.08,1.03,1.89,2.93,2.44,908.54,25.53,
3160888,-0.02,-0.08,1.02,1.89,3.48,2.08,908.58,25.53,
3160927,-0.03,-0.08,1.03,1.77,3.42,2.38,908.58,25.52,
3160965,-0.03,-0.08,1.03,1.77,3.36,2.44,908.57,25.52,
3161003,-0.04,-0.08,1.05,1.4,2.93,2.44,908.61,25.52,
3161041,-0.03,-0.08,1.06,1.4,2.75,2.56,908.59,25.53,
3161079,-0.03,-0.08,1.04,1.46,3.05,2.32,908.59,25.52,
3161118,-0.03,-0.07,1.06,1.28,3.17,2.44,908.6,25.52,
3161156,-0.03,-0.07,1.01,1.4,3.72,2.56,908.6,25.53,
3161194,-0.04,-0.08,0.99,1.53,3.48,2.5,908.61,25.53,
3161232,-0.03,-0.07,1.0,1.46,3.54,2.2,908.66,25.53,
3161282,-0.03,-0.07,1.0,1.77,3.48,2.38,908.64,25.53,
3161320,-0.04,-0.08,1.0,1.59,3.85,2.38,908.64,25.54,
3161359,-0.03,-0.08,1.01,1.77,4.03,2.32,908.63,25.52,
3161397,-0.02,-0.09,0.98,1.77,4.15,2.5,908.61,25.53,
3161435,-0.03,-0.08,0.97,1.95,3.3,2.44,908.65,25.53,
3161473,-0.03,-0.07,0.97,2.2,3.6,2.44,908.63,25.53,
3161511,-0.03,-0.08,0.94,2.01,3.42,2.38,908.6,25.53,
3161550,-0.03,-0.08,0.97,2.01,3.05,2.5,908.61,25.52,
3161588,-0.02,-0.08,0.95,2.08,2.87,2.69,908.69,25.53,
3161638,-0.02,-0.08,0.98,2.08,2.38,2.62,908.63,25.5,
3161676,-0.02,-0.08,0.95,1.77,3.05,2.5,908.64,25.54,
3161714,-0.02,-0.08,0.97,2.01,2.62,2.56,908.69,25.53,
3161753,-0.03,-0.08,0.96,1.83,3.48,2.44,908.65,25.52,
3161791,-0.01,-0.07,1.0,2.08,3.05,2.2,908.67,25.53,
3161829,-0.02,-0.08,0.98,2.08,3.66,2.32,908.65,25.53,
3161867,-0.02,-0.08,0.94,1.89,3.23,2.32,908.68,25.54,
3161905,-0.02,-0.09,0.95,2.2,2.99,2.14,908.66,25.53,
3161944,-0.01,-0.09,0.92,2.01,3.05,2.26,908.64,25.54,
3161982,-0.01,-0.08,0.91,2.14,2.14,2.14,908.7,25.55,
3162032,-0.03,-0.09,0.89,2.2,2.69,2.2,908.66,25.52,
3162070,-0.01,-0.09,0.92,2.44,2.26,1.89,908.65,25.52,
3162108,-0.02,-0.08,0.92,1.83,2.5,1.83,908.7,25.54,
3162146,-0.02,-0.07,0.94,2.08,2.14,2.08,908.7,25.54,
3162184,-0.01,-0.08,0.96,1.89,2.26,1.83,908.7,25.54,
3162223,-0.01,-0.08,0.96,1.65,2.2,1.83,908.69,25.54,
3162261,-0.02,-0.08,0.99,1.95,1.71,1.77,908.71,25.53,
3162299,-0.0,-0.09,0.98,1.89,2.44,1.71,908.69,25.54,
3162337,-0.01,-0.08,0.97,1.95,2.14,1.65,908.74,25.54,
3162375,-0.02,-0.08,0.98,1.95,2.32,1.4,908.7,25.55,
3162425,-0.01,-0.08,0.94,2.01,2.44,1.22,908.68,25.53,
3162463,-0.02,-0.08,0.98,1.89,2.01,1.16,908.71,25.54,
3162501,-0.01,-0.08,0.95,1.83,1.95,1.1,908.74,25.54,
3162539,-0.01,-0.08,0.97,1.95,1.34,0.92,908.72,25.53,
3162578,-0.01,-0.09,0.95,1.71,1.4,0.92,908.73,25.54,
3162616,-0.01,-0.09,0.93,2.08,1.46,1.16,908.75,25.54,
3162654,-0.02,-0.08,0.93,1.77,2.01,0.85,908.67,25.53,
3162692,-0.01,-0.08,0.95,1.89,1.77,0.73,908.73,25.55,
3162730,-0.02,-0.08,0.96,1.71,2.32,0.73,908.69,25.54,
3162780,-0.03,-0.09,0.97,1.46,2.56,0.67,908.72,25.53,
3162818,-0.02,-0.08,0.98,1.4,3.36,0.55,908.75,25.54,
3162857,-0.03,-0.08,0.99,1.28,3.78,0.49,908.69,25.53,
3162895,-0.03,-0.08,0.98,1.28,3.85,0.55,908.72,25.54,
3162933,-0.02,-0.08,1.0,1.22,3.78,0.49,908.78,25.54,
3162971,-0.03,-0.08,1.0,1.28,4.03,0.43,908.76,25.54,
3163010,-0.03,-0.08,1.0,1.28,3.85,0.43,908.73,25.54,
3163048,-0.03,-0.09,1.03,1.22,4.09,0.37,908.74,25.54,
3163086,-0.03,-0.08,0.99,1.1,4.21,0.43,908.72,25.54,
3163124,-0.03,-0.08,1.01,1.53,3.91,0.49,908.72,25.54,
3163200,-0.03,-0.08,1.0,1.4,4.09,0.55,908.74,25.5,
3163238,-0.04,-0.08,0.99,1.28,4.15,0.55,908.71,25.51,
3163277,-0.02,-0.08,1.0,1.53,3.72,0.61,908.72,25.52,
3163366,-0.03,-0.07,1.03,1.46,3.6,0.67,908.76,25.5,
3163405,-0.02,-0.08,1.02,1.4,3.72,0.61,908.72,25.5,
3163443,-0.03,-0.08,1.04,1.59,2.99,0.61,908.78,25.51,
3163481,-0.03,-0.08,1.03,1.59,3.23,0.61,908.76,25.52,
3163519,-0.03,-0.08,1.01,1.46,2.99,0.73,908.77,25.53,
3163557,-0.02,-0.08,1.03,1.53,2.93,0.61,908.78,25.53,
3163595,-0.03,-0.08,1.01,1.65,2.56,0.79,908.76,25.53,
3163645,-0.03,-0.08,0.99,1.71,2.99,0.73,908.81,25.51,
3163683,-0.03,-0.08,1.0,1.77,2.56,0.73,908.79,25.52,
3163722,-0.03,-0.08,1.0,1.71,2.01,0.73,908.8,25.52,
3163760,-0.04,-0.08,0.99,1.83,1.71,0.79,908.79,25.53,
3163798,-0.03,-0.08,1.02,2.01,1.83,0.73,908.8,25.52,
3163836,-0.03,-0.08,1.0,1.83,1.83,0.92,908.82,25.52,
3163874,-0.03,-0.08,1.02,1.95,1.4,0.92,908.82,25.52,
3163913,-0.02,-0.08,1.02,1.95,1.95,0.85,908.72,25.53,
3163951,-0.03,-0.08,1.02,1.95,1.89,0.92,908.79,25.53,
3164001,-0.03,-0.08,1.02,2.01,1.59,0.92,908.83,25.53,
3164039,-0.04,-0.08,1.02,2.14,1.46,0.92,908.85,25.52,
3164077,-0.03,-0.07,1.02,2.26,1.1,0.98,908.82,25.53,
3164115,-0.03,-0.08,1.01,2.26,0.92,1.1,908.82,25.53,
3164154,-0.03,-0.08,0.99,2.2,1.04,1.16,908.86,25.54,
3164192,-0.05,-0.08,0.98,2.2,1.04,1.16,908.81,25.53,
3164230,-0.03,-0.08,0.99,2.14,0.73,1.1,908.78,25.53,
3164268,-0.02,-0.07,0.98,2.08,1.04,0.79,908.83,25.53,
3164307,-0.04,-0.08,0.96,2.01,1.46,0.92,908.87,25.53,
3164345,-0.03,-0.08,0.96,1.83,1.83,0.92,908.87,25.54,
3164395,-0.04,-0.07,0.95,1.95,2.32,1.1,908.89,25.53,
3164433,-0.04,-0.08,0.96,2.14,2.44,1.16,908.83,25.53,
3164471,-0.03,-0.08,0.96,2.14,2.81,1.04,908.84,25.52,
3164509,-0.03,-0.08,0.97,2.26,3.23,0.92,908.88,25.54,
3164547,-0.04,-0.08,0.96,2.38,2.87,1.04,908.92,25.53,
3164586,-0.03,-0.08,0.99,2.56,3.05,0.98,908.9,25.54,
3164624,-0.03,-0.08,0.94,2.2,3.42,0.98,908.86,25.52,
3164662,-0.04,-0.08,0.94,2.56,3.11,1.04,908.87,25.53,
3164700,-0.03,-0.08,0.95,2.5,3.05,1.16,908.83,25.52,
3164738,-0.02,-0.08,0.95,2.5,2.69,1.16,908.88,25.53,
3164788,-0.03,-0.07,0.95,2.2,3.05,1.16,908.89,25.53,
3164827,-0.03,-0.08,0.99,2.32,2.69,1.22,908.92,25.53,
3164865,-0.03,-0.08,0.95,2.2,2.87,1.34,908.92,25.53,
3164903,-0.03,-0.08,0.97,2.2,2.38,1.28,908.9,25.54,
3164941,-0.03,-0.08,0.95,2.32,2.93,1.28,908.87,25.54,
3164979,-0.02,-0.08,0.95,2.62,2.69,1.4,908.89,25.53,
3165018,-0.02,-0.08,0.94,2.62,3.11,1.34,908.97,25.55,
3165056,-0.03,-0.09,0.88,2.93,3.3,1.4,908.9,25.54,
3165094,-0.04,-0.08,0.92,2.87,2.99,1.22,908.9,25.53,
3165144,-0.03,-0.09,0.89,2.81,3.78,1.28,908.97,25.52,
3165182,-0.02,-0.07,0.89,2.75,3.6,1.16,908.97,25.54,
3165220,-0.02,-0.08,0.88,2.62,4.15,1.4,908.94,25.54,
3165259,-0.03,-0.08,0.9,2.5,4.52,1.22,908.94,25.53,
3165297,-0.03,-0.09,0.88,2.62,5.62,1.22,908.96,25.53,
3165335,-0.03,-0.08,0.93,2.62,5.62,1.34,908.94,25.54,
3165373,-0.03,-0.09,0.92,2.5,5.8,1.34,908.93,25.53,
3165411,-0.03,-0.08,0.95,2.62,6.16,1.22,908.94,25.54,
3165450,-0.03,-0.08,0.95,2.81,7.81,1.04,908.96,25.54,
3165488,-0.03,-0.08,0.97,2.81,7.57,1.34,908.98,25.54,
3165538,-0.03,-0.08,0.95,2.99,7.69,1.4,908.98,25.52,
3165576,-0.03,-0.08,0.95,3.3,7.39,1.28,909.01,25.54,
3165614,-0.03,-0.08,0.92,2.81,7.69,1.53,908.98,25.54,
3165652,-0.03,-0.08,0.91,3.17,7.32,1.34,908.93,25.54,
3165690,-0.02,-0.08,0.89,2.81,7.26,1.46,908.97,25.54,
3165729,-0.02,-0.08,0.89,2.75,6.1,1.4,909.03,25.53,
3165767,-0.01,-0.08,0.88,2.44,5.55,1.53,908.97,25.54,
3165805,-0.01,-0.08,0.87,2.14,4.7,1.34,908.99,25.53,
3165843,-0.02,-0.08,0.89,2.26,4.03,1.53,909.05,25.53,
3165881,-0.01,-0.08,0.88,1.83,3.6,1.34,908.97,25.53,
3165931,-0.02,-0.07,0.95,2.26,2.32,1.1,908.99,25.53,
3165969,-0.01,-0.1,0.91,2.32,2.93,1.04,909.05,25.54,
3166007,-0.03,-0.08,0.96,2.26,2.14,1.04,909.02,25.52,
3166046,-0.02,-0.08,0.98,2.26,3.05,0.98,909.0,25.54,
3166084,-0.01,-0.09,0.95,2.08,2.93,0.85,909.04,25.54,
3166122,-0.03,-0.08,0.98,1.95,3.48,0.98,909.08,25.54,
3166160,-0.04,-0.08,0.96,1.77,4.15,0.79,909.04,25.53,
3166198,-0.03,-0.08,0.98,2.2,3.6,0.85,909.09,25.54,
3166237,-0.02,-0.09,0.95,1.89,4.03,0.67,909.1,25.54,
3166314,-0.02,-0.08,0.97,1.83,4.33,0.79,909.05,25.51,
3166352,-0.0,-0.09,0.96,1.65,4.46,0.55,909.09,25.52,
3166390,-0.01,-0.07,1.05,1.65,4.33,0.61,909.12,25.52,
3166480,-0.03,-0.07,1.06,1.4,4.52,0.37,909.14,25.5,
3166518,-0.03,-0.08,1.07,1.28,5.43,0.24,909.09,25.51,
3166556,-0.02,-0.08,1.09,1.28,3.85,0.31,909.11,25.5,
3166594,-0.01,-0.08,1.14,1.46,3.54,0.24,909.12,25.52,
3166633,-0.01,-0.07,1.11,0.79,3.91,0.24,909.09,25.52,
3166671,-0.02,-0.08,1.17,1.04,2.08,0.24,909.18,25.52,
3166709,0.0,-0.08,1.18,0.73,1.65,0.06,909.14,25.53,
3166759,-0.02,-0.07,1.22,1.34,0.55,0.06,909.16,25.53,
3166797,-0.0,-0.09,1.19,1.22,0.43,0.06,909.15,25.51,
3166835,-0.02,-0.08,1.17,1.46,-0.31,-0.06,909.18,25.54,
3166873,-0.03,-0.07,1.19,1.77,-0.18,0.06,909.21,25.53,
3166912,-0.03,-0.08,1.11,1.71,-0.24,0.0,909.22,25.54,
3166950,-0.01,-0.08,1.13,1.95,-0.55,-0.31,909.16,25.53,
3166988,-0.01,-0.08,1.07,1.77,-0.12,-0.31,909.22,25.53,
3167026,-0.03,-0.07,1.1,2.32,-1.34,-0.12,909.19,25.54,
3167064,-0.03,-0.08,1.04,2.26,-1.16,-0.24,909.23,25.54,
3167114,-0.03,-0.08,1.05,2.56,-1.53,-0.24,909.16,25.5,
3167152,-0.03,-0.09,0.99,2.08,-1.53,-0.31,909.22,25.53,
3167191,-0.03,-0.07,1.0,2.69,-2.08,-0.18,909.17,25.52,
3167229,-0.03,-0.08,0.97,2.62,-1.71,-0.31,909.17,25.53,
3167267,-0.03,-0.08,0.96,2.5,-1.95,-0.37,909.2,25.53,
3167305,-0.04,-0.09,0.95,2.69,-1.65,-0.37,909.2,25.53,
3167344,-0.05,-0.09,0.92,2.62,-1.4,-0.37,909.2,25.53,
3167382,-0.04,-0.08,0.93,2.69,-1.59,-0.24,909.29,25.53,
3167420,-0.04,-0.08,0.9,2.56,-1.22,-0.43,909.22,25.54,
3167458,-0.04,-0.08,0.9,2.5,-1.22,-0.43,909.22,25.54,
3167508,-0.04,-0.08,0.91,2.44,-0.18,-0.24,909.24,25.51,
3167546,-0.04,-0.08,0.91,2.44,-0.06,-0.24,909.23,25.53,
3167584,-0.05,-0.09,0.91,2.08,0.12,-0.12,909.28,25.54,
3167623,-0.04,-0.08,0.92,1.95,0.61,-0.24,909.26,25.52,
3167661,-0.04,-0.07,0.92,1.71,1.1,-0.12,909.23,25.53,
3167699,-0.05,-0.08,0.92,1.65,1.22,-0.18,909.21,25.53,
3167737,-0.04,-0.08,0.94,1.65,1.28,-0.06,909.27,25.53,
3167776,-0.05,-0.08,0.94,1.65,1.65,0.12,909.28,25.53,
3167814,-0.04,-0.09,0.95,1.4,1.95,0.06,909.25,25.52,
3167864,-0.06,-0.08,0.97,1.4,1.53,0.18,909.21,25.52,
3167902,-0.05,-0.08,0.99,1.59,1.95,0.31,909.26,25.53,
3167940,-0.05,-0.09,0.99,1.83,2.01,0.37,909.32,25.53,
3167978,-0.04,-0.08,0.97,1.89,2.32,0.37,909.27,25.53,
3168016,-0.05,-0.08,1.0,2.08,2.08,0.61,909.3,25.54,
3168054,-0.05,-0.08,1.0,2.01,2.5,0.55,909.28,25.53,
3168093,-0.04,-0.08,1.01,2.08,2.38,0.61,909.31,25.53,
3168131,-0.05,-0.08,1.0,2.2,2.32,0.73,909.31,25.52,
3168169,-0.05,-0.08,1.01,2.2,2.38,1.04,909.34,25.54,
3168207,-0.05,-0.08,1.0,2.14,2.81,0.98,909.29,25.54,
3168257,-0.06,-0.08,1.01,2.08,2.81,1.1,909.27,25.51,
3168295,-0.05,-0.08,1.02,2.14,3.05,1.22,909.28,25.53,
3168334,-0.06,-0.08,1.02,2.32,3.11,1.22,909.3,25.52,
3168372,-0.05,-0.08,1.02,2.56,3.48,1.4,909.38,25.53,
3168410,-0.05,-0.09,1.0,2.44,3.3,1.4,909.38,25.55,
3168448,-0.04,-0.08,1.02,2.56,3.17,1.46,909.34,25.52,
3168486,-0.04,-0.08,1.0,2.5,3.54,1.65,909.33,25.53,
3168525,-0.05,-0.08,0.99,2.62,3.36,1.77,909.36,25.53,
3168563,-0.04,-0.08,1.0,2.62,3.6,1.83,909.42,25.54,
3168613,-0.04,-0.08,0.98,2.44,3.54,1.83,909.45,25.53,
3168651,-0.04,-0.08,0.97,2.26,3.54,1.83,909.41,25.54,
3168689,-0.03,-0.08,0.97,2.5,3.05,2.01,909.39,25.53,
3168727,-0.04,-0.08,0.98,2.26,2.93,2.14,909.35,25.54,
3168765,-0.04,-0.09,0.95,2.2,2.81,2.2,909.36,25.54,
3168804,-0.03,-0.08,0.98,2.01,2.32,2.14,909.38,25.53,
3168842,-0.04,-0.08,0.97,1.89,1.89,1.95,909.41,25.53,
3168880,-0.04,-0.08,0.98,1.83,1.83,2.44,909.43,25.53,
3168918,-0.04,-0.08,0.98,1.65,1.95,2.32,909.43,25.54,
3168957,-0.03,-0.09,0.99,1.53,1.89,2.38,909.45,25.54,
3169006,-0.05,-0.08,1.01,1.46,1.77,2.26,909.45,25.52,
3169045,-0.03,-0.08,1.0,1.46,1.59,2.5,909.46,25.55,
3169083,-0.03,-0.08,1.01,1.59,1.34,2.2,909.44,25.54,
3169121,-0.05,-0.08,0.99,1.65,1.71,2.69,909.42,25.54,
3169159,-0.03,-0.08,0.99,1.89,1.71,2.56,909.46,25.53,
3169197,-0.04,-0.09,1.0,1.65,1.89,2.44,909.51,25.54,
3169236,-0.05,-0.09,0.98,1.65,1.83,2.56,909.47,25.54,
3169274,-0.04,-0.08,1.0,2.08,2.14,2.56,909.49,25.54,
3169312,-0.03,-0.08,0.97,1.95,2.32,2.62,909.53,25.54,
3169350,-0.03,-0.08,0.98,2.14,1.89,2.69,909.47,25.54,
3169426,-0.03,-0.08,0.97,2.14,1.77,2.93,909.54,25.52,
3169464,-0.04,-0.08,0.96,2.08,1.65,2.75,909.56,25.53,
3169503,-0.04,-0.08,0.96,2.14,1.28,2.75,909.58,25.52,
3169592,-0.03,-0.08,0.96,1.83,1.28,2.99,909.56,25.49,
3169631,-0.03,-0.08,0.97,1.83,1.1,3.11,909.55,25.51,
3169669,-0.03,-0.08,0.96,1.77,1.1,3.11,909.59,25.52,
3169707,-0.04,-0.08,0.98,1.95,0.92,3.23,909.56,25.52,
3169745,-0.03,-0.08,0.97,1.95,0.61,3.11,909.59,25.52,
3169783,-0.02,-0.08,0.96,1.89,0.92,3.11,909.6,25.52,
3169833,-0.03,-0.08,0.93,1.77,1.28,3.17,909.55,25.51,
3169872,-0.04,-0.08,0.95,2.08,1.46,2.99,909.57,25.52,
3169910,-0.03,-0.09,0.94,2.01,2.26,3.17,909.54,25.52,
3169948,-0.03,-0.08,0.97,1.89,2.44,3.05,909.6,25.53,
3169986,-0.03,-0.09,0.95,1.65,3.42,2.93,909.62,25.52,
3170024,-0.04,-0.08,0.95,1.95,3.48,3.05,909.6,25.52,
3170062,-0.04,-0.08,0.95,1.77,3.78,2.87,909.64,25.53,
3170101,-0.03,-0.09,0.93,1.95,3.85,3.11,909.63,25.52,
3170139,-0.03,-0.08,0.92,2.01,3.85,2.99,909.58,25.52,
3170177,-0.05,-0.08,0.94,1.95,3.91,3.23,909.62,25.53,
3170227,-0.03,-0.08,0.96,1.83,4.39,3.17,909.62,25.51,
3170265,-0.03,-0.08,1.0,2.14,3.42,3.17,909.61,25.53,
3170303,-0.03,-0.08,0.98,1.83,3.42,3.23,909.69,25.54,
3170342,-0.03,-0.08,0.98,1.65,3.42,3.3,909.65,25.52,
3170380,-0.02,-0.08,0.98,2.01,3.23,3.48,909.63,25.53,
3170418,-0.04,-0.08,0.97,2.01,3.42,3.48,909.71,25.53,
3170456,-0.03,-0.08,0.94,2.01,2.93,3.48,909.69,25.54,
3170494,-0.02,-0.08,0.94,2.14,3.11,3.48,909.75,25.54,
3170533,-0.02,-0.09,0.9,1.95,3.23,3.54,909.71,25.53,
3170571,-0.03,-0.08,0.88,1.77,2.87,3.66,909.68,25.53,
3170621,-0.04,-0.08,0.87,1.83,3.17,3.54,909.67,25.52,
3170659,-0.04,-0.09,0.88,1.53,3.36,3.48,909.73,25.53,
3170697,-0.03,-0.08,0.91,1.46,3.54,3.48,909.73,25.53,
3170735,-0.03,-0.08,0.95,1.34,3.78,3.85,909.77,25.53,
3170774,-0.03,-0.08,0.97,1.46,3.85,3.78,909.72,25.53,
3170812,-0.03,-0.08,0.98,1.4,3.85,3.78,909.81,25.53,
3170850,-0.04,-0.08,1.03,1.4,3.66,3.72,909.75,25.53,
3170888,-0.02,-0.08,1.01,1.16,3.91,3.85,909.77,25.54,
3170926,-0.02,-0.07,1.07,1.4,2.87,3.78,909.79,25.53,
3170976,-0.05,-0.08,1.07,1.4,3.05,4.09,909.74,25.52,
3171014,-0.01,-0.07,1.14,1.4,2.32,4.09,909.77,25.53,
3171053,-0.03,-0.08,1.17,1.59,2.14,4.15,909.75,25.54,
3171091,-0.02,-0.09,1.13,1.46,1.53,4.09,909.8,25.54,
3171129,-0.03,-0.07,1.22,2.01,0.55,3.85,909.83,25.53,
3171167,-0.02,-0.08,1.14,2.01,1.59,4.27,909.82,25.54,
3171205,-0.02,-0.08,1.13,2.32,0.0,4.15,909.81,25.52,
3171244,-0.03,-0.08,1.15,2.44,0.85,3.97,909.82,25.53,
3171282,-0.02,-0.09,1.08,2.2,1.04,3.91,909.83,25.54,
3171320,-0.02,-0.09,1.1,2.26,1.46,3.85,909.82,25.52,
3171370,-0.03,-0.1,1.04,2.01,1.71,3.72,909.8,25.52,
3171408,-0.03,-0.08,1.05,2.26,2.26,3.97,909.85,25.52,
3171446,-0.02,-0.09,0.98,1.71,2.44,3.91,909.83,25.53,
3171484,-0.02,-0.08,0.97,2.01,1.53,3.91,909.79,25.53,
3171523,-0.03,-0.09,0.93,1.59,2.38,3.91,909.82,25.52,
3171561,-0.03,-0.08,0.96,1.83,1.83,3.78,909.83,25.53,
3171599,-0.04,-0.08,0.94,1.77,2.44,3.85,909.82,25.53,
3171637,-0.04,-0.08,0.96,1.77,2.01,4.09,909.81,25.53,
3171675,-0.03,-0.09,0.99,1.65,3.17,4.15,909.89,25.53,
3171714,-0.02,-0.09,0.98,1.53,3.78,3.85,909.9,25.52,
3171764,-0.02,-0.08,0.97,1.46,3.36,4.09,909.86,25.51,
3171802,-0.03,-0.09,0.98,1.34,3.42,4.15,909.9,25.52,
3171840,-0.02,-0.09,0.98,1.16,3.36,4.21,909.88,25.53,
3171878,-0.03,-0.09,1.0,1.1,3.36,3.97,909.87,25.51,
3171916,-0.04,-0.09,1.0,1.28,3.3,3.97,909.86,25.5,
3171954,-0.02,-0.08,1.0,1.16,3.05,3.91,909.92,25.51,
3171993,-0.03,-0.08,1.01,0.98,3.6,4.03,909.95,25.52,
3172031,-0.0,-0.08,1.02,1.1,3.36,4.03,909.92,25.52,
3172069,-0.03,-0.08,1.03,0.98,3.17,4.03,909.95,25.53,
3172119,-0.03,-0.08,1.05,0.98,2.93,4.27,909.95,25.5,
3172157,-0.04,-0.08,1.04,1.04,2.99,4.15,909.94,25.52,
3172195,-0.03,-0.08,1.06,1.04,3.17,4.15,909.9,25.51,
3172234,-0.01,-0.09,1.04,1.1,3.05,4.33,909.99,25.52,
3172272,-0.03,-0.08,1.04,1.34,2.99,4.21,909.99,25.53,
3172310,-0.03,-0.08,1.02,1.28,3.3,4.21,909.93,25.52,
3172348,-0.04,-0.08,1.03,1.16,3.48,4.52,910.0,25.52,
3172386,-0.04,-0.09,1.02,1.04,3.54,4.52,910.01,25.54,
3172425,-0.04,-0.08,1.05,1.22,3.42,4.52,909.97,25.53,
3172463,-0.03,-0.09,1.02,1.16,4.15,4.58,910.02,25.53,
3172538,-0.02,-0.08,1.05,1.28,3.78,4.64,910.0,25.49,
3172577,-0.03,-0.09,1.01,1.1,4.33,4.82,910.0,25.51,
3172615,-0.02,-0.08,1.08,1.4,3.97,4.76,909.98,25.5,
3172704,-0.02,-0.08,1.05,1.53,3.66,4.76,910.03,25.48,
3172743,-0.02,-0.09,1.03,1.22,4.39,4.7,910.02,25.49,
3172781,-0.01,-0.08,1.05,1.53,3.54,4.7,910.06,25.51,
3172819,-0.01,-0.09,1.04,0.92,4.03,4.64,910.04,25.49,
3172857,-0.02,-0.08,1.07,1.22,3.85,4.58,910.04,25.51,
3172895,-0.02,-0.09,1.07,1.1,4.76,4.64,910.05,25.5,
3172934,-0.0,-0.08,1.09,1.22,4.21,4.52,910.05,25.52,
3172984,-0.03,-0.08,1.05,1.1,4.46,4.58,910.07,25.51,
3173022,-0.01,-0.08,1.07,1.4,4.82,4.58,910.02,25.5,
3173060,-0.01,-0.09,1.06,1.28,5.19,4.52,910.13,25.51,
3173098,-0.01,-0.09,1.04,1.46,4.7,4.39,910.06,25.51,
3173136,-0.02,-0.09,1.04,1.59,5.19,4.52,910.09,25.52,
3173174,-0.01,-0.09,1.03,1.83,4.82,4.46,910.0,25.5,
3173213,-0.01,-0.09,1.03,1.71,4.58,4.33,910.07,25.52,
3173251,0.0,-0.09,1.03,1.59,4.15,4.27,910.08,25.51,
3173289,-0.0,-0.09,0.99,1.4,4.15,4.52,910.09,25.52,
3173339,-0.0,-0.09,0.99,1.59,3.72,4.46,910.08,25.51,
3173377,-0.0,-0.09,0.97,1.16,3.3,4.46,910.1,25.52,
3173415,0.01,-0.08,1.03,1.34,2.26,4.27,910.04,25.51,
3173453,0.01,-0.09,1.02,0.98,2.69,4.27,910.05,25.53,
3173491,-0.0,-0.08,1.05,0.92,2.56,4.27,910.1,25.51,
3173530,0.02,-0.09,1.1,0.98,3.3,3.85,910.06,25.52,
3173568,0.02,-0.1,1.06,0.67,4.09,3.66,910.07,25.51,
3173606,0.01,-0.08,1.16,1.1,3.6,3.42,910.09,25.53,
3173644,0.03,-0.09,1.15,0.92,4.27,3.3,910.12,25.53,
3173682,0.03,-0.09,1.1,0.55,3.6,3.05,910.09,25.52,
3173732,0.03,-0.09,1.13,0.98,2.75,2.99,910.03,25.49,
3173770,0.04,-0.1,1.12,1.34,2.75,2.87,910.11,25.51,
3173809,-0.0,-0.1,1.07,1.65,1.65,2.44,910.05,25.51,
3173847,0.03,-0.09,1.07,1.89,2.5,2.26,910.13,25.53,
3173885,0.03,-0.1,1.02,1.53,2.62,2.01,910.03,25.51,
3173923,0.01,-0.09,1.04,1.28,1.53,2.01,910.08,25.51,
3173961,0.0,-0.1,1.05,1.53,1.65,1.83,910.08,25.5,
3174000,0.02,-0.1,1.03,1.22,1.65,1.46,910.06,25.51,
3174038,0.02,-0.08,1.09,1.1,1.22,1.28,910.05,25.52,
3174076,0.0,-0.1,1.04,0.79,1.83,1.4,910.06,25.52,
3174126,0.01,-0.09,1.1,0.92,1.28,0.98,910.05,25.5,
3174164,0.04,-0.09,1.1,0.85,1.53,0.92,910.08,25.52,
3174202,0.0,-0.1,1.12,1.1,1.34,0.98,910.08,25.52,
3174241,0.01,-0.1,1.09,0.98,2.08,0.79,910.11,25.51,
3174279,0.01,-0.09,1.1,1.1,1.83,0.55,910.08,25.52,
3174317,0.01,-0.09,1.09,0.85,2.08,0.43,910.1,25.52,
3174355,0.01,-0.09,1.08,0.92,1.83,0.43,910.1,25.52,
3174393,0.0,-0.09,1.09,0.73,2.32,0.24,910.01,25.52,
3174431,0.0,-0.09,1.08,0.79,2.87,0.31,910.08,25.51,
3174469,-0.01,-0.1,1.1,0.79,2.62,0.12,910.02,25.52,
3174519,-0.01,-0.1,1.13,0.73,3.42,0.0,910.04,25.51,
3174557,-0.01,-0.1,1.15,0.61,3.54,-0.06,910.08,25.52,
3174596,-0.01,-0.09,1.17,0.85,3.85,-0.12,910.12,25.53,
3174634,-0.01,-0.09,1.15,0.67,4.46,-0.12,910.08,25.52,
3174672,-0.01,-0.09,1.15,0.55,4.39,-0.24,910.05,25.53,
3174710,-0.01,-0.09,1.12,0.55,5.13,-0.37,910.05,25.52,
3174748,-0.01,-0.09,1.13,0.92,4.58,-0.31,910.08,25.52,
3174786,-0.03,-0.09,1.1,0.79,4.82,-0.24,910.1,25.51,
3174825,-0.02,-0.09,1.11,1.04,4.76,-0.12,910.05,25.53,
3174875,-0.02,-0.1,1.08,1.28,4.39,-0.24,910.0,25.52,
3174913,-0.03,-0.09,1.09,1.65,4.03,-0.31,910.08,25.53,
3174951,-0.02,-0.1,1.04,1.71,4.21,-0.24,910.03,25.53,
3174989,-0.03,-0.08,1.04,2.14,3.85,-0.24,910.03,25.54,
3175027,-0.03,-0.09,1.0,2.2,3.97,-0.18,910.0,25.52,
3175065,-0.03,-0.12,1.0,2.44,3.66,-0.06,909.97,25.51,
3175104,-0.02,-0.09,0.98,2.38,4.27,-0.06,910.03,25.53,
3175142,-0.04,-0.08,0.99,2.38,3.72,-0.12,909.99,25.54,
3175180,-0.04,-0.09,0.98,2.56,4.52,-0.06,909.97,25.52,
3175218,-0.03,-0.09,0.98,2.44,4.7,0.06,909.95,25.53,
3175268,-0.04,-0.1,0.96,2.69,5.43,0.24,909.93,25.52,
3175306,-0.03,-0.1,0.94,2.56,5.43,0.18,909.92,25.52,
3175345,-0.04,-0.1,0.94,2.81,5.68,0.24,910.0,25.51,
3175383,-0.03,-0.09,0.91,2.56,5.31,0.43,909.96,25.52,
3175421,-0.04,-0.1,0.91,2.75,4.88,0.37,909.98,25.51,
3175459,-0.02,-0.09,0.9,2.87,4.82,0.49,909.98,25.52,
3175497,-0.02,-0.09,0.93,2.93,3.97,0.43,909.93,25.51,
3175536,-0.02,-0.1,0.92,2.62,3.66,0.61,909.93,25.51,
3175574,-0.03,-0.09,0.95,2.75,3.6,0.67,909.9,25.51,
3175612,-0.03,-0.1,0.9,2.56,4.27,0.55,909.95,25.51,
3175688,-0.05,-0.09,0.87,2.44,3.78,0.49,909.88,25.49,
3175726,-0.03,-0.09,0.89,2.26,3.97,0.61,909.87,25.49,
3175764,-0.04,-0.09,0.9,2.14,4.15,0.67,909.87,25.5,
3175854,-0.05,-0.09,0.93,1.22,4.27,0.98,909.82,25.45,
3175892,-0.05,-0.09,1.0,1.28,3.78,0.79,909.88,25.47,
3175931,-0.01,-0.1,1.0,0.79,4.64,0.85,909.86,25.49,
3175969,-0.04,-0.1,0.95,0.67,4.82,0.85,909.87,25.49,
3176007,-0.04,-0.09,1.01,0.85,4.58,0.98,909.87,25.48,
3176045,-0.03,-0.09,1.03,0.61,4.33,1.34,909.89,25.5,
3176095,-0.04,-0.09,1.02,0.73,3.72,1.28,909.87,25.49,
3176133,-0.03,-0.09,1.04,0.79,3.72,1.22,909.85,25.49,
3176172,-0.03,-0.09,1.03,0.73,3.85,1.34,909.87,25.49,
3176210,-0.02,-0.08,1.07,0.85,2.62,1.34,909.88,25.5,
3176248,-0.02,-0.09,1.09,0.61,2.44,1.46,909.91,25.5,
3176286,-0.04,-0.09,1.06,0.43,1.89,1.4,909.93,25.5,
3176324,-0.03,-0.09,1.07,0.31,1.83,1.59,909.88,25.5,
3176362,-0.03,-0.1,1.07,0.0,1.53,1.53,909.89,25.51,
3176401,-0.03,-0.09,1.07,0.24,0.67,1.71,909.83,25.52,
3176439,-0.03,-0.09,1.06,0.06,1.22,1.77,909.86,25.5,
3176489,-0.03,-0.1,1.08,0.0,1.16,1.59,909.83,25.49,
3176527,-0.04,-0.09,1.1,0.18,1.4,1.77,909.87,25.5,
3176565,-0.04,-0.08,1.11,0.0,0.79,1.83,909.84,25.5,
3176603,-0.03,-0.09,1.13,-0.24,0.61,1.77,909.87,25.5,
3176641,-0.04,-0.09,1.09,-0.73,0.79,1.95,909.87,25.52,
3176680,-0.02,-0.08,1.2,-0.73,-0.37,2.14,909.81,25.51,
3176718,-0.03,-0.1,1.18,-1.04,0.61,2.26,909.81,25.52,
3176756,-0.03,-0.08,1.2,-0.92,0.31,2.32,909.86,25.52,
3176794,-0.03,-0.08,1.23,-0.55,1.28,2.2,909.8,25.51,
3176844,-0.03,-0.09,1.18,-0.61,0.31,2.08,909.81,25.49,
3176883,-0.03,-0.08,1.21,-0.55,0.92,2.32,909.81,25.5,
3176921,-0.03,-0.08,1.2,-0.43,1.53,2.2,909.78,25.5,
3176959,-0.02,-0.08,1.23,-0.24,1.34,2.38,909.78,25.5,
3176997,-0.05,-0.08,1.25,0.0,1.53,2.56,909.82,25.51,
3177035,-0.03,-0.09,1.25,-0.12,2.32,2.38,909.77,25.51,
3177073,-0.03,-0.08,1.25,0.06,2.75,2.38,909.83,25.51,
3177112,-0.04,-0.07,1.26,0.43,2.81,2.56,909.79,25.52,
3177150,-0.03,-0.09,1.21,0.43,3.17,2.56,909.8,25.54,
3177188,-0.03,-0.08,1.21,0.55,3.05,2.56,909.8,25.52,
3177238,-0.02,-0.09,1.21,0.67,2.81,2.87,909.82,25.5,
3177276,-0.03,-0.08,1.19,1.04,2.32,2.75,909.78,25.52,
3177314,-0.03,-0.08,1.19,1.28,2.75,2.75,909.81,25.52,
3177353,-0.03,-0.08,1.18,1.77,2.87,2.75,909.8,25.52,
3177391,-0.03,-0.09,1.15,1.83,2.99,2.93,909.72,25.52,
3177429,-0.01,-0.08,1.12,2.38,2.87,2.81,909.71,25.52,
3177467,-0.03,-0.08,1.1,2.5,2.75,2.93,909.73,25.52,
3177505,-0.03,-0.08,1.05,2.38,3.17,3.05,909.69,25.51,
3177544,-0.03,-0.08,1.03,2.69,2.69,3.11,909.65,25.52,
3177582,-0.03,-0.09,1.01,2.5,2.75,3.05,909.64,25.5,
3177632,0.0,-0.08,0.98,2.5,2.93,3.11,909.71,25.52,
3177670,-0.0,-0.09,0.9,2.2,3.66,3.05,909.64,25.52,
3177708,-0.03,-0.08,0.89,2.2,3.66,3.23,909.6,25.51,
3177746,-0.02,-0.08,0.88,2.08,4.09,3.11,909.63,25.51,
3177785,-0.01,-0.09,0.88,2.26,4.64,2.93,909.62,25.52,
3177823,-0.02,-0.08,0.85,2.08,5.37,2.93,909.62,25.52,
3177861,-0.01,-0.09,0.87,2.38,5.55,2.93,909.56,25.52,
3177899,0.0,-0.09,0.87,2.38,5.92,2.75,909.6,25.52,
3177938,-0.02,-0.08,0.89,2.56,5.55,2.99,909.53,25.52,
3177987,-0.03,-0.09,0.9,2.75,5.74,3.11,909.53,25.5,
3178026,-0.02,-0.08,0.9,2.75,4.76,3.05,909.55,25.52,
3178064,-0.01,-0.08,0.91,2.93,4.64,2.87,909.5,25.52,
3178102,0.0,-0.09,0.88,2.75,4.39,2.87,909.49,25.52,
3178140,-0.01,-0.08,0.9,2.81,3.66,2.93,909.54,25.51,
3178178,-0.0,-0.09,0.86,2.38,3.97,3.05,909.49,25.51,
3178217,-0.02,-0.08,0.89,2.44,3.36,2.93,909.5,25.53,
3178255,-0.02,-0.09,0.9,2.32,3.97,2.87,909.44,25.53,
3178293,-0.01,-0.08,0.92,2.01,3.91,2.69,909.51,25.53,
3178331,-0.01,-0.08,0.94,1.95,4.39,2.69,909.48,25.52,
3178381,0.0,-0.08,0.95,2.2,4.46,2.56,909.46,25.5,
3178419,-0.01,-0.09,0.94,2.14,5.31,2.69,909.45,25.52,
3178458,-0.01,-0.08,0.97,2.38,5.25,2.38,909.5,25.5,
3178496,-0.01,-0.08,0.95,2.38,5.62,2.32,909.42,25.52,
3178534,-0.01,-0.08,0.95,2.69,5.68,2.26,909.45,25.51,
3178572,-0.02,-0.08,0.96,2.93,5.8,2.2,909.42,25.51,
3178610,-0.02,-0.08,0.93,2.69,5.98,2.14,909.42,25.52,
3178649,-0.0,-0.08,0.94,2.87,5.92,2.38,909.41,25.52,
3178687,-0.01,-0.08,0.93,2.62,5.55,2.14,909.41,25.52,
3178725,-0.01,-0.09,0.93,2.87,4.58,2.2,909.4,25.52,
3178801,0.0,-0.09,0.95,2.75,4.15,2.01,909.36,25.5,
3178839,-0.01,-0.08,0.93,2.62,3.78,1.83,909.34,25.5,
3178877,-0.0,-0.08,0.95,2.69,2.87,1.77,909.35,25.5,
3178967,-0.02,-0.08,0.94,3.05,2.26,1.59,909.34,25.47,
3179005,-0.01,-0.08,0.93,2.99,2.99,1.4,909.3,25.49,
3179044,0.01,-0.08,0.92,3.23,2.56,1.1,909.33,25.5,
3179082,-0.0,-0.07,0.93,3.36,2.26,1.1,909.31,25.5,
3179120,-0.01,-0.08,0.91,3.3,2.44,0.98,909.26,25.49,
3179158,-0.01,-0.08,0.92,2.99,2.69,0.98,909.31,25.49,
3179208,-0.01,-0.08,0.93,2.87,2.75,0.67,909.23,25.5,
3179246,-0.03,-0.08,0.95,2.56,3.11,0.55,909.24,25.5,
3179285,-0.01,-0.08,0.96,2.44,3.17,0.55,909.25,25.5,
3179323,-0.01,-0.08,0.96,2.38,3.42,0.31,909.28,25.5,
3179361,-0.03,-0.07,0.97,2.32,3.66,0.49,909.21,25.5,
3179399,-0.02,-0.07,0.99,2.56,3.72,0.37,909.25,25.5,
3179437,-0.02,-0.08,0.99,2.75,3.54,0.49,909.27,25.5,
3179476,-0.01,-0.07,0.99,2.99,3.72,0.37,909.23,25.51,
3179514,-0.02,-0.08,0.98,3.3,3.85,0.43,909.2,25.51,
3179552,-0.03,-0.08,0.97,3.66,4.09,0.37,909.21,25.5,
3179602,-0.02,-0.08,0.95,3.54,4.46,0.31,909.22,25.5,
3179640,-0.02,-0.07,0.97,3.6,4.39,0.24,909.15,25.51,
3179678,-0.03,-0.07,0.93,3.36,4.58,0.24,909.15,25.5,
3179717,-0.02,-0.08,0.93,3.23,4.82,0.31,909.13,25.5,
3179755,-0.04,-0.08,0.94,3.42,4.52,0.12,909.2,25.52,
3179793,-0.01,-0.08,0.94,3.36,5.19,0.24,909.11,25.52,
3179831,-0.02,-0.08,0.96,3.42,4.82,0.24,909.09,25.51,
3179870,-0.02,-0.07,0.95,3.66,4.94,0.18,909.12,25.52,
3179908,-0.04,-0.07,0.97,4.03,4.21,0.37,909.09,25.51,
3179946,-0.05,-0.08,0.94,4.09,4.76,0.43,909.12,25.51,
3179996,-0.03,-0.08,0.94,4.58,3.42,0.31,909.17,25.5,
3180034,-0.04,-0.08,0.91,4.33,3.05,0.55,909.12,25.52,
3180072,-0.06,-0.08,0.89,4.46,2.69,0.85,909.09,25.52,
3180110,-0.03,-0.08,0.87,4.39,2.93,0.61,909.05,25.51,
3180149,-0.02,-0.07,0.91,4.39,2.56,0.73,909.01,25.52,
3180187,-0.04,-0.08,0.86,4.33,2.38,1.16,909.02,25.52,
3180225,-0.04,-0.08,0.87,4.09,1.59,0.92,909.06,25.52,
3180263,-0.03,-0.08,0.91,3.54,1.46,0.98,909.04,25.52,
3180301,-0.04,-0.09,0.88,3.17,1.71,1.22,909.01,25.52,
3180351,-0.05,-0.08,0.92,3.36,1.53,1.16,909.0,25.5,
3180389,-0.04,-0.08,0.89,2.75,2.32,1.1,909.06,25.52,
3180428,-0.04,-0.07,0.98,3.11,1.1,1.34,908.99,25.53,
3180466,-0.02,-0.09,0.93,2.5,2.5,1.34,908.97,25.52,
3180504,-0.03,-0.07,1.0,2.62,2.08,1.28,908.96,25.51,
3180542,-0.03,-0.09,1.03,2.62,2.87,1.46,908.99,25.51,
3180580,-0.03,-0.08,1.06,2.32,2.87,1.34,909.03,25.51,
3180619,-0.05,-0.07,1.11,2.38,3.6,1.28,909.05,25.52,
3180657,-0.05,-0.08,1.11,1.77,4.64,1.28,908.99,25.52,
3180695,-0.03,-0.08,1.17,2.14,4.64,1.34,908.94,25.52,
3180745,-0.04,-0.08,1.15,0.98,7.93,1.16,909.0,25.51,
3180783,-0.02,-0.08,1.22,0.92,6.9,1.46,908.96,25.51,
3180821,-0.0,-0.07,1.16,0.18,5.31,1.59,908.9,25.51,
3180860,-0.06,-0.08,1.08,0.31,3.42,1.77,908.91,25.52,
3180898,-0.03,-0.08,1.03,-0.37,3.36,1.65,908.88,25.52,
3180936,-0.0,-0.07,1.07,-0.43,0.98,1.65,908.87,25.52,
3180974,0.01,-0.08,1.12,-0.06,-2.01,1.65,908.82,25.51,
3181012,-0.03,-0.09,1.05,-0.18,-4.39,1.71,908.85,25.53,
3181051,-0.04,-0.08,1.07,0.73,-6.1,1.71,908.86,25.52,
3181089,-0.08,-0.08,0.93,0.98,-6.41,1.83,908.88,25.52,
3181139,-0.05,-0.09,0.89,2.81,-6.35,2.14,908.89,25.5,
3181177,-0.08,-0.09,0.75,3.54,-4.7,1.83,908.89,25.52,
3181215,-0.08,-0.09,0.77,4.21,-3.05,1.95,908.87,25.51,
3181253,-0.04,-0.11,0.6,2.75,2.56,1.83,908.82,25.51,
3181292,-0.11,-0.06,0.71,3.11,3.91,2.08,908.84,25.51,
3181330,-0.05,-0.12,0.65,2.44,7.81,2.62,908.76,25.5,
3181368,-0.03,-0.11,0.59,0.92,10.31,2.26,908.85,25.51,
3181406,-0.03,-0.08,0.68,1.1,9.22,2.14,908.86,25.52,
3181445,-0.04,-0.08,0.66,1.22,9.46,2.56,908.81,25.52,
3181495,0.01,-0.07,0.7,-0.37,7.57,2.2,908.81,25.51,
3181533,-0.03,-0.11,0.73,0.79,5.92,2.32,908.79,25.51,
3181571,-0.04,-0.09,0.75,-0.43,4.27,2.75,908.83,25.51,
3181609,-0.01,-0.08,0.82,0.37,4.21,2.62,908.79,25.51,
3181647,-0.01,-0.09,0.86,-15.5,1.83,2.26,908.82,25.52,
3181686,-0.03,-0.09,0.93,0.0,0.92,2.5,908.77,25.52,
3181724,-0.02,-0.08,1.01,0.18,1.59,2.44,908.81,25.52,
3181762,-0.03,-0.08,1.13,0.49,2.5,2.26,908.79,25.51,
3181800,-0.01,-0.08,1.19,0.06,1.89,2.32,908.8,25.52,
3181838,-0.05,-0.07,1.29,0.37,2.01,2.26,908.75,25.51,
3181914,-0.02,-0.08,1.47,0.55,2.44,1.95,908.76,25.48,
3181953,-0.01,-0.07,1.47,0.73,2.5,2.08,908.84,25.5,
3181991,-0.01,-0.08,1.45,0.73,3.23,2.2,908.81,25.49,
3182080,-0.04,-0.09,1.25,1.95,2.38,2.08,908.81,25.46,
3182119,-0.04,-0.09,1.14,2.01,3.11,1.83,908.82,25.49,
3182157,0.02,-0.09,1.09,1.89,2.32,1.65,908.8,25.49,
3182195,0.01,-0.1,1.05,2.56,1.71,1.89,908.78,25.48,
3182233,-0.02,-0.1,0.95,1.65,2.08,1.95,908.78,25.5,
3182271,0.0,-0.09,0.99,2.14,1.95,1.53,908.76,25.5,
3182321,-0.02,-0.1,0.89,1.65,1.22,1.65,908.77,25.5,
3182360,-0.02,-0.1,0.86,1.46,0.06,1.59,908.79,25.51,
3182398,0.01,-0.1,0.92,1.95,0.67,1.1,908.73,25.5,
3182436,0.01,-0.1,0.86,1.65,0.49,0.92,908.71,25.49,
3182474,-0.03,-0.08,0.76,1.1,-0.79,1.04,908.69,25.48,
3182512,-0.01,-0.08,0.81,1.46,-0.79,0.85,908.7,25.51,
3182551,0.0,-0.11,0.72,0.55,-0.12,0.79,908.67,25.51,
3182589,0.01,-0.09,0.68,0.61,-1.95,0.67,908.72,25.51,
3182627,-0.04,-0.09,0.62,1.59,-2.26,0.67,908.66,25.5,
3182665,-0.02,-0.09,0.56,1.53,-2.2,0.61,908.68,25.51,
3182715,-0.03,-0.08,0.59,1.4,-2.38,0.61,908.67,25.5,
3182753,-0.01,-0.1,0.56,1.71,-1.95,0.49,908.66,25.51,
3182791,-0.05,-0.09,0.54,1.65,-0.12,0.49,908.6,25.51,
3182830,-0.05,-0.09,0.61,1.71,1.04,0.49,908.57,25.5,
3182868,-0.05,-0.09,0.63,1.28,2.99,0.55,908.61,25.5,
3182906,-0.06,-0.1,0.69,0.79,4.09,0.55,908.6,25.5,
3182944,-0.05,-0.1,0.74,0.37,5.55,0.43,908.64,25.51,
3182983,-0.05,-0.09,0.77,0.31,6.96,0.43,908.59,25.53,
3183021,-0.02,-0.09,0.85,0.18,7.26,0.61,908.63,25.5,
3183059,-0.04,-0.09,0.85,0.12,8.67,0.79,908.63,25.51,
3183109,-0.04,-0.09,0.93,-0.18,9.7,0.85,908.61,25.5,
3183147,-0.02,-0.09,0.97,0.06,10.8,0.92,908.61,25.5,
3183185,-0.05,-0.09,1.02,0.31,9.46,0.98,908.65,25.51,
3183224,-0.03,-0.1,0.98,0.18,9.16,1.1,908.67,25.5,
3183262,-0.02,-0.08,1.06,0.06,8.61,1.22,908.65,25.51,
3183300,0.0,-0.09,1.1,-0.06,7.75,1.59,908.61,25.51,
3183338,-0.03,-0.09,1.13,-0.61,6.41,1.77,908.63,25.51,
3183376,-0.05,-0.09,1.18,-0.61,5.07,1.95,908.68,25.5,
3183415,-0.02,-0.09,1.21,-0.73,3.91,1.83,908.64,25.51,
3183465,-0.02,-0.06,1.25,-0.73,1.77,2.01,908.62,25.49,
3183503,-0.0,-0.08,1.23,-0.31,2.14,1.95,908.73,25.52,
3183541,-0.03,-0.08,1.22,-0.24,1.46,1.95,908.7,25.51,
3183579,-0.03,-0.09,1.25,0.31,1.16,2.44,908.7,25.5,
3183617,-0.01,-0.09,1.17,0.49,1.34,2.2,908.72,25.51,
3183656,-0.02,-0.07,1.17,0.85,1.46,1.89,908.74,25.51,
3183694,-0.01,-0.08,1.11,0.92,1.95,2.01,908.7,25.51,
3183732,-0.02,-0.08,1.1,1.46,1.71,1.95,908.67,25.5,
3183770,-0.01,-0.1,1.05,1.77,2.44,1.89,908.68,25.49,
3183808,0.01,-0.08,1.02,1.95,2.08,1.77,908.62,25.48,
3183858,0.0,-0.1,0.95,2.62,2.99,1.71,908.73,25.49,
3183897,0.0,-0.08,0.89,2.75,2.75,1.28,908.68,25.49,
3183935,-0.0,-0.09,0.86,3.23,3.78,1.22,908.71,25.5,
3183973,0.02,-0.09,0.77,3.23,3.97,0.92,908.67,25.5,
3184011,-0.0,-0.08,0.71,3.36,4.27,0.73,908.71,25.5,
3184049,0.01,-0.09,0.68,3.11,5.07,0.67,908.66,25.49,
3184088,0.01,-0.09,0.66,2.87,4.7,0.37,908.6,25.48,
3184126,0.01,-0.09,0.68,2.32,4.82,0.37,908.67,25.49,
3184164,0.03,-0.08,0.66,1.71,3.72,0.24,908.62,25.5,
3184202,0.01,-0.08,0.67,1.16,2.38,0.06,908.64,25.49,
3184252,0.02,-0.1,0.68,0.61,1.65,-0.12,908.59,25.5,
3184291,0.01,-0.09,0.77,0.06,0.92,-0.24,908.68,25.5,
3184329,0.02,-0.08,0.83,-0.12,0.67,-0.24,908.62,25.5,
3184367,0.01,-0.08,0.89,-0.49,0.61,-0.24,908.59,25.49,
3184405,-0.01,-0.09,0.95,-0.55,0.79,-0.49,908.64,25.51,
3184443,-0.0,-0.09,0.99,-0.49,1.04,-0.67,908.66,25.49,
3184482,0.01,-0.09,1.01,-0.18,1.65,-0.98,908.63,25.5,
3184520,-0.0,-0.08,1.0,0.18,1.83,-1.16,908.7,25.5,
3184558,-0.0,-0.08,1.02,0.67,1.65,-1.22,908.75,25.5,
3184608,0.01,-0.09,1.02,1.22,2.75,-1.53,908.72,25.49,
3184646,0.01,-0.08,1.02,1.53,2.44,-1.46,908.68,25.49,
3184685,-0.01,-0.08,1.03,1.83,2.56,-1.59,908.74,25.5,
3184723,-0.02,-0.1,0.95,1.89,3.42,-1.89,908.7,25.49,
3184761,0.01,-0.09,0.97,1.95,3.05,-2.14,908.77,25.5,
3184799,-0.0,-0.09,0.98,2.26,3.11,-1.95,908.72,25.5,
3184837,-0.01,-0.08,0.94,2.38,3.36,-2.14,908.67,25.49,
3184876,-0.03,-0.08,0.99,2.69,3.54,-2.26,908.74,25.5,
3184914,-0.03,-0.09,0.95,2.14,4.21,-2.26,908.65,25.5,
3184952,-0.01,-0.08,1.11,2.5,3.78,-2.5,908.71,25.49,
3185028,-0.05,-0.05,1.18,2.38,6.04,-2.62,908.66,25.47,
3185066,-0.04,-0.08,1.18,2.14,7.87,-2.56,908.67,25.49,
3185105,-0.03,-0.09,1.16,1.89,8.85,-2.44,908.71,25.5,
3185194,-0.03,-0.08,1.17,2.01,8.61,-2.56,908.68,25.45,
3185232,-0.06,-0.06,1.25,2.01,9.64,-2.62,908.64,25.46,
3185271,-0.04,-0.07,1.28,1.95,11.23,-2.44,908.6,25.45,
3185309,-0.05,-0.07,1.28,1.95,10.93,-2.44,908.68,25.47,
3185347,-0.08,-0.08,1.28,2.14,12.33,-2.01,908.7,25.47,
3185385,-0.04,-0.08,1.22,2.2,13.06,-2.32,908.68,25.46,
3185435,-0.06,-0.06,1.2,2.56,11.6,-1.95,908.67,25.47,
3185474,-0.03,-0.08,1.11,2.5,10.86,-1.71,908.62,25.47,
3185512,-0.06,-0.08,1.03,2.08,10.93,-1.59,908.64,25.47,
3185550,-0.05,-0.07,1.04,2.2,9.64,-1.46,908.64,25.48,
3185588,-0.05,-0.07,1.03,1.89,8.3,-1.4,908.57,25.48,
3185627,-0.08,-0.09,1.0,1.28,8.24,-1.22,908.64,25.49,
3185665,-0.03,-0.08,1.06,1.4,7.26,-1.1,908.64,25.5,
3185703,-0.05,-0.09,1.0,1.04,6.84,-0.73,908.6,25.48,
3185741,-0.04,-0.07,1.04,1.22,3.91,-0.79,908.65,25.49,
3185780,-0.04,-0.08,0.97,0.98,5.13,-0.73,908.59,25.49,
3185830,-0.03,-0.08,1.0,1.22,3.05,-0.61,908.66,25.48,
3185868,-0.03,-0.1,0.96,1.04,3.36,-0.61,908.55,25.48,
3185906,-0.07,-0.08,0.99,0.73,2.99,-0.61,908.59,25.48,
3185944,-0.05,-0.09,1.0,1.16,3.54,-0.61,908.56,25.49,
3185982,-0.01,-0.08,0.91,-0.12,3.3,-0.79,908.59,25.49,
3186021,-0.04,-0.06,0.99,0.55,2.14,-0.49,908.53,25.49,
3186059,-0.05,-0.1,0.88,-0.31,3.66,-0.24,908.55,25.48,
3186097,-0.04,-0.07,1.0,-0.06,1.53,-0.43,908.57,25.48,
3186135,-0.01,-0.09,1.06,0.37,1.59,-0.49,908.59,25.49,
3186185,-0.04,-0.07,1.07,0.31,-0.18,0.0,908.53,25.48,
3186224,-0.03,-0.08,1.1,1.04,0.06,-0.24,908.6,25.49,
3186262,-0.02,-0.08,1.08,0.67,-0.06,-0.24,908.54,25.48,
3186300,-0.05,-0.07,1.11,1.16,-0.73,0.0,908.57,25.5,
3186338,-0.02,-0.09,1.07,0.85,-0.43,-0.18,908.55,25.5,
3186376,-0.04,-0.07,1.1,1.04,-0.67,-0.37,908.54,25.49,
3186415,-0.03,-0.08,1.04,0.67,0.24,-0.24,908.55,25.49,
3186453,-0.05,-0.08,1.06,1.1,0.37,-0.37,908.58,25.49,
3186491,-0.03,-0.09,1.05,1.16,0.73,-0.49,908.56,25.49,
3186541,-0.03,-0.08,1.0,1.59,1.4,-0.49,908.61,25.49,
3186579,-0.05,-0.08,1.0,1.83,2.38,-0.55,908.6,25.48,
3186617,-0.02,-0.1,0.92,1.71,3.72,-0.61,908.62,25.49,
3186656,-0.02,-0.09,0.89,1.4,3.6,-0.67,908.54,25.49,
3186694,-0.03,-0.09,0.82,1.1,3.11,-0.61,908.57,25.5,
3186732,-0.04,-0.08,0.83,0.73,2.14,-0.61,908.57,25.49,
3186770,-0.02,-0.07,0.85,0.18,0.92,-0.79,908.52,25.49,
3186809,-0.03,-0.07,0.87,0.12,0.31,-0.79,908.52,25.49,
3186847,-0.04,-0.09,0.89,0.0,-0.06,-0.79,908.53,25.49,
3186885,-0.02,-0.09,0.96,0.0,-0.43,-0.85,908.54,25.49,
3186935,-0.04,-0.08,0.97,0.06,0.0,-0.92,908.56,25.47,
3186973,-0.03,-0.08,0.96,0.31,1.04,-0.85,908.6,25.47,
3187011,-0.03,-0.08,0.98,0.61,1.46,-1.04,908.58,25.49,
3187050,-0.03,-0.08,0.95,1.16,1.04,-1.1,908.61,25.49,
3187088,-0.03,-0.08,0.93,1.16,1.1,-0.98,908.54,25.5,
3187126,-0.01,-0.08,0.94,1.34,1.59,-1.1,908.55,25.49,
3187164,-0.02,-0.08,0.98,1.65,0.37,-1.1,908.62,25.49,
3187202,-0.0,-0.08,1.02,1.53,-0.73,-1.1,908.57,25.49,
3187241,-0.05,-0.08,1.0,1.89,-0.61,-1.04,908.57,25.48,
3187291,-0.03,-0.08,1.1,2.5,-1.53,-0.98,908.58,25.48,
3187329,-0.02,-0.08,1.15,2.81,-1.77,-1.22,908.59,25.48,
3187367,-0.03,-0.09,1.1,2.93,-1.22,-1.46,908.58,25.49,
3187405,-0.0,-0.07,1.19,3.42,-1.1,-1.46,908.58,25.48,
3187444,-0.0,-0.09,1.09,3.23,0.18,-1.46,908.64,25.49,
3187482,-0.04,-0.08,1.05,3.66,-0.31,-1.53,908.59,25.49,
3187520,-0.06,-0.09,0.98,3.91,0.73,-1.59,908.58,25.47,
3187558,-0.03,-0.08,0.99,3.85,1.46,-1.53,908.62,25.5,
3187597,-0.03,-0.08,0.98,4.21,1.16,-1.59,908.53,25.49,
3187635,-0.05,-0.08,0.97,4.21,0.67,-1.28,908.56,25.49,
3187685,-0.06,-0.09,0.89,3.78,2.14,-1.28,908.6,25.49,
3187723,-0.03,-0.08,0.93,3.6,1.53,-1.34,908.53,25.49,
3187761,-0.05,-0.09,0.87,3.42,2.81,-1.04,908.53,25.47,
3187799,-0.04,-0.09,0.72,2.44,3.66,-1.16,908.51,25.49,
3187838,-0.04,-0.07,0.84,2.81,3.48,-1.1,908.5,25.49,
3187876,-0.05,-0.1,0.75,2.14,3.6,-0.85,908.48,25.49,
3187914,-0.06,-0.08,0.84,1.83,2.81,-0.73,908.51,25.49,
3187952,-0.05,-0.1,0.82,1.77,4.33,-0.73,908.51,25.49,
3187991,-0.03,-0.08,0.91,1.28,3.11,-0.67,908.48,25.49,
3188068,-0.04,-0.08,0.93,0.49,2.81,-0.37,908.48,25.47,
3188106,-0.03,-0.08,0.98,1.1,2.26,-0.24,908.46,25.47,
3188144,-0.02,-0.09,0.99,0.43,1.28,0.0,908.54,25.48,
3188235,-0.04,-0.08,1.11,0.73,1.89,0.06,908.5,25.44,
3188273,-0.03,-0.08,1.14,1.1,1.16,0.18,908.47,25.46,
3188311,-0.07,-0.08,1.09,0.98,1.16,0.24,908.51,25.47,
3188349,-0.07,-0.08,1.13,1.22,2.81,0.31,908.48,25.47,
3188387,-0.03,-0.07,1.18,1.28,2.44,0.31,908.49,25.47,
3188426,-0.06,-0.08,1.17,1.4,1.83,0.43,908.48,25.47,
3188464,-0.07,-0.08,1.17,1.28,2.44,0.61,908.52,25.48,
3188514,-0.06,-0.09,1.23,1.53,2.87,0.85,908.52,25.47,
3188552,-0.05,-0.09,1.18,1.34,2.01,0.85,908.57,25.48,
3188590,-0.05,-0.08,1.16,1.83,2.01,0.98,908.56,25.48,
3188628,-0.04,-0.09,1.06,1.59,3.11,1.22,908.52,25.48,
3188667,-0.04,-0.08,1.02,2.01,2.81,0.92,908.57,25.49,
3188705,-0.07,-0.07,1.01,1.89,2.75,1.53,908.51,25.49,
3188743,-0.04,-0.09,0.99,1.89,2.62,1.65,908.48,25.49,
3188781,-0.05,-0.08,0.99,1.89,3.05,1.46,908.52,25.49,
3188819,-0.06,-0.09,0.96,1.95,2.87,1.89,908.49,25.49,
3188869,-0.06,-0.08,0.93,2.38,2.38,1.89,908.53,25.48,
3188908,-0.05,-0.08,0.94,2.2,2.56,2.14,908.46,25.49,
3188946,-0.03,-0.09,0.92,2.56,1.83,2.44,908.51,25.49,
3188984,-0.06,-0.09,0.9,2.01,2.01,2.32,908.38,25.49,
3189022,-0.05,-0.08,0.85,2.14,2.01,2.5,908.46,25.49,
3189060,-0.05,-0.08,0.89,2.2,1.77,2.56,908.42,25.48,
3189099,-0.05,-0.1,0.89,2.08,1.53,2.69,908.41,25.48,
3189137,-0.06,-0.09,0.91,1.89,0.92,2.69,908.36,25.49,
3189175,-0.08,-0.09,0.9,2.2,2.93,2.87,908.43,25.48,
3189213,-0.06,-0.09,0.95,2.14,3.17,2.93,908.4,25.49,
3189263,-0.07,-0.1,1.02,2.01,3.78,3.05,908.42,25.46,
3189301,-0.07,-0.07,1.08,1.89,4.94,3.23,908.34,25.47,
3189340,-0.06,-0.09,1.13,2.14,6.65,3.3,908.42,25.49,
3189378,-0.05,-0.09,1.1,1.95,7.08,3.66,908.35,25.49,
3189416,-0.06,-0.07,1.2,2.93,5.68,3.91,908.34,25.48,
3189454,-0.03,-0.09,1.16,2.62,7.02,3.97,908.39,25.48,
3189492,-0.04,-0.08,1.16,3.05,5.0,4.03,908.39,25.49,
3189531,-0.07,-0.08,1.13,2.87,3.85,4.58,908.36,25.49,
3189569,-0.07,-0.09,1.02,2.56,3.6,4.64,908.41,25.49,
3189607,-0.04,-0.08,1.04,2.81,2.56,4.52,908.36,25.5,
3189657,-0.04,-0.09,0.91,1.59,2.08,4.94,908.3,25.47,
3189695,-0.07,-0.09,0.93,2.01,1.71,5.0,908.38,25.48,
3189733,-0.04,-0.1,0.84,0.92,2.44,5.37,908.29,25.47,
3189771,-0.03,-0.08,0.89,0.49,0.06,5.25,908.33,25.49,
3189810,-0.06,-0.1,0.85,0.18,-0.37,5.43,908.36,25.49,
3189848,-0.05,-0.1,0.88,-0.24,-0.12,5.43,908.45,25.49,
3189886,-0.03,-0.09,0.89,0.0,-0.79,5.55,908.4,25.49,
3189924,-0.02,-0.1,0.86,-0.12,-0.49,5.49,908.41,25.49,
3189963,-0.0,-0.1,0.81,-0.24,0.43,5.43,908.41,25.49,
3190012,-0.02,-0.09,0.81,-0.06,2.01,5.31,908.43,25.47,
3190051,-0.02,-0.09,0.78,0.24,2.32,5.49,908.39,25.48,
3190089,-0.01,-0.08,0.79,-0.18,1.28,5.13,908.45,25.49,
3190127,-0.02,-0.09,0.76,0.24,2.32,5.07,908.42,25.47,
3190165,-0.01,-0.08,0.91,0.37,1.46,5.0,908.38,25.48,
3190204,0.01,-0.11,0.87,0.37,2.32,4.94,908.42,25.49,
3190242,-0.02,-0.08,0.9,0.18,2.44,4.52,908.4,25.49,
3190280,-0.02,-0.08,0.92,0.24,4.39,4.64,908.38,25.48,
3190318,-0.0,-0.09,0.95,0.06,3.66,4.58,908.42,25.49,
