timestamp,acc_x,acc_y,acc_z,rot_x,rot_y,rot_z,qfe,temp
4929523,-0.03,-0.02,1.13,-0.18,7.26,-1.77,887.3,31.19
4929561,-0.03,-0.01,1.16,0.06,7.93,-1.83,887.32,31.19
4929599,-0.03,-0.03,1.18,0.24,7.45,-1.89,887.3,31.19
4929649,-0.05,-0.02,1.16,0.24,7.87,-1.77,887.33,31.17
4929688,-0.03,-0.02,1.15,-0.12,7.14,-1.65,887.29,31.18
4929726,-0.02,-0.01,1.19,-0.24,6.23,-1.89,887.29,31.19
4929764,-0.04,-0.01,1.2,-0.24,5.43,-1.71,887.3,31.19
4929802,-0.04,-0.03,1.21,0.12,5.62,-1.4,887.29,31.2
4929840,-0.03,-0.02,1.21,0.24,4.76,-1.77,887.31,31.19
4929878,-0.02,-0.01,1.2,0.55,3.66,-1.59,887.28,31.2
4929917,-0.02,-0.02,1.17,0.61,2.5,-1.46,887.26,31.19
4929955,-0.02,-0.03,1.16,0.79,2.08,-1.53,887.2,31.2
4929993,-0.03,-0.04,1.11,0.85,0.12,-1.59,887.2,31.2
4930043,-0.05,-0.03,1.13,0.92,-1.4,-1.53,887.21,31.19
4930081,-0.04,-0.04,1.05,0.67,-1.89,-1.59,887.18,31.2
4930119,-0.06,-0.02,1.09,0.92,-3.6,-1.53,887.1,31.2
4930158,-0.04,-0.04,1.05,0.73,-3.72,-1.53,887.14,31.2
4930196,-0.05,-0.05,1.07,0.43,-4.58,-1.34,887.12,31.2
4930234,-0.06,-0.03,1.08,0.61,-4.82,-1.34,887.12,31.2
4930272,-0.06,-0.03,1.02,0.37,-4.58,-1.4,887.14,31.2
4930310,-0.06,-0.03,1.06,0.43,-5.43,-1.22,887.13,31.2
4930348,-0.06,-0.04,1.02,0.61,-5.68,-1.34,887.11,31.2
4930398,-0.06,-0.03,1.03,0.37,-5.92,-1.28,887.08,31.19
4930436,-0.03,-0.04,1.04,0.43,-6.29,-1.4,887.04,31.19
4930475,-0.05,-0.04,1.06,0.61,-7.32,-1.34,887.08,31.2
4930513,-0.07,-0.04,1.02,0.37,-6.53,-1.16,887.06,31.19
4930551,-0.07,-0.03,1.04,0.67,-6.35,-1.28,887.03,31.18
4930589,-0.05,-0.04,1.04,0.55,-5.86,-1.53,887.04,31.19
4930627,-0.07,-0.04,1.03,0.49,-6.41,-1.46,887.01,31.19
4930666,-0.07,-0.03,1.08,0.67,-5.37,-1.65,887.02,31.2
4930704,-0.05,-0.04,1.06,0.67,-4.88,-1.71,887.0,31.19
4930754,-0.07,-0.03,1.07,0.61,-5.25,-1.71,887.05,31.18
4930792,-0.09,-0.04,1.05,0.85,-5.68,-1.53,886.97,31.2
4930830,-0.09,-0.05,1.04,0.67,-5.62,-1.4,886.99,31.2
4930868,-0.07,-0.03,1.04,0.67,-6.16,-1.4,886.98,31.2
4930906,-0.08,-0.04,0.98,0.55,-6.29,-1.34,886.99,31.2
4930945,-0.06,-0.04,0.96,-0.06,-6.41,-1.04,887.09,31.2
4930983,-0.06,-0.03,0.99,0.37,-5.68,-1.1,886.99,31.19
4931021,-0.07,-0.05,0.95,0.43,-5.68,-0.85,886.99,31.2
4931059,-0.08,-0.05,0.91,0.31,-5.55,-0.92,887.01,31.22
4931097,-0.08,-0.04,0.9,0.24,-5.37,-1.04,886.97,31.21
4931147,-0.06,-0.05,0.88,-0.12,-5.0,-0.85,886.97,31.19
4931185,-0.07,-0.05,0.9,-0.24,-5.07,-0.92,886.96,31.2
4931223,-0.08,-0.05,0.89,-0.37,-4.52,-0.73,886.94,31.19
4931262,-0.08,-0.05,0.92,-0.49,-4.7,-0.79,886.96,31.19
4931300,-0.1,-0.04,0.93,-0.49,-4.33,-0.49,887.03,31.2
4931338,-0.09,-0.04,0.97,-0.43,-4.52,-0.37,886.95,31.19
4931376,-0.09,-0.04,0.98,-0.67,-3.6,-0.12,887.04,31.2
4931414,-0.09,-0.04,1.02,-0.31,-3.91,0.18,887.0,31.19
4931452,-0.08,-0.04,1.02,0.18,-2.5,0.37,887.03,31.19
4931528,-0.1,-0.02,1.01,0.79,-1.77,0.85,887.02,31.17
4931566,-0.08,-0.04,0.98,1.16,-0.79,1.22,887.02,31.19
4931605,-0.08,-0.03,0.99,1.65,-1.04,1.04,886.99,31.19
4931694,-0.06,-0.04,0.94,2.69,-0.73,1.83,887.04,31.17
4931732,-0.08,-0.03,0.95,3.3,-0.06,1.89,886.99,31.16
4931771,-0.07,-0.05,0.93,3.23,-1.04,2.32,886.97,31.16
4931809,-0.08,-0.04,0.99,3.36,-0.85,2.5,887.03,31.19
4931847,-0.08,-0.04,0.96,3.3,-1.34,2.81,887.0,31.19
4931885,-0.06,-0.05,1.01,3.17,-1.83,2.93,887.08,31.19
4931935,-0.06,-0.05,0.95,3.42,-2.62,3.3,886.94,31.18
4931973,-0.06,-0.05,0.97,3.54,-2.62,3.42,887.0,31.19
4932011,-0.04,-0.06,0.87,3.54,-2.87,3.48,886.98,31.19
4932049,-0.06,-0.03,0.93,3.54,-4.7,3.78,886.97,31.19
4932088,-0.05,-0.06,0.88,3.42,-4.03,3.72,886.92,31.19
4932126,-0.04,-0.07,0.85,3.17,-5.74,3.91,886.97,31.19
4932164,-0.05,-0.04,0.9,3.17,-7.14,4.09,886.9,31.19
4932202,-0.06,-0.07,0.81,3.11,-7.39,4.09,886.91,31.2
4932240,-0.05,-0.06,0.83,2.75,-8.12,4.21,886.93,31.2
4932278,-0.05,-0.05,0.81,2.44,-7.93,4.15,886.89,31.2
4932328,-0.07,-0.06,0.78,2.44,-7.75,4.39,886.99,31.2
4932367,-0.05,-0.05,0.8,2.14,-7.08,4.03,886.98,31.2
4932405,-0.06,-0.05,0.83,2.44,-6.04,4.15,886.99,31.2
4932443,-0.06,-0.06,0.81,2.08,-4.82,4.39,886.97,31.19
4932481,-0.06,-0.05,0.84,2.14,-3.6,4.21,886.93,31.19
4932519,-0.06,-0.05,0.84,1.95,-1.53,4.27,886.96,31.2
4932557,-0.06,-0.05,0.85,1.71,-0.73,4.58,886.98,31.19
4932596,-0.05,-0.06,0.87,1.95,0.67,4.33,887.02,31.18
4932634,-0.04,-0.05,0.85,1.65,1.53,4.15,887.07,31.19
4932683,-0.02,-0.05,0.91,1.89,2.69,4.39,886.99,31.18
4932722,-0.02,-0.06,0.89,1.77,3.36,4.15,887.01,31.18
4932760,-0.04,-0.05,0.93,1.77,3.78,3.97,887.03,31.2
4932798,-0.03,-0.06,0.93,1.83,4.03,4.03,887.01,31.17
4932836,-0.02,-0.05,0.95,1.77,3.91,3.91,887.04,31.19
4932874,-0.03,-0.05,0.96,1.83,3.72,3.97,886.95,31.18
4932913,-0.03,-0.05,0.96,1.77,3.54,4.03,886.96,31.18
4932951,-0.02,-0.05,0.96,1.53,3.72,3.91,887.04,31.19
4932989,-0.03,-0.04,0.96,1.59,3.72,3.91,886.93,31.18
4933027,-0.03,-0.04,0.95,1.89,3.85,3.85,886.99,31.19
4933077,-0.03,-0.04,0.95,1.28,3.72,3.97,887.06,31.19
4933115,-0.02,-0.05,0.96,1.34,3.72,3.6,886.99,31.2
4933153,-0.02,-0.05,0.97,1.22,3.66,3.6,886.98,31.19
4933192,-0.03,-0.05,0.98,1.22,3.97,3.54,887.04,31.17
4933230,-0.01,-0.05,0.98,1.22,4.03,3.66,886.94,31.18
4933268,-0.01,-0.05,1.01,1.16,3.78,3.48,886.98,31.2
4933306,-0.02,-0.05,0.98,1.1,3.72,3.3,887.0,31.19
4933344,-0.02,-0.05,0.97,1.1,2.81,3.3,886.97,31.19
4933382,-0.01,-0.04,0.98,1.04,2.75,3.05,887.0,31.19
4933421,-0.01,-0.05,0.97,1.04,2.32,3.23,886.97,31.19
4933471,-0.02,-0.05,0.98,0.92,2.44,2.93,887.0,31.18
4933509,-0.02,-0.05,0.99,0.85,2.44,2.69,886.99,31.18
4933547,-0.02,-0.05,0.99,1.04,2.14,2.75,886.93,31.19
4933585,-0.03,-0.05,0.96,0.98,2.08,2.62,886.98,31.19
4933623,-0.02,-0.05,0.98,1.04,2.26,2.32,887.02,31.19
4933661,-0.02,-0.05,0.96,1.1,3.3,2.2,886.94,31.19
4933700,-0.01,-0.05,0.96,1.1,3.42,2.2,886.99,31.19
4933738,-0.04,-0.05,0.97,1.1,4.09,2.08,886.96,31.19
4933776,-0.03,-0.05,0.98,1.16,4.33,1.83,886.95,31.19
4933826,-0.02,-0.04,1.0,1.28,4.94,1.59,886.95,31.18
4933864,-0.03,-0.05,0.99,0.92,4.94,1.59,886.97,31.19
4933902,-0.03,-0.04,1.01,0.85,5.25,1.53,886.96,31.21
4933940,-0.02,-0.05,1.02,0.98,5.62,1.53,887.0,31.21
4933979,-0.03,-0.05,1.03,0.98,4.58,1.46,886.99,31.2
4934017,-0.04,-0.05,1.0,1.1,4.76,1.71,887.01,31.2
4934055,-0.04,-0.05,0.99,1.28,4.33,1.53,886.98,31.2
4934093,-0.02,-0.05,0.98,1.34,4.52,1.46,886.95,31.2
4934131,-0.03,-0.05,0.96,1.16,4.15,1.59,886.97,31.2
4934169,-0.03,-0.05,0.97,1.16,4.33,1.46,887.0,31.21
4934219,-0.04,-0.05,1.0,1.22,4.09,1.53,886.98,31.19
4934257,-0.04,-0.04,1.03,1.22,4.09,1.65,886.98,31.2
4934296,-0.04,-0.04,1.03,1.16,3.91,1.46,887.01,31.19
4934334,-0.03,-0.04,1.05,1.16,4.09,1.53,886.95,31.19
4934372,-0.03,-0.05,1.03,1.22,4.39,1.46,886.96,31.2
4934410,-0.05,-0.04,1.01,1.22,4.52,1.53,886.95,31.21
4934448,-0.04,-0.05,0.99,1.65,4.88,1.34,886.98,31.21
4934487,-0.05,-0.05,0.95,1.59,5.31,1.59,887.0,31.21
4934525,-0.05,-0.04,0.96,1.83,5.62,1.4,887.0,31.22
4934563,-0.04,-0.05,0.92,1.95,6.04,1.59,886.94,31.22
4934639,-0.04,-0.05,0.92,1.89,6.47,1.59,886.97,31.2
4934677,-0.04,-0.05,0.91,1.95,6.47,1.53,886.96,31.19
4934715,-0.04,-0.04,0.93,1.83,6.29,1.65,886.95,31.19
4934805,-0.04,-0.05,0.92,1.65,6.41,1.71,886.96,31.17
4934843,-0.04,-0.05,0.93,1.65,6.35,1.65,886.98,31.18
4934881,-0.04,-0.05,0.93,1.77,5.98,1.83,886.97,31.18
4934919,-0.04,-0.05,0.94,1.71,5.92,1.83,886.92,31.18
4934957,-0.05,-0.04,0.95,1.77,5.74,1.89,887.01,31.19
4934996,-0.05,-0.04,0.95,1.83,5.68,2.14,886.97,31.19
4935045,-0.04,-0.04,0.95,1.77,5.19,2.08,886.99,31.18
4935084,-0.04,-0.04,0.96,1.83,5.31,2.14,886.99,31.19
4935122,-0.04,-0.05,0.97,1.83,5.0,2.32,886.92,31.2
4935160,-0.04,-0.04,0.96,1.71,5.13,2.14,886.98,31.19
4935198,-0.05,-0.05,0.96,1.77,5.0,2.32,886.99,31.19
4935236,-0.04,-0.04,0.97,1.83,4.82,2.32,886.97,31.2
4935274,-0.05,-0.04,0.98,2.14,4.88,2.26,887.0,31.2
4935312,-0.05,-0.04,0.97,2.01,4.82,2.38,887.04,31.21
4935351,-0.05,-0.04,0.98,2.08,4.39,2.38,886.98,31.2
4935389,-0.04,-0.04,0.96,2.08,4.27,2.56,886.95,31.19
4935439,-0.04,-0.04,0.95,1.95,3.91,2.56,886.94,31.19
4935477,-0.04,-0.04,0.95,1.95,3.85,2.62,886.97,31.18
4935515,-0.05,-0.05,0.95,1.95,3.6,2.56,886.97,31.19
4935553,-0.05,-0.05,0.93,2.01,3.72,2.62,886.99,31.2
4935591,-0.05,-0.05,0.95,2.08,3.72,2.69,886.99,31.2
4935629,-0.05,-0.04,0.94,2.08,3.85,2.69,887.01,31.22
4935667,-0.05,-0.04,0.95,1.89,3.48,2.56,886.94,31.2
4935706,-0.05,-0.05,0.97,2.08,3.91,2.75,886.98,31.2
4935744,-0.05,-0.05,0.94,1.89,3.91,2.69,887.0,31.21
4935782,-0.05,-0.04,0.96,2.01,4.03,2.81,886.98,31.21
4935832,-0.05,-0.04,0.95,1.95,4.33,2.81,886.92,31.19
4935870,-0.05,-0.04,0.99,2.14,5.0,2.87,886.96,31.21
4935908,-0.05,-0.05,0.95,2.26,5.49,2.87,886.96,31.2
4935946,-0.05,-0.04,0.96,2.08,5.49,3.05,886.98,31.2
4935984,-0.06,-0.05,0.92,2.44,5.68,3.05,887.03,31.22
4936022,-0.06,-0.05,0.87,2.62,6.1,3.17,887.0,31.22
4936061,-0.06,-0.04,0.91,2.93,6.35,3.3,886.95,31.21
4936099,-0.06,-0.05,0.88,3.05,7.14,3.36,886.97,31.22
4936137,-0.06,-0.05,0.91,3.17,7.51,3.6,886.94,31.23
4936187,-0.06,-0.06,0.88,3.3,9.34,3.54,887.0,31.2
4936225,-0.06,-0.04,0.89,3.11,9.7,3.85,886.98,31.21
4936263,-0.07,-0.04,0.9,3.05,9.77,4.15,886.97,31.22
4936301,-0.06,-0.05,0.9,2.93,9.77,4.33,887.04,31.23
4936339,-0.07,-0.05,0.91,2.69,10.38,4.52,887.03,31.22
4936378,-0.05,-0.05,0.94,2.75,10.25,4.7,887.0,31.22
4936416,-0.05,-0.04,0.98,2.81,9.89,4.76,887.04,31.23
4936454,-0.05,-0.05,0.97,2.75,10.31,5.0,886.98,31.24
4936492,-0.06,-0.04,1.0,2.62,9.22,5.19,887.01,31.23
4936530,-0.04,-0.04,1.0,2.44,9.83,5.19,887.04,31.23
4936580,-0.05,-0.03,1.02,2.14,8.18,5.31,887.01,31.22
4936618,-0.05,-0.04,1.02,2.2,7.81,5.68,887.07,31.24
4936657,-0.04,-0.04,1.04,2.14,6.35,5.43,887.04,31.24
4936695,-0.05,-0.04,1.03,2.01,6.53,5.55,887.04,31.23
4936733,-0.05,-0.04,1.04,1.95,5.74,5.8,887.05,31.24
4936771,-0.04,-0.04,1.04,2.08,5.62,5.68,887.12,31.24
4936809,-0.04,-0.04,1.02,1.95,5.25,5.62,887.06,31.24
4936848,-0.03,-0.04,1.03,1.95,5.25,5.68,887.07,31.24
4936886,-0.03,-0.05,0.99,2.14,5.07,5.62,887.08,31.24
4936924,-0.05,-0.04,1.0,2.14,4.52,5.68,887.03,31.24
4936974,-0.03,-0.05,0.98,2.2,4.76,5.74,887.14,31.24
4937012,-0.02,-0.05,1.0,2.38,4.09,5.68,887.07,31.22
4937050,-0.03,-0.05,0.97,2.26,3.91,5.49,887.06,31.22
4937088,-0.03,-0.05,0.96,2.26,3.91,5.37,887.12,31.24
4937126,-0.03,-0.05,0.95,2.44,3.78,5.31,887.11,31.22
4937164,-0.02,-0.05,0.94,2.26,3.66,5.19,887.1,31.22
4937203,-0.02,-0.05,0.93,2.2,3.66,5.0,887.12,31.23
4937241,-0.02,-0.06,0.92,2.08,4.21,4.76,887.1,31.21
4937279,-0.02,-0.05,0.94,2.26,3.91,4.64,887.21,31.22
4937329,-0.02,-0.05,0.92,2.08,4.39,4.46,887.16,31.21
4937367,-0.03,-0.06,0.92,2.14,4.46,4.27,887.2,31.21
4937405,-0.03,-0.06,0.93,1.95,5.31,4.15,887.13,31.21
4937443,-0.02,-0.06,0.93,1.95,6.16,3.78,887.17,31.2
4937482,-0.03,-0.05,0.94,1.95,7.51,3.66,887.15,31.2
4937520,-0.03,-0.05,0.95,1.95,7.32,3.66,887.19,31.21
4937558,-0.02,-0.04,0.98,2.08,8.0,3.66,887.18,31.21
4937596,-0.02,-0.05,0.98,2.14,8.73,3.66,887.17,31.21
4937635,-0.02,-0.05,0.99,1.95,8.3,3.6,887.15,31.21
4937673,-0.03,-0.04,1.01,2.14,7.81,3.6,887.19,31.22
4937749,-0.01,-0.04,0.99,1.83,6.71,3.72,887.21,31.2
4937787,-0.04,-0.05,1.0,1.95,5.8,3.78,887.18,31.19
4937825,-0.01,-0.05,1.03,1.89,4.46,3.72,887.2,31.22
4937915,-0.01,-0.04,1.0,1.95,2.69,3.66,887.21,31.18
4937953,-0.01,-0.06,1.0,1.83,2.5,3.36,887.2,31.18
4937991,-0.02,-0.05,0.96,1.77,2.01,3.17,887.2,31.19
4938029,-0.0,-0.04,1.0,1.34,1.22,3.23,887.25,31.2
4938067,-0.01,-0.05,0.95,1.59,1.77,2.81,887.26,31.21
4938106,-0.03,-0.04,0.98,1.46,0.67,2.69,887.22,31.21
4938144,-0.02,-0.05,0.97,1.46,1.83,2.69,887.23,31.21
4938194,-0.02,-0.05,1.0,1.22,1.4,2.38,887.26,31.2
4938232,-0.02,-0.05,0.96,1.16,2.44,2.14,887.23,31.2
4938270,-0.01,-0.05,0.97,1.16,2.2,2.01,887.23,31.22
4938308,-0.01,-0.05,0.97,0.92,2.81,1.95,887.23,31.21
4938347,-0.02,-0.05,0.98,1.16,2.93,1.65,887.21,31.22
4938385,-0.02,-0.05,0.98,0.98,3.42,1.71,887.26,31.22
4938423,-0.02,-0.05,0.99,1.16,3.54,1.34,887.22,31.21
4938461,-0.03,-0.04,1.01,1.28,4.09,1.28,887.23,31.21
4938499,-0.02,-0.04,0.98,1.4,4.82,1.1,887.27,31.21
4938549,-0.03,-0.04,1.0,1.65,5.19,0.98,887.25,31.2
4938587,-0.03,-0.05,0.97,2.08,5.43,1.04,887.26,31.2
4938625,-0.02,-0.04,1.0,1.89,5.55,0.79,887.27,31.21
4938664,-0.02,-0.04,0.99,2.01,6.41,0.73,887.3,31.2
4938702,-0.02,-0.04,1.0,2.08,6.35,0.79,887.31,31.22
4938740,-0.03,-0.04,0.99,2.44,6.65,0.79,887.31,31.22
4938778,-0.02,-0.04,0.99,2.32,6.96,0.79,887.32,31.22
4938816,-0.04,-0.03,1.01,2.44,7.39,0.79,887.31,31.23
4938854,-0.02,-0.04,0.99,2.44,7.45,0.79,887.35,31.21
4938893,-0.03,-0.04,1.01,2.5,7.69,0.85,887.32,31.22
4938943,-0.04,-0.05,0.99,2.44,7.87,0.92,887.28,31.2
4938981,-0.02,-0.04,1.0,2.38,8.18,0.92,887.41,31.22
4939019,-0.02,-0.04,0.99,2.38,7.81,0.85,887.31,31.23
4939057,-0.02,-0.04,0.97,2.2,7.93,1.04,887.35,31.22
4939095,-0.03,-0.04,0.98,2.2,7.69,1.1,887.31,31.22
4939133,-0.02,-0.04,0.97,2.26,7.26,0.98,887.34,31.22
4939171,-0.03,-0.03,1.01,1.89,7.08,1.1,887.39,31.22
4939210,-0.02,-0.04,1.0,2.08,7.2,0.92,887.35,31.22
4939248,-0.02,-0.04,1.03,2.08,6.77,1.04,887.32,31.22
4939286,-0.02,-0.04,1.01,1.89,6.77,1.04,887.34,31.22
4939336,-0.02,-0.03,1.0,1.71,6.77,1.1,887.35,31.21
4939374,-0.01,-0.04,0.99,1.65,7.39,0.98,887.36,31.21
4939412,-0.02,-0.04,0.98,1.59,6.84,1.16,887.44,31.22
4939450,-0.03,-0.04,1.0,1.89,7.32,0.79,887.38,31.22
4939488,-0.02,-0.05,1.0,2.01,8.12,0.79,887.43,31.23
4939526,-0.02,-0.04,1.04,2.14,8.0,0.67,887.41,31.23
4939565,-0.02,-0.03,1.04,2.14,8.48,0.73,887.4,31.24
4939603,-0.02,-0.04,1.03,2.2,8.61,0.73,887.42,31.22
4939641,-0.02,-0.04,1.0,2.2,8.67,0.73,887.41,31.23
4939691,-0.02,-0.03,1.01,2.32,8.36,0.61,887.44,31.22
4939729,-0.02,-0.04,0.98,2.26,8.54,0.79,887.42,31.23
4939767,-0.02,-0.04,0.99,2.08,8.24,0.55,887.46,31.24
4939805,-0.02,-0.04,1.01,2.14,7.69,0.73,887.45,31.23
4939843,-0.02,-0.04,1.01,2.08,6.71,0.85,887.47,31.22
4939881,-0.03,-0.04,1.04,2.44,6.29,0.73,887.43,31.22
4939920,-0.01,-0.04,1.04,2.01,5.92,0.73,887.43,31.23
4939958,-0.01,-0.03,1.06,2.01,5.25,0.55,887.47,31.23
4939996,-0.03,-0.04,1.05,1.89,5.31,0.61,887.38,31.22
4940034,-0.03,-0.04,1.04,1.71,5.43,0.49,887.43,31.23
4940084,-0.02,-0.03,1.05,1.89,5.43,0.37,887.4,31.21
4940122,-0.02,-0.03,1.03,1.95,5.07,0.37,887.46,31.23
4940160,-0.02,-0.03,1.04,1.77,4.88,0.43,887.41,31.21
4940198,-0.01,-0.04,1.04,2.01,5.19,0.31,887.43,31.22
4940236,-0.01,-0.04,1.06,1.83,4.39,0.18,887.43,31.21
4940274,-0.02,-0.04,1.06,1.95,4.64,0.37,887.47,31.24
4940313,-0.02,-0.04,1.05,1.95,4.58,0.24,887.48,31.21
4940351,-0.02,-0.03,1.08,1.89,4.27,0.31,887.42,31.23
4940389,-0.01,-0.03,1.08,1.83,4.46,0.31,887.43,31.23
4940427,-0.01,-0.03,1.1,1.77,4.33,0.18,887.51,31.23
4940477,-0.01,-0.03,1.1,1.95,5.07,0.0,887.45,31.22
4940515,-0.01,-0.02,1.11,2.2,5.31,-0.06,887.49,31.22
4940553,-0.01,-0.03,1.09,1.89,5.68,-0.24,887.53,31.23
4940591,-0.02,-0.03,1.09,2.08,5.8,-0.24,887.46,31.23
4940629,-0.02,-0.04,1.08,1.95,6.16,-0.37,887.49,31.22
4940668,-0.01,-0.04,1.07,2.01,6.16,-0.24,887.51,31.24
4940706,-0.01,-0.03,1.08,1.89,6.16,-0.43,887.5,31.24
4940744,-0.01,-0.04,1.05,2.08,5.92,-0.37,887.48,31.24
4940782,-0.01,-0.04,1.05,2.01,5.92,-0.43,887.47,31.24
4940859,-0.01,-0.04,1.06,2.01,5.74,-0.55,887.49,31.2
4940898,-0.02,-0.04,1.05,1.95,5.62,-0.55,887.51,31.22
4940936,-0.01,-0.04,1.05,1.95,5.19,-0.61,887.56,31.22
4941025,-0.01,-0.03,1.03,2.01,4.09,-0.61,887.47,31.19
4941064,-0.02,-0.04,1.0,1.89,4.03,-0.61,887.53,31.2
4941102,-0.03,-0.05,0.99,1.65,3.66,-0.73,887.53,31.2
4941140,-0.02,-0.04,1.0,1.71,3.3,-0.73,887.56,31.22
4941178,-0.02,-0.05,0.98,1.71,3.3,-0.79,887.55,31.21
4941216,-0.02,-0.04,1.0,1.46,2.99,-0.79,887.56,31.23
4941254,-0.02,-0.04,0.99,1.34,3.54,-0.79,887.51,31.22
4941304,-0.02,-0.04,1.02,1.1,3.17,-0.98,887.5,31.22
4941342,-0.03,-0.04,1.01,0.98,3.23,-0.92,887.54,31.21
4941380,-0.02,-0.04,1.02,1.1,3.23,-1.04,887.54,31.23
4941419,-0.02,-0.04,1.02,0.92,3.42,-0.98,887.53,31.23
4941457,-0.02,-0.04,1.03,0.98,3.54,-0.98,887.54,31.24
4941495,-0.02,-0.04,1.03,1.04,3.85,-1.16,887.53,31.22
4941533,-0.03,-0.04,1.04,0.92,4.03,-1.1,887.53,31.22
4941571,-0.03,-0.04,1.04,1.04,4.21,-1.16,887.53,31.23
4941609,-0.03,-0.04,1.05,1.04,3.97,-1.4,887.48,31.23
4941659,-0.03,-0.04,1.04,1.04,3.97,-1.22,887.53,31.23
4941697,-0.03,-0.03,1.05,1.04,4.21,-1.28,887.55,31.24
4941735,-0.03,-0.03,1.05,1.04,4.09,-1.22,887.49,31.22
4941774,-0.03,-0.03,1.07,1.34,3.78,-1.16,887.54,31.24
4941812,-0.03,-0.04,1.06,1.1,3.91,-1.04,887.52,31.22
4941850,-0.02,-0.03,1.08,1.16,3.66,-1.22,887.53,31.24
4941888,-0.02,-0.04,1.09,1.34,3.6,-1.1,887.5,31.23
4941926,-0.03,-0.04,1.06,1.28,3.17,-1.1,887.53,31.23
4941964,-0.02,-0.04,1.05,1.34,3.6,-1.22,887.49,31.23
4942014,-0.03,-0.03,1.06,1.34,3.42,-1.28,887.55,31.23
4942052,-0.03,-0.04,1.04,1.53,3.3,-1.34,887.58,31.23
4942090,-0.03,-0.04,1.04,1.34,3.11,-1.4,887.47,31.22
4942129,-0.03,-0.04,1.07,1.46,3.48,-1.53,887.54,31.23
4942167,-0.03,-0.04,1.06,1.71,3.78,-1.4,887.58,31.24
4942205,-0.03,-0.04,1.04,1.46,3.97,-1.53,887.5,31.23
4942243,-0.03,-0.03,1.04,1.65,4.15,-1.53,887.51,31.24
4942281,-0.02,-0.04,1.04,1.53,3.78,-1.53,887.48,31.24
4942319,-0.03,-0.04,1.04,1.53,3.91,-1.71,887.51,31.24
4942357,-0.04,-0.04,1.03,1.59,4.03,-1.65,887.55,31.25
4942407,-0.03,-0.04,1.03,1.46,4.09,-1.71,887.54,31.24
4942445,-0.02,-0.03,1.04,1.4,4.15,-1.59,887.55,31.23
4942484,-0.03,-0.04,1.02,1.46,4.39,-1.53,887.49,31.24
4942522,-0.04,-0.04,1.03,1.46,4.33,-1.59,887.5,31.26
4942560,-0.03,-0.04,1.03,1.53,4.46,-1.65,887.51,31.24
4942598,-0.03,-0.04,1.02,1.65,4.09,-1.59,887.52,31.24
4942636,-0.04,-0.04,1.02,1.53,4.52,-1.59,887.45,31.25
4942674,-0.04,-0.04,1.01,1.59,4.39,-1.65,887.56,31.26
4942713,-0.03,-0.04,1.03,1.53,4.46,-1.65,887.53,31.26
4942762,-0.03,-0.04,1.0,1.65,4.46,-1.53,887.54,31.24
4942801,-0.03,-0.04,1.02,1.59,4.46,-1.65,887.49,31.23
4942839,-0.03,-0.04,1.0,1.46,4.82,-1.59,887.46,31.24
4942877,-0.04,-0.04,1.0,1.53,4.39,-1.59,887.53,31.25
4942915,-0.04,-0.04,1.0,1.53,4.58,-1.59,887.55,31.24
4942953,-0.03,-0.04,0.99,1.59,4.21,-1.46,887.54,31.25
4942991,-0.03,-0.04,1.01,1.53,4.46,-1.53,887.53,31.26
4943029,-0.04,-0.04,1.0,1.59,4.64,-1.53,887.52,31.24
4943068,-0.04,-0.04,1.01,1.71,4.52,-1.65,887.52,31.24
4943106,-0.03,-0.04,1.0,1.77,4.88,-1.53,887.49,31.25
4943156,-0.04,-0.04,1.01,1.71,4.58,-1.59,887.46,31.24
4943194,-0.03,-0.04,0.99,1.83,4.7,-1.46,887.42,31.24
4943232,-0.03,-0.04,1.0,1.59,4.39,-1.53,887.45,31.26
4943270,-0.04,-0.04,1.0,1.83,4.33,-1.53,887.51,31.25
4943308,-0.03,-0.04,1.0,1.59,4.27,-1.4,887.48,31.27
4943346,-0.03,-0.04,1.0,1.71,4.39,-1.46,887.51,31.26
4943385,-0.04,-0.04,1.0,1.59,4.21,-1.34,887.47,31.26
4943423,-0.03,-0.04,1.0,1.71,3.97,-1.34,887.46,31.26
4943461,-0.03,-0.03,0.99,1.65,4.46,-1.22,887.52,31.26
4943511,-0.03,-0.03,1.0,1.53,4.33,-1.34,887.46,31.23
4943549,-0.03,-0.04,0.99,1.77,4.58,-1.4,887.45,31.24
4943587,-0.04,-0.04,1.01,1.65,4.52,-1.34,887.45,31.25
4943625,-0.04,-0.04,1.01,1.83,4.76,-1.4,887.5,31.25
4943663,-0.03,-0.04,1.02,1.83,4.7,-1.4,887.5,31.26
4943701,-0.04,-0.04,1.01,1.89,4.82,-1.34,887.44,31.25
4943739,-0.03,-0.04,1.01,1.83,4.94,-1.34,887.51,31.26
4943778,-0.02,-0.03,1.01,2.01,5.13,-1.22,887.49,31.26
4943816,-0.03,-0.04,1.0,1.89,4.94,-1.34,887.44,31.27
4943854,-0.04,-0.04,1.0,1.95,4.94,-1.34,887.48,31.26
4943930,-0.03,-0.04,1.0,1.95,4.82,-1.28,887.47,31.24
4943968,-0.03,-0.03,1.0,2.14,4.64,-1.22,887.47,31.24
4944006,-0.04,-0.04,1.0,2.14,4.76,-1.04,887.39,31.24
4944095,-0.03,-0.04,0.99,1.95,4.64,-1.22,887.47,31.21
4944134,-0.04,-0.04,0.99,1.95,4.82,-1.16,887.46,31.23
4944172,-0.03,-0.04,1.0,1.77,4.58,-1.22,887.44,31.23
4944210,-0.03,-0.04,1.0,1.89,4.52,-1.1,887.46,31.23
4944248,-0.03,-0.04,0.98,1.65,4.94,-1.28,887.5,31.25
4944286,-0.03,-0.04,0.99,1.65,4.88,-1.34,887.41,31.23
4944336,-0.03,-0.04,0.98,1.77,4.52,-1.16,887.4,31.23
4944374,-0.03,-0.04,0.99,1.71,4.27,-1.16,887.41,31.23
4944412,-0.03,-0.04,1.0,1.65,4.46,-1.28,887.39,31.24
4944450,-0.03,-0.04,1.0,1.46,4.33,-1.16,887.45,31.25
4944489,-0.03,-0.04,1.01,1.53,4.15,-1.16,887.41,31.26
4944527,-0.03,-0.03,1.02,1.46,4.15,-1.34,887.41,31.26
4944565,-0.03,-0.04,1.02,1.59,4.15,-1.22,887.36,31.25
4944603,-0.03,-0.04,1.01,1.65,4.09,-1.34,887.38,31.26
4944641,-0.03,-0.04,1.0,1.59,4.33,-1.34,887.44,31.26
4944679,-0.03,-0.03,1.0,1.65,4.09,-1.28,887.44,31.26
4944729,-0.02,-0.05,0.98,1.53,4.33,-1.22,887.46,31.25
4944767,-0.02,-0.04,0.99,1.83,4.09,-1.4,887.43,31.26
4944806,-0.02,-0.05,0.97,1.65,4.76,-1.4,887.42,31.25
4944844,-0.02,-0.05,0.97,1.89,4.46,-1.4,887.47,31.27
4944882,-0.02,-0.04,0.98,2.14,4.7,-1.65,887.42,31.26
4944920,-0.03,-0.04,0.98,2.44,4.39,-1.59,887.44,31.25
4944958,-0.02,-0.04,0.99,2.81,4.39,-1.77,887.46,31.26
4944996,-0.02,-0.05,0.98,3.23,4.39,-1.77,887.43,31.27
4945034,-0.02,-0.05,0.96,3.54,4.33,-1.89,887.45,31.26
4945084,-0.02,-0.05,0.94,3.91,4.58,-1.95,887.44,31.26
4945122,-0.02,-0.05,0.93,4.09,4.21,-1.95,887.39,31.27
4945161,-0.02,-0.05,0.9,4.27,4.39,-2.01,887.46,31.26
4945199,-0.03,-0.05,0.92,4.58,4.27,-2.26,887.42,31.28
4945237,-0.02,-0.05,0.86,4.58,5.07,-2.32,887.48,31.28
4945275,-0.02,-0.05,0.88,4.7,4.46,-2.38,887.49,31.28
4945313,-0.01,-0.06,0.85,4.76,4.94,-2.56,887.5,31.28
4945351,-0.02,-0.06,0.83,4.58,4.82,-2.56,887.48,31.27
4945390,-0.02,-0.05,0.82,4.52,5.31,-2.62,887.44,31.27
4945428,-0.02,-0.06,0.8,4.15,5.25,-2.81,887.45,31.27
4945478,-0.02,-0.06,0.8,3.91,5.25,-2.93,887.41,31.26
4945516,-0.02,-0.06,0.8,3.48,5.37,-3.05,887.5,31.27
4945554,-0.02,-0.06,0.82,3.3,5.31,-3.11,887.46,31.27
4945592,-0.02,-0.05,0.81,2.99,5.49,-3.05,887.43,31.27
4945630,-0.03,-0.05,0.84,2.5,5.0,-3.17,887.43,31.27
4945668,-0.03,-0.05,0.83,1.83,5.07,-3.17,887.42,31.27
4945707,-0.03,-0.05,0.85,1.46,4.58,-3.11,887.37,31.27
4945745,-0.03,-0.05,0.87,1.28,4.52,-3.23,887.4,31.28
4945783,-0.03,-0.05,0.88,0.79,3.72,-3.17,887.42,31.28
4945833,-0.03,-0.04,0.9,0.37,3.66,-3.11,887.42,31.27
4945871,-0.03,-0.04,0.93,0.12,3.11,-3.23,887.39,31.26
4945909,-0.03,-0.04,0.96,0.24,2.99,-3.11,887.45,31.26
4945947,-0.04,-0.04,0.96,-0.06,2.75,-3.11,887.44,31.27
4945985,-0.04,-0.03,1.01,-0.06,2.56,-2.99,887.44,31.27
4946023,-0.03,-0.04,1.04,0.0,2.56,-3.05,887.41,31.27
4946062,-0.04,-0.03,1.06,-0.06,2.62,-2.99,887.46,31.26
4946100,-0.03,-0.03,1.07,0.06,2.56,-3.05,887.48,31.26
4946138,-0.04,-0.03,1.09,0.18,2.75,-2.93,887.47,31.26
4946176,-0.05,-0.03,1.08,0.24,2.56,-3.05,887.42,31.27
4946226,-0.05,-0.02,1.09,0.49,2.62,-2.99,887.44,31.25
4946264,-0.04,-0.02,1.09,0.61,2.75,-2.99,887.44,31.25
4946302,-0.04,-0.02,1.08,0.61,2.87,-2.93,887.41,31.24
4946340,-0.04,-0.03,1.09,0.92,2.87,-2.99,887.51,31.26
4946378,-0.05,-0.03,1.09,1.1,2.75,-3.11,887.47,31.26
4946417,-0.04,-0.02,1.09,0.85,3.05,-3.11,887.48,31.25
4946455,-0.04,-0.03,1.09,0.79,2.99,-3.05,887.47,31.27
4946493,-0.05,-0.03,1.08,1.1,2.87,-3.05,887.44,31.26
4946531,-0.05,-0.03,1.06,1.28,3.23,-2.93,887.5,31.27
4946581,-0.05,-0.03,1.06,1.34,3.48,-2.81,887.52,31.26
4946619,-0.05,-0.02,1.07,1.22,3.23,-2.87,887.46,31.27
4946657,-0.06,-0.03,1.07,1.59,3.3,-2.69,887.48,31.26
4946695,-0.05,-0.03,1.06,1.4,3.3,-2.56,887.49,31.27
4946733,-0.05,-0.03,1.06,1.53,3.54,-2.69,887.45,31.26
4946772,-0.04,-0.03,1.06,1.65,3.42,-2.44,887.45,31.26
4946810,-0.06,-0.03,1.05,1.59,3.36,-2.5,887.45,31.26
4946848,-0.05,-0.03,1.03,1.59,3.72,-2.38,887.44,31.26
4946886,-0.06,-0.03,1.03,1.71,3.66,-2.44,887.48,31.26
4946924,-0.05,-0.04,1.0,1.53,4.21,-2.32,887.49,31.27
4947000,-0.05,-0.04,1.0,1.65,4.15,-2.2,887.45,31.23
4947038,-0.06,-0.04,1.01,1.59,3.97,-2.14,887.47,31.24
4947076,-0.05,-0.04,1.0,1.59,4.21,-2.08,887.52,31.26
4947166,-0.05,-0.04,0.99,1.28,3.91,-1.89,887.48,31.22
4947204,-0.05,-0.04,1.0,1.04,3.54,-1.89,887.47,31.24
4947242,-0.05,-0.04,1.01,0.85,3.72,-1.83,887.53,31.24
4947280,-0.05,-0.04,1.01,0.98,3.36,-1.65,887.55,31.24
4947318,-0.06,-0.04,1.01,0.92,3.36,-1.71,887.52,31.25
4947356,-0.05,-0.03,1.0,0.73,3.17,-1.65,887.55,31.24
4947406,-0.05,-0.04,1.02,0.92,3.17,-1.53,887.53,31.24
4947444,-0.04,-0.04,1.02,0.73,2.69,-1.59,887.54,31.24
4947483,-0.05,-0.03,1.03,0.85,2.99,-1.34,887.49,31.24
4947521,-0.05,-0.04,1.02,0.85,2.81,-1.34,887.45,31.23
4947559,-0.05,-0.03,1.03,0.85,2.69,-1.28,887.52,31.26
4947597,-0.05,-0.04,1.01,0.73,2.75,-1.53,887.51,31.26
4947635,-0.05,-0.04,1.02,0.85,2.38,-1.34,887.54,31.26
4947673,-0.04,-0.03,1.04,0.85,2.44,-1.22,887.55,31.25
4947711,-0.05,-0.03,1.03,0.79,2.5,-1.34,887.54,31.26
4947750,-0.06,-0.04,1.03,0.92,2.32,-1.22,887.54,31.24
4947799,-0.05,-0.04,1.04,0.85,2.44,-1.16,887.54,31.24
4947838,-0.05,-0.03,1.03,0.98,2.2,-1.22,887.54,31.24
4947876,-0.05,-0.03,1.04,0.98,2.38,-1.1,887.55,31.26
4947914,-0.04,-0.03,1.04,0.98,2.32,-1.1,887.5,31.25
4947952,-0.04,-0.04,1.05,1.22,2.44,-1.16,887.63,31.26
4947990,-0.04,-0.03,1.06,1.22,2.69,-1.16,887.58,31.26
4948028,-0.04,-0.03,1.05,1.28,2.62,-0.98,887.55,31.26
4948066,-0.05,-0.03,1.05,1.46,2.99,-0.92,887.56,31.27
4948105,-0.05,-0.04,1.05,1.65,2.99,-1.04,887.5,31.24
4948154,-0.04,-0.03,1.05,1.83,3.23,-0.98,887.54,31.24
4948192,-0.04,-0.04,1.04,1.71,3.48,-1.16,887.56,31.26
4948231,-0.04,-0.03,1.05,2.01,3.17,-1.04,887.56,31.25
4948269,-0.05,-0.03,1.04,2.08,3.17,-0.92,887.59,31.25
4948307,-0.05,-0.04,1.04,2.14,3.11,-0.79,887.54,31.26
4948345,-0.05,-0.04,1.04,2.14,3.3,-0.85,887.55,31.26
4948383,-0.04,-0.04,1.03,1.95,3.23,-0.79,887.59,31.25
4948421,-0.05,-0.04,1.02,2.2,3.3,-0.79,887.56,31.25
4948459,-0.05,-0.04,1.01,2.01,3.6,-0.73,887.55,31.26
4948498,-0.05,-0.04,1.01,2.01,3.36,-0.73,887.6,31.25
4948547,-0.05,-0.04,1.0,1.89,3.6,-0.73,887.52,31.24
4948585,-0.05,-0.04,1.0,1.95,3.6,-0.73,887.59,31.25
4948624,-0.05,-0.04,1.01,1.95,3.48,-0.67,887.61,31.26
4948662,-0.05,-0.04,1.0,2.01,3.48,-0.61,887.55,31.25
4948700,-0.04,-0.04,1.0,2.08,3.42,-0.67,887.54,31.24
4948738,-0.04,-0.04,1.0,1.89,3.48,-0.49,887.53,31.25
4948776,-0.04,-0.05,0.98,2.01,3.36,-0.43,887.55,31.26
4948814,-0.04,-0.04,0.98,2.2,3.23,-0.49,887.59,31.25
4948852,-0.04,-0.04,0.97,2.08,3.11,-0.43,887.54,31.24
4948902,-0.04,-0.04,0.98,1.95,2.87,-0.37,887.55,31.25
4948940,-0.04,-0.04,0.98,2.08,2.81,-0.43,887.54,31.26
4948978,-0.03,-0.05,0.98,1.77,2.5,-0.43,887.54,31.24
4949017,-0.03,-0.04,1.0,1.83,2.32,-0.31,887.59,31.26
4949055,-0.03,-0.05,0.99,1.59,2.08,-0.24,887.54,31.25
4949093,-0.04,-0.05,1.0,1.59,2.14,-0.37,887.55,31.26
4949131,-0.04,-0.05,1.0,1.59,2.01,-0.31,887.58,31.25
4949169,-0.03,-0.04,0.99,1.53,2.08,-0.37,887.56,31.25
4949207,-0.04,-0.04,1.01,1.46,2.14,-0.43,887.54,31.25
4949245,-0.04,-0.04,0.99,1.59,2.2,-0.43,887.56,31.26
4949295,-0.04,-0.04,1.01,1.71,1.89,-0.49,887.58,31.25
4949333,-0.05,-0.05,1.02,1.59,1.4,-0.37,887.57,31.26
4949371,-0.03,-0.04,1.02,1.83,1.4,-0.55,887.54,31.26
4949409,-0.03,-0.04,1.02,1.95,1.53,-0.61,887.56,31.27
4949448,-0.04,-0.04,1.02,2.08,1.22,-0.73,887.55,31.26
4949486,-0.04,-0.04,1.01,1.95,1.1,-0.79,887.51,31.27
4949524,-0.05,-0.05,1.0,2.14,1.1,-0.61,887.57,31.26
4949562,-0.04,-0.04,1.0,2.01,0.92,-0.85,887.52,31.26
4949600,-0.05,-0.05,1.0,2.2,0.61,-0.79,887.57,31.27
4949650,-0.05,-0.04,1.0,2.14,0.61,-0.92,887.55,31.27
4949688,-0.05,-0.05,0.99,2.08,0.79,-0.98,887.57,31.25
4949726,-0.05,-0.05,0.97,2.32,0.61,-0.92,887.55,31.27
4949764,-0.05,-0.04,0.99,2.38,0.49,-0.79,887.48,31.26
4949802,-0.05,-0.05,0.98,2.14,1.22,-1.04,887.54,31.27
4949841,-0.05,-0.04,0.97,2.08,0.92,-0.85,887.57,31.26
4949879,-0.05,-0.04,1.0,2.14,1.1,-0.92,887.62,31.26
4949917,-0.05,-0.05,0.97,2.14,1.4,-1.04,887.52,31.25
4949955,-0.05,-0.04,1.0,2.14,1.53,-1.16,887.62,31.26
4949993,-0.05,-0.04,0.99,2.08,1.71,-0.98,887.53,31.27
4950069,-0.06,-0.03,1.0,2.08,2.62,-0.85,887.55,31.25
4950107,-0.06,-0.05,0.99,2.08,2.69,-0.79,887.6,31.25
4950145,-0.05,-0.04,1.0,2.14,2.44,-0.92,887.53,31.25
4950235,-0.05,-0.05,0.98,2.38,2.87,-0.85,887.57,31.23
4950273,-0.05,-0.04,0.97,2.2,2.62,-0.67,887.58,31.24
4950311,-0.05,-0.05,0.98,2.32,2.5,-0.67,887.63,31.25
4950349,-0.05,-0.05,0.97,2.26,2.44,-0.55,887.58,31.25
4950387,-0.05,-0.04,0.99,2.26,2.44,-0.55,887.6,31.27
4950425,-0.05,-0.05,0.98,2.2,2.5,-0.61,887.63,31.27
4950475,-0.05,-0.05,0.99,2.01,2.62,-0.49,887.63,31.25
4950513,-0.05,-0.05,0.99,2.26,2.75,-0.49,887.56,31.26
4950551,-0.06,-0.05,1.0,1.89,2.69,-0.43,887.6,31.26
4950590,-0.05,-0.05,0.99,2.08,2.87,-0.49,887.58,31.26
4950628,-0.06,-0.04,0.97,2.01,3.11,-0.43,887.61,31.25
4950666,-0.05,-0.05,0.97,2.2,3.11,-0.37,887.64,31.26
4950704,-0.04,-0.05,0.96,2.01,3.11,-0.37,887.63,31.26
4950742,-0.05,-0.05,0.95,1.95,3.36,-0.31,887.57,31.24
4950780,-0.06,-0.05,0.97,2.14,3.6,-0.24,887.59,31.26
4950830,-0.05,-0.05,0.96,2.01,3.3,-0.24,887.55,31.24
4950868,-0.06,-0.05,0.99,1.77,3.85,-0.24,887.64,31.25
4950906,-0.05,-0.05,0.96,1.89,3.97,-0.12,887.64,31.26
4950945,-0.06,-0.05,0.98,1.89,3.66,-0.12,887.63,31.25
4950983,-0.06,-0.05,0.97,1.95,3.97,0.12,887.6,31.26
4951021,-0.07,-0.04,0.97,1.77,3.66,0.12,887.6,31.25
4951059,-0.05,-0.05,0.97,1.71,3.66,0.18,887.61,31.27
4951097,-0.05,-0.06,0.95,1.65,3.66,0.18,887.63,31.27
4951135,-0.05,-0.05,0.96,1.59,3.23,0.55,887.59,31.26
4951174,-0.04,-0.05,0.97,1.53,2.62,0.43,887.62,31.27
4951223,-0.05,-0.05,0.98,1.89,2.38,0.49,887.59,31.25
4951262,-0.05,-0.05,1.0,1.71,2.56,0.37,887.62,31.26
4951300,-0.06,-0.05,1.04,1.53,2.81,0.67,887.59,31.25
4951338,-0.05,-0.05,1.06,1.53,3.05,0.61,887.67,31.27
4951376,-0.06,-0.05,1.1,1.59,3.17,0.37,887.64,31.25
4951414,-0.06,-0.04,1.11,1.65,3.85,0.18,887.61,31.26
4951452,-0.05,-0.03,1.16,1.65,4.7,0.31,887.62,31.25
4951490,-0.04,-0.04,1.14,1.83,4.82,0.18,887.6,31.26
4951528,-0.06,-0.04,1.13,1.83,4.52,0.18,887.68,31.26
4951567,-0.07,-0.05,1.12,1.59,5.31,0.31,887.58,31.25
4951616,-0.05,-0.03,1.12,1.46,3.91,0.31,887.56,31.23
4951654,-0.05,-0.04,1.13,1.4,4.46,0.24,887.65,31.24
4951693,-0.06,-0.05,1.09,1.4,4.27,0.24,887.61,31.26
4951731,-0.05,-0.04,1.18,1.59,3.66,0.24,887.59,31.25
4951769,-0.03,-0.06,1.1,1.34,3.42,0.43,887.54,31.25
4951807,-0.04,-0.03,1.12,0.92,2.44,0.49,887.55,31.26
4951845,-0.05,-0.04,1.09,1.16,2.69,0.67,887.49,31.24
4951883,-0.02,-0.06,1.06,0.79,2.81,0.55,887.47,31.25
4951921,-0.04,-0.04,1.11,0.49,1.28,0.55,887.51,31.25
4951971,-0.04,-0.05,1.1,0.24,1.46,0.73,887.47,31.25
4952009,-0.05,-0.04,1.14,0.18,1.22,0.55,887.55,31.26
4952047,-0.04,-0.04,1.17,0.24,1.46,0.37,887.52,31.24
4952086,-0.02,-0.04,1.16,0.55,1.46,0.18,887.5,31.25
4952124,-0.03,-0.04,1.2,0.55,1.71,0.0,887.51,31.24
4952162,-0.02,-0.04,1.19,0.67,1.1,0.06,887.5,31.25
4952200,-0.04,-0.03,1.18,0.49,0.92,0.12,887.49,31.24
4952238,-0.05,-0.04,1.16,0.43,0.92,-0.18,887.51,31.26
4952276,-0.05,-0.04,1.19,0.24,-0.06,-0.31,887.48,31.26
4952314,-0.04,-0.05,1.15,0.12,-0.31,-0.18,887.4,31.24
4952364,-0.04,-0.04,1.17,-0.24,-1.4,-0.12,887.48,31.25
4952402,-0.06,-0.04,1.15,-0.18,-0.98,-0.06,887.45,31.24
4952440,-0.06,-0.04,1.14,-0.37,-2.08,0.0,887.5,31.25
4952478,-0.05,-0.05,1.12,-0.61,-1.95,-0.18,887.44,31.26
4952517,-0.05,-0.05,1.1,-0.98,-2.62,-0.37,887.46,31.25
4952555,-0.05,-0.04,1.1,-0.98,-1.77,-0.31,887.49,31.25
4952593,-0.04,-0.05,1.08,-1.46,-1.77,-0.24,887.46,31.26
4952631,-0.06,-0.05,1.13,-1.34,-1.4,-0.31,887.5,31.27
4952669,-0.08,-0.06,1.03,-1.22,-0.85,-0.24,887.53,31.25
4952719,-0.07,-0.02,1.14,-0.73,0.61,-0.18,887.49,31.24
4952757,-0.06,-0.05,1.08,-0.37,1.28,-0.18,887.52,31.26
4952795,-0.08,-0.04,1.13,-0.24,1.34,-0.18,887.48,31.24
4952833,-0.09,-0.05,1.11,0.24,3.23,0.24,887.48,31.25
4952872,-0.08,-0.05,1.09,0.24,2.93,0.24,887.49,31.25
4952910,-0.07,-0.04,1.1,0.61,4.09,0.31,887.54,31.24
4952948,-0.06,-0.05,1.02,0.43,4.09,0.37,887.48,31.25
4952986,-0.07,-0.05,1.03,0.61,3.91,0.73,887.52,31.25
4953024,-0.07,-0.07,0.98,0.98,4.39,0.85,887.49,31.27
4953062,-0.05,-0.05,1.03,0.85,3.6,0.92,887.51,31.26
4953138,-0.06,-0.05,1.02,1.1,3.78,1.22,887.47,31.24
4953176,-0.08,-0.04,1.06,1.71,4.82,1.46,887.41,31.24
4953215,-0.07,-0.06,1.03,2.2,4.7,1.59,887.44,31.24
4953304,-0.06,-0.05,0.99,2.5,4.58,2.26,887.43,31.22
4953342,-0.05,-0.06,0.99,2.38,4.52,2.26,887.39,31.23
4953380,-0.05,-0.06,0.99,2.08,4.39,2.26,887.44,31.23
4953419,-0.06,-0.05,1.0,1.77,3.11,2.56,887.42,31.25
4953457,-0.05,-0.04,1.05,1.59,3.11,2.75,887.41,31.24
4953495,-0.05,-0.06,1.01,1.4,3.23,2.75,887.38,31.24
4953545,-0.05,-0.05,1.03,1.22,2.44,2.93,887.39,31.24
4953583,-0.04,-0.05,1.02,0.98,2.87,3.05,887.3,31.23
4953621,-0.02,-0.06,1.04,0.73,1.71,3.11,887.36,31.25
4953659,-0.06,-0.05,1.04,0.79,1.46,3.05,887.36,31.26
4953697,-0.06,-0.05,1.03,0.92,1.34,3.36,887.34,31.24
4953735,-0.03,-0.06,1.06,0.55,0.55,3.17,887.35,31.25
4953774,-0.03,-0.05,1.05,0.67,0.12,3.17,887.35,31.25
4953812,-0.03,-0.05,1.04,0.55,0.06,3.23,887.35,31.25
4953850,-0.03,-0.05,1.05,0.55,0.24,3.23,887.27,31.26
4953888,-0.01,-0.05,1.05,0.67,-0.43,3.3,887.35,31.26
4953938,-0.04,-0.05,1.03,0.73,-1.04,3.05,887.31,31.25
4953976,-0.05,-0.04,1.05,1.04,-0.61,3.11,887.25,31.24
4954014,-0.02,-0.05,1.02,0.92,-0.55,2.93,887.33,31.26
4954052,-0.02,-0.04,1.07,1.53,-1.22,2.87,887.29,31.26
4954091,-0.03,-0.06,1.0,1.53,-0.49,2.81,887.31,31.25
4954129,-0.02,-0.05,1.0,1.89,-0.49,2.81,887.36,31.26
4954167,-0.03,-0.05,0.99,2.08,0.37,2.69,887.23,31.26
4954205,-0.03,-0.06,0.96,2.01,-0.06,2.69,887.26,31.27
4954243,-0.03,-0.06,0.97,2.32,0.98,2.38,887.32,31.27
4954281,-0.01,-0.07,0.96,2.44,1.34,2.14,887.24,31.27
4954331,-0.02,-0.05,0.9,2.01,1.46,2.08,887.27,31.26
4954369,-0.02,-0.05,0.88,1.77,2.81,2.14,887.24,31.26
4954407,-0.01,-0.08,0.9,1.71,3.48,1.71,887.22,31.26
4954445,-0.01,-0.06,0.93,1.59,3.36,1.4,887.2,31.27
4954484,-0.03,-0.05,0.93,1.46,5.0,1.46,887.16,31.26
4954522,-0.01,-0.07,0.91,1.16,5.68,1.1,887.13,31.25
4954560,-0.02,-0.05,0.98,0.98,5.62,1.04,887.14,31.27
4954598,-0.01,-0.06,0.97,0.67,7.57,0.92,887.14,31.27
4954636,-0.01,-0.06,0.97,0.31,8.67,0.61,887.13,31.26
4954686,-0.01,-0.04,1.05,0.73,9.46,0.43,887.14,31.25
4954724,-0.0,-0.05,1.02,0.31,9.64,0.18,887.09,31.27
4954762,-0.01,-0.03,1.1,0.49,9.34,0.12,887.12,31.25
4954801,-0.01,-0.05,1.07,0.73,10.01,0.0,887.04,31.26
4954839,-0.02,-0.04,1.08,0.85,8.97,-0.06,887.09,31.26
4954877,-0.02,-0.03,1.1,1.16,8.48,-0.12,887.04,31.27
4954915,-0.0,-0.04,1.1,1.46,8.79,-0.24,887.05,31.29
4954953,0.0,-0.04,1.14,1.53,8.91,-0.37,887.07,31.28
4954991,-0.01,-0.04,1.13,2.01,9.52,-0.37,887.08,31.27
4955029,-0.02,-0.05,1.11,2.93,9.4,-0.61,887.07,31.27
4955079,-0.02,-0.03,1.11,3.23,9.34,-0.73,887.03,31.26
4955117,-0.0,-0.04,1.08,3.36,8.97,-0.67,887.02,31.28
4955155,-0.02,-0.05,1.04,3.36,8.18,-0.79,887.0,31.27
4955193,0.0,-0.05,1.04,3.23,8.3,-1.22,887.01,31.27
4955231,-0.0,-0.05,1.06,3.11,8.42,-1.22,886.99,31.28
4955270,-0.0,-0.04,1.07,2.99,7.32,-1.22,886.96,31.29
4955308,-0.02,-0.04,1.04,2.75,7.26,-1.46,886.93,31.28
4955346,-0.04,-0.03,1.08,2.93,6.71,-1.4,886.91,31.29
4955384,-0.04,-0.04,1.12,3.17,5.8,-1.34,886.84,31.29
4955434,-0.03,-0.04,1.09,3.23,4.58,-1.89,886.9,31.27
4955472,-0.04,-0.03,1.1,3.3,4.94,-1.53,886.89,31.28
4955510,-0.03,-0.04,1.12,3.17,3.72,-1.28,886.85,31.29
4955548,-0.06,-0.06,1.08,3.42,3.17,-1.65,886.85,31.28
4955587,-0.08,-0.04,1.02,3.11,4.03,-1.22,886.85,31.28
4955625,-0.04,-0.03,1.07,2.99,3.48,-1.22,886.84,31.28
4955663,-0.03,-0.04,0.98,3.05,3.78,-1.53,886.82,31.27
4955701,-0.06,-0.04,1.02,2.93,2.81,-1.4,886.8,31.29
4955739,-0.05,-0.07,0.97,3.05,4.39,-1.28,886.79,31.29
4955777,-0.04,-0.05,1.0,2.99,3.6,-1.28,886.77,31.29
4955827,-0.06,-0.04,0.98,2.69,4.03,-1.22,886.79,31.28
4955865,-0.06,-0.04,0.99,2.75,3.23,-1.04,886.7,31.27
4955903,-0.04,-0.05,1.01,2.14,3.66,-1.04,886.78,31.28
4955941,-0.04,-0.05,0.98,1.65,2.08,-0.79,886.74,31.28
4955980,-0.05,-0.05,1.03,1.59,1.34,-0.61,886.7,31.28
4956018,-0.06,-0.09,0.98,1.46,1.77,-0.55,886.74,31.28
4956056,-0.05,-0.05,1.0,0.85,0.61,-0.49,886.72,31.28
4956094,-0.06,-0.06,0.97,0.73,1.1,-0.43,886.7,31.29
4956132,-0.05,-0.07,0.93,0.43,1.34,-0.37,886.69,31.28
4956208,-0.04,-0.07,0.9,0.31,2.32,-0.31,886.67,31.25
4956246,-0.04,-0.06,0.95,-0.12,2.08,-0.31,886.69,31.26
4956284,-0.05,-0.06,0.95,-0.24,2.87,-0.31,886.71,31.27
4956374,-0.04,-0.06,1.06,-0.31,1.95,-0.12,886.66,31.24
4956412,-0.04,-0.04,1.13,-0.12,1.28,-0.12,886.68,31.24
4956450,-0.02,-0.04,1.16,-0.31,1.4,0.06,886.63,31.24
4956488,-0.03,-0.03,1.21,-0.12,0.55,-0.06,886.63,31.24
4956526,-0.04,-0.02,1.28,0.06,0.06,0.06,886.6,31.24
4956564,-0.04,-0.03,1.29,0.12,0.73,-0.12,886.59,31.24
4956602,-0.04,-0.03,1.29,0.37,1.4,0.0,886.58,31.26
4956652,-0.04,-0.03,1.33,1.1,1.22,0.0,886.56,31.24
4956690,-0.03,-0.05,1.29,1.65,1.04,-0.12,886.57,31.25
4956728,-0.03,-0.05,1.27,2.08,1.4,-0.12,886.53,31.25
4956766,-0.06,-0.04,1.15,2.14,2.01,-0.18,886.56,31.25
4956805,-0.05,-0.04,1.18,2.01,1.28,-0.12,886.47,31.26
4956843,-0.03,-0.05,1.17,1.83,1.46,-0.06,886.46,31.27
4956881,-0.06,-0.05,1.16,1.83,0.98,-0.06,886.45,31.26
4956919,-0.06,-0.04,1.19,1.65,1.95,-0.18,886.42,31.27
4956957,-0.06,-0.05,1.19,1.53,2.44,-0.06,886.44,31.26
4957007,-0.05,-0.05,1.18,1.95,2.99,0.06,886.48,31.26
4957045,-0.06,-0.05,1.14,1.95,3.72,0.06,886.5,31.26
4957083,-0.05,-0.05,1.09,2.08,4.88,0.06,886.44,31.26
4957121,-0.04,-0.05,1.05,2.26,4.03,0.24,886.41,31.26
4957159,-0.04,-0.05,1.04,2.26,4.33,0.37,886.46,31.26
4957198,-0.02,-0.06,1.03,2.14,5.0,0.24,886.38,31.27
4957236,-0.04,-0.06,1.05,2.62,5.07,0.24,886.39,31.27
4957274,-0.03,-0.06,1.05,2.69,4.58,0.37,886.42,31.27
4957312,-0.05,-0.06,1.02,2.69,5.31,0.31,886.34,31.27
4957350,-0.04,-0.05,1.03,2.87,6.53,0.18,886.29,31.26
4957400,-0.03,-0.07,1.01,3.66,9.46,0.18,886.24,31.26
4957438,-0.03,-0.07,0.97,4.27,10.5,0.18,886.23,31.27
4957476,-0.04,-0.07,0.95,5.13,12.7,0.31,886.19,31.26
4957514,-0.04,-0.07,0.88,5.49,13.85,0.31,886.19,31.27
4957552,-0.06,-0.06,0.89,5.74,14.83,0.49,886.12,31.28
4957591,-0.02,-0.08,0.88,5.74,15.38,0.67,886.12,31.27
4957629,-0.02,-0.08,0.83,5.55,15.32,0.61,886.04,31.27
4957667,-0.04,-0.07,0.83,5.37,15.75,0.98,886.05,31.27
4957705,-0.01,-0.08,0.81,5.37,15.93,0.85,885.99,31.27
4957755,-0.03,-0.07,0.79,5.19,15.14,1.1,886.02,31.27
4957793,-0.05,-0.07,0.74,5.07,15.56,1.53,886.08,31.28
4957831,-0.03,-0.09,0.72,4.76,16.17,1.34,886.0,31.27
4957869,-0.02,-0.07,0.73,4.46,15.26,1.59,886.0,31.27
4957907,0.0,-0.09,0.71,3.91,15.2,1.71,885.89,31.27
4957945,-0.0,-0.09,0.67,3.3,15.93,1.59,885.96,31.27
4957984,-0.02,-0.06,0.77,3.05,15.87,1.53,885.9,31.27
4958022,0.0,-0.08,0.74,2.87,16.6,1.83,885.91,31.27
4958060,-0.02,-0.07,0.78,2.08,16.3,1.46,885.86,31.28
4958098,-0.03,-0.07,0.83,2.01,17.21,1.46,885.91,31.28
4958148,-0.01,-0.09,0.84,2.38,17.21,1.59,885.82,31.26
4958186,0.0,-0.08,0.84,1.89,18.13,1.46,885.8,31.27
4958224,-0.0,-0.08,0.83,1.65,18.98,1.65,885.87,31.26
4958262,-0.0,-0.06,0.89,1.16,18.62,1.83,885.78,31.27
4958300,-0.02,-0.07,0.92,0.73,17.88,1.77,885.78,31.27
4958338,-0.02,-0.07,0.96,0.49,17.4,1.65,885.71,31.27
4958377,-0.01,-0.06,1.02,0.18,16.36,2.08,885.76,31.27
4958415,0.03,-0.06,1.03,0.24,16.3,1.95,885.83,31.28
4958453,-0.01,-0.05,1.05,0.55,15.87,2.01,885.77,31.28
4958503,-0.01,-0.05,1.07,0.92,14.83,2.38,885.8,31.25
4958541,-0.03,-0.06,1.05,1.59,14.1,2.26,885.77,31.29
4958579,0.0,-0.06,1.04,1.71,12.88,2.38,885.74,31.28
4958617,-0.0,-0.06,1.05,1.95,13.43,2.32,885.76,31.27
4958655,-0.01,-0.06,1.0,2.08,12.88,2.2,885.76,31.27
4958693,0.01,-0.05,1.06,2.14,12.27,2.26,885.66,31.26
4958731,0.01,-0.07,1.01,2.26,13.31,2.01,885.7,31.27
4958770,-0.01,-0.05,0.99,2.14,13.85,2.2,885.63,31.26
4958808,0.01,-0.05,0.98,2.44,15.08,2.08,885.65,31.26
4958846,0.01,-0.06,0.95,2.69,15.14,2.14,885.55,31.27
4958896,0.0,-0.05,0.97,2.56,15.69,2.01,885.58,31.26
4958934,-0.0,-0.07,0.93,2.26,17.15,1.89,885.57,31.27
4958972,0.01,-0.06,0.97,1.77,17.4,1.83,885.53,31.25
4959010,0.02,-0.04,1.01,1.65,17.21,1.95,885.5,31.26
4959049,0.02,-0.05,1.0,1.16,16.66,1.95,885.5,31.24
4959087,0.02,-0.04,1.07,0.73,15.87,1.95,885.53,31.27
4959125,0.03,-0.06,1.04,0.49,15.56,1.83,885.58,31.27
4959163,0.03,-0.05,1.1,0.12,14.22,2.08,885.52,31.27
4959201,0.02,-0.04,1.12,-0.37,13.49,2.01,885.52,31.26
4959239,0.03,-0.05,1.11,-0.31,13.18,1.77,885.5,31.27
4959315,0.04,-0.05,1.12,-0.92,11.84,1.34,885.46,31.24
4959353,0.03,-0.05,1.13,-0.92,11.6,1.34,885.54,31.26
4959392,0.03,-0.05,1.11,-0.79,10.93,1.16,885.42,31.26
4959481,0.05,-0.06,1.08,-1.1,10.44,0.55,885.46,31.23
4959519,0.04,-0.04,1.08,-1.59,9.58,0.31,885.33,31.22
4959558,0.03,-0.04,1.11,-1.83,10.07,0.06,885.43,31.23
4959596,0.04,-0.05,1.14,-2.26,8.97,-0.18,885.36,31.24
4959634,0.06,-0.04,1.15,-2.14,8.79,-0.43,885.35,31.25
4959672,0.02,-0.05,1.1,-2.62,9.16,-0.73,885.4,31.26
4959722,0.04,-0.05,1.1,-3.17,9.64,-0.85,885.33,31.24
4959760,0.04,-0.04,1.12,-2.93,8.85,-1.34,885.34,31.25
4959798,0.02,-0.06,1.15,-2.81,8.36,-1.28,885.29,31.25
4959836,0.03,-0.05,1.15,-2.81,8.3,-1.53,885.26,31.24
4959874,0.04,-0.03,1.24,-2.38,9.28,-1.77,885.3,31.26
4959913,0.05,-0.04,1.2,-2.26,9.95,-1.89,885.27,31.26
4959951,0.05,-0.03,1.2,-2.14,10.07,-2.38,885.26,31.24
4959989,0.02,-0.04,1.2,-1.65,11.29,-2.75,885.24,31.26
4960027,0.06,-0.04,1.19,-1.65,11.78,-2.99,885.28,31.27
4960077,0.05,-0.03,1.18,-1.16,12.45,-3.3,885.21,31.24
4960115,0.02,-0.06,1.11,-1.16,12.88,-3.72,885.12,31.24
4960153,0.07,-0.06,1.11,-1.28,13.06,-4.03,885.18,31.25
4960191,0.05,-0.06,1.11,-1.22,13.79,-4.27,885.15,31.25
4960229,0.07,-0.05,1.06,-1.53,13.85,-4.52,885.13,31.26
4960268,0.05,-0.04,1.07,-1.59,14.34,-4.76,885.08,31.27
4960306,0.03,-0.07,1.04,-1.46,13.85,-4.94,885.02,31.26
4960344,0.05,-0.07,1.04,-1.77,12.82,-5.25,885.08,31.26
4960382,0.04,-0.06,1.03,-2.08,12.33,-5.62,885.05,31.25
4960420,0.06,-0.05,1.0,-2.44,11.11,-5.74,885.08,31.26
4960470,0.06,-0.05,0.97,-3.11,10.31,-6.1,885.0,31.25
4960508,0.05,-0.07,0.96,-3.78,9.4,-6.23,884.95,31.25
4960546,0.04,-0.06,0.98,-5.13,8.36,-6.35,884.96,31.26
4960584,0.05,-0.05,1.0,-5.49,8.73,-6.65,884.92,31.27
4960623,0.06,-0.05,1.04,-6.1,7.69,-7.2,884.92,31.26
4960661,0.04,-0.04,1.07,-6.77,6.41,-7.51,884.9,31.26
4960699,0.05,-0.04,1.15,-7.14,5.8,-7.51,884.85,31.26
4960737,0.05,-0.04,1.17,-7.57,5.8,-7.81,884.93,31.27
4960775,0.02,-0.02,1.21,-7.81,4.52,-7.87,884.9,31.26
4960825,0.04,-0.03,1.21,-8.24,4.52,-8.36,884.93,31.26
4960863,0.04,-0.02,1.23,-8.3,4.33,-8.67,884.9,31.26
4960901,0.03,-0.03,1.2,-8.42,5.0,-8.73,884.95,31.26
4960940,0.02,-0.02,1.21,-8.12,5.49,-9.03,884.93,31.25
4960978,0.02,-0.02,1.22,-8.0,4.64,-9.34,884.92,31.25
4961016,0.01,-0.0,1.29,-7.63,3.97,-9.46,884.93,31.26
4961054,0.02,-0.01,1.3,-7.51,4.7,-9.7,884.84,31.26
4961092,0.02,-0.0,1.33,-7.45,3.72,-9.83,884.85,31.26
4961130,0.01,-0.0,1.34,-6.9,4.88,-10.13,884.91,31.26
4961169,0.01,-0.01,1.27,-6.77,4.03,-9.83,884.84,31.26
4961218,0.01,0.0,1.3,-6.35,4.64,-10.13,884.87,31.26
4961257,0.02,-0.01,1.24,-6.16,4.64,-10.38,884.85,31.26
4961295,-0.0,0.01,1.32,-5.98,3.66,-10.38,884.8,31.26
4961333,0.01,-0.02,1.25,-5.74,4.52,-10.44,884.8,31.27
4961371,0.01,-0.01,1.3,-5.86,4.21,-10.68,884.79,31.27
4961409,-0.0,-0.01,1.29,-5.8,4.64,-10.68,884.74,31.27
4961447,0.01,-0.01,1.27,-5.62,3.72,-10.56,884.8,31.27
4961485,0.0,-0.0,1.26,-5.74,3.66,-10.93,884.76,31.27
