timestamp,acc_x,acc_y,acc_z,rot_x,rot_y,rot_z,qfe,temp
5697527,-0.03,-0.09,1.17,1.89,1.28,-0.18,928.25,30.98
5697565,0.01,-0.09,1.16,1.46,1.71,-0.18,928.28,30.98
5697603,-0.02,-0.07,1.2,1.53,1.46,-0.18,928.39,30.98
5697641,-0.03,-0.08,1.11,1.83,2.38,-0.24,928.31,31.0
5697679,-0.03,-0.07,1.11,1.77,2.44,-0.43,928.39,31.0
5697717,0.0,-0.08,1.11,1.65,3.72,-0.55,928.36,31.01
5697756,-0.02,-0.08,1.18,1.53,2.99,-0.79,928.33,30.99
5697794,-0.01,-0.07,1.27,1.53,2.62,-0.73,928.35,30.98
5697832,-0.01,-0.08,1.33,1.46,2.62,-0.79,928.38,30.98
5697882,-0.05,-0.07,1.31,1.46,1.77,-0.79,928.49,30.98
5697920,-0.03,-0.07,1.28,1.46,2.08,-1.04,928.48,30.98
5697958,-0.04,-0.08,1.16,1.71,3.97,-1.1,928.51,30.98
5697996,-0.03,-0.07,1.1,1.77,3.78,-1.16,928.5,30.99
5698034,-0.04,-0.09,1.01,2.26,4.03,-0.92,928.55,30.99
5698072,-0.02,-0.09,0.95,1.77,2.81,-0.79,928.51,30.98
5698110,-0.02,-0.09,0.91,1.83,3.42,-0.98,928.51,30.98
5698149,-0.01,-0.09,0.8,1.1,2.14,-0.85,928.53,30.99
5698187,-0.03,-0.07,0.88,0.55,0.37,-0.73,928.5,30.98
5698237,-0.04,-0.09,0.89,0.37,0.37,-0.85,928.52,30.98
5698275,-0.02,-0.09,0.98,-0.12,0.37,-0.73,928.55,30.98
5698313,-0.01,-0.08,1.02,-0.24,-0.24,-0.43,928.55,30.99
5698351,-0.03,-0.08,1.05,-0.18,-0.43,-0.67,928.59,30.99
5698389,-0.06,-0.08,1.01,-0.24,-0.31,-0.49,928.56,30.98
5698427,-0.03,-0.08,1.05,0.18,-0.85,-0.43,928.58,30.98
5698465,-0.01,-0.1,1.0,0.18,-0.67,-0.55,928.66,30.98
5698504,-0.03,-0.07,0.99,0.06,-0.67,-0.49,928.62,30.99
5698542,-0.04,-0.07,1.01,0.49,-0.37,-0.31,928.68,31.0
5698617,-0.04,-0.08,1.03,0.43,-1.28,-0.37,928.68,30.97
5698656,-0.03,-0.09,0.99,0.67,-0.92,-0.43,928.69,30.97
5698694,-0.02,-0.08,1.03,0.37,-1.53,-0.43,928.68,30.97
5698783,-0.02,-0.08,1.02,0.43,-1.77,-0.55,928.72,30.94
5698821,-0.03,-0.09,1.03,0.67,-1.04,-0.49,928.75,30.96
5698859,-0.03,-0.08,1.07,0.55,-1.53,-0.49,928.75,30.97
5698898,-0.04,-0.08,1.09,0.55,-0.49,-0.37,928.74,30.96
5698936,-0.04,-0.08,1.08,0.61,-0.55,-0.49,928.79,30.97
5698974,-0.03,-0.07,1.15,0.79,0.06,-0.61,928.74,30.98
5699012,-0.01,-0.09,1.16,0.61,0.92,-0.55,928.82,30.99
5699062,-0.04,-0.07,1.14,0.67,1.28,-0.43,928.78,30.96
5699100,-0.02,-0.08,1.14,1.22,2.56,-0.61,928.83,30.98
5699138,-0.03,-0.08,1.12,1.53,2.5,-0.61,928.78,30.98
5699176,-0.04,-0.08,1.11,1.77,1.95,-0.61,928.83,30.98
5699214,-0.03,-0.09,1.1,1.95,1.59,-0.61,928.86,30.97
5699253,-0.02,-0.09,1.14,1.89,1.1,-0.73,928.84,30.98
5699291,-0.03,-0.08,1.14,1.83,1.53,-0.55,928.85,30.98
5699329,-0.04,-0.08,1.18,1.89,1.46,-0.55,928.8,30.98
5699367,-0.04,-0.1,1.16,1.89,1.95,-0.55,928.83,30.98
5699417,-0.04,-0.08,1.18,1.77,2.32,-0.43,928.87,30.98
5699455,-0.02,-0.08,1.2,1.46,3.05,-0.43,928.9,30.98
5699493,-0.04,-0.07,1.23,1.46,2.5,-0.37,928.88,30.99
5699531,-0.07,-0.08,1.26,2.08,2.56,-0.24,928.86,30.99
5699569,-0.05,-0.08,1.21,1.71,2.56,-0.18,928.85,30.98
5699608,-0.04,-0.08,1.19,1.59,2.81,-0.24,928.84,30.99
5699646,-0.04,-0.1,1.11,1.59,3.6,-0.12,928.89,30.99
5699684,-0.04,-0.09,1.11,1.71,3.36,-0.24,928.94,30.99
5699722,-0.05,-0.09,1.05,1.4,2.93,-0.18,928.94,30.99
5699760,-0.06,-0.09,1.02,1.04,2.93,-0.12,928.93,31.0
5699810,-0.04,-0.1,1.02,0.73,3.42,-0.12,928.91,30.98
5699848,-0.06,-0.1,1.0,0.43,3.6,0.0,928.89,30.98
5699886,-0.04,-0.1,1.03,-0.18,3.72,0.0,928.97,30.98
5699924,-0.01,-0.09,1.01,-0.67,4.15,0.06,928.96,30.98
5699962,-0.06,-0.1,1.0,-0.92,3.85,0.43,928.9,31.0
5700000,-0.05,-0.1,1.01,-0.98,4.09,0.31,928.97,31.0
5700039,-0.05,-0.09,1.02,-1.28,4.15,0.43,928.94,30.99
5700077,-0.05,-0.08,1.09,-1.53,3.85,0.49,928.96,31.0
5700115,-0.06,-0.09,1.04,-1.53,4.7,0.61,928.99,31.0
5700165,-0.04,-0.08,1.15,-1.46,5.25,0.67,928.95,30.98
5700203,-0.04,-0.1,1.2,-1.46,4.7,0.73,928.98,30.98
5700241,-0.04,-0.09,1.33,-1.71,4.76,0.79,928.96,30.98
5700279,-0.06,-0.06,1.38,-1.65,4.82,0.79,928.98,30.98
5700317,-0.03,-0.07,1.55,-1.4,5.25,1.04,928.99,30.98
5700355,-0.03,-0.07,1.51,-1.34,5.19,0.92,929.07,31.01
5700393,-0.04,-0.05,1.62,-0.92,4.09,1.16,928.97,31.0
5700431,-0.04,-0.08,1.57,-0.37,4.03,1.34,929.02,30.99
5700469,-0.04,-0.06,1.58,0.06,2.93,1.4,929.04,30.99
5700508,-0.02,-0.07,1.45,0.92,4.15,1.46,929.07,30.99
5700557,-0.01,-0.08,1.41,1.04,2.56,1.46,928.99,30.97
5700595,-0.0,-0.08,1.34,1.4,3.3,1.22,928.99,30.98
5700634,-0.0,-0.09,1.31,1.53,0.92,1.28,929.02,30.99
5700672,-0.01,-0.09,1.3,1.4,1.16,1.28,929.01,30.99
5700710,-0.04,-0.11,1.2,1.22,1.89,0.98,929.01,30.99
5700748,-0.01,-0.08,1.3,1.28,1.46,0.92,929.0,31.01
5700786,-0.01,-0.1,1.2,1.16,2.69,0.92,928.96,31.0
5700824,-0.02,-0.08,1.24,1.04,2.62,0.61,929.03,31.0
5700862,-0.02,-0.09,1.22,1.4,3.85,0.43,928.98,30.98
5700912,-0.02,-0.09,1.24,0.98,3.17,0.55,928.96,30.99
5700950,-0.02,-0.1,1.18,0.98,3.36,0.43,929.02,31.0
5700988,-0.04,-0.08,1.19,0.98,2.81,0.37,928.97,30.98
5701026,-0.03,-0.09,1.18,1.16,2.81,0.24,928.95,31.0
5701065,-0.04,-0.1,1.13,0.92,1.95,0.31,928.96,31.0
5701103,-0.04,-0.09,1.16,0.79,2.56,0.37,928.92,30.99
5701141,-0.04,-0.09,1.16,1.1,3.36,0.24,928.96,31.0
5701179,-0.01,-0.1,1.17,0.73,3.48,0.18,928.88,31.0
5701217,-0.04,-0.1,1.15,0.73,2.81,0.31,928.95,31.01
5701255,-0.06,-0.1,1.19,1.04,2.93,0.49,928.89,31.0
5701305,-0.05,-0.11,1.17,1.59,2.75,0.31,928.9,30.98
5701343,-0.03,-0.09,1.12,1.59,2.62,0.37,928.91,30.99
5701381,-0.04,-0.09,1.13,1.59,2.44,0.31,928.91,30.99
5701420,-0.03,-0.1,1.1,1.65,4.39,0.31,928.9,30.99
5701458,-0.03,-0.09,1.13,1.77,1.95,0.43,928.84,30.99
5701496,-0.04,-0.1,1.09,1.95,1.59,0.67,928.81,31.0
5701534,-0.04,-0.1,0.99,1.77,1.16,0.73,928.77,31.0
5701572,-0.05,-0.08,1.04,1.77,1.46,0.49,928.84,31.0
5701610,-0.03,-0.11,0.97,2.26,1.89,0.73,928.83,30.99
5701649,-0.03,-0.1,0.98,2.08,0.55,0.73,928.8,31.0
5701724,-0.02,-0.11,0.95,1.59,4.39,0.61,928.73,30.95
5701763,-0.03,-0.11,1.03,1.4,4.21,0.67,928.8,30.98
5701801,-0.04,-0.1,1.02,0.67,4.39,0.61,928.72,30.98
5701890,-0.01,-0.11,1.05,1.4,5.74,0.61,928.78,30.94
5701928,-0.06,-0.09,1.05,1.34,5.43,0.67,928.71,30.97
5701967,-0.08,-0.08,1.08,1.83,4.88,0.92,928.72,30.98
5702005,-0.04,-0.11,0.98,1.77,6.84,0.98,928.69,30.98
5702043,-0.03,-0.09,1.04,1.83,2.81,0.67,928.7,30.98
5702081,-0.06,-0.09,0.96,1.34,3.48,1.28,928.67,30.98
5702131,-0.05,-0.09,0.98,1.53,3.3,1.65,928.65,30.98
5702169,-0.09,-0.1,0.95,1.4,5.07,1.53,928.59,30.97
5702207,-0.06,-0.08,1.07,0.79,3.17,1.89,928.64,30.98
5702245,-0.06,-0.09,1.09,0.61,3.72,1.95,928.64,30.98
5702284,-0.03,-0.09,1.19,1.46,2.93,1.77,928.68,30.98
5702322,-0.06,-0.1,1.1,2.01,5.8,1.95,928.63,30.98
5702360,-0.03,-0.09,1.15,1.71,3.66,2.5,928.65,30.98
5702398,-0.02,-0.09,1.14,2.2,4.33,2.32,928.55,30.99
5702436,-0.07,-0.09,1.07,2.08,3.05,2.44,928.56,30.98
5702474,-0.03,-0.1,1.19,2.08,2.08,2.75,928.6,31.0
5702524,-0.01,-0.1,1.1,2.26,1.83,2.44,928.54,30.97
5702562,-0.04,-0.08,1.16,2.26,2.56,2.56,928.58,30.99
5702600,-0.04,-0.13,0.85,2.69,4.15,2.75,928.6,30.99
5702639,-0.02,-0.08,0.87,2.87,0.37,2.38,928.56,30.98
5702677,-0.08,-0.11,0.71,3.66,4.09,2.38,928.54,30.99
5702715,-0.04,-0.1,0.67,3.05,2.69,2.26,928.53,30.99
5702753,-0.05,-0.09,0.74,3.05,3.54,2.2,928.48,30.99
5702791,-0.05,-0.1,0.69,2.08,4.27,2.38,928.49,30.98
5702829,-0.04,-0.08,0.89,2.14,5.68,2.62,928.42,31.0
5702867,-0.06,-0.11,0.81,1.89,6.23,2.69,928.41,30.99
5702917,-0.1,-0.07,0.98,2.08,5.0,2.87,928.36,30.97
5702955,-0.06,-0.11,0.88,2.08,6.47,3.05,928.4,31.0
5702994,-0.07,-0.06,0.95,2.26,5.25,3.11,928.43,31.0
5703032,-0.05,-0.1,0.89,2.69,6.59,3.3,928.46,30.99
5703070,-0.04,-0.09,0.96,2.69,5.25,3.66,928.36,30.98
5703108,-0.05,-0.09,0.9,2.44,5.68,3.78,928.34,31.0
5703146,-0.03,-0.08,0.92,2.38,5.49,3.97,928.25,31.0
5703184,-0.07,-0.1,0.96,2.14,3.66,3.91,928.36,31.0
5703222,-0.04,-0.1,1.04,2.14,5.37,3.85,928.33,31.0
5703272,-0.02,-0.09,1.12,2.38,6.9,3.91,928.41,30.99
5703310,-0.01,-0.09,1.16,2.5,7.08,4.15,928.35,30.99
5703349,-0.02,-0.09,1.13,2.56,6.65,4.03,928.36,31.0
5703387,-0.03,-0.08,1.19,2.56,6.47,3.97,928.33,31.0
5703425,-0.01,-0.09,1.19,2.32,5.68,4.27,928.34,30.99
5703463,-0.01,-0.09,1.23,2.44,5.25,4.03,928.31,30.99
5703501,-0.02,-0.09,1.25,2.93,4.58,3.97,928.35,31.0
5703539,-0.01,-0.1,1.18,2.81,5.55,3.6,928.29,30.99
5703577,-0.0,-0.08,1.29,2.93,5.49,3.6,928.26,31.0
5703616,0.03,-0.11,1.19,3.23,7.02,3.48,928.28,31.0
5703665,0.0,-0.09,1.16,3.42,5.31,3.3,928.21,30.99
5703704,-0.03,-0.09,1.1,3.91,5.68,3.11,928.21,30.98
5703742,0.01,-0.1,1.02,3.66,4.82,2.81,928.25,30.99
5703780,0.03,-0.08,1.08,3.78,3.91,2.56,928.16,30.99
5703818,0.01,-0.11,0.94,3.6,5.25,2.26,928.13,30.99
5703856,-0.02,-0.1,0.9,3.6,4.82,2.38,928.17,31.0
5703894,0.01,-0.11,0.92,3.17,5.98,2.01,928.16,31.0
5703932,-0.0,-0.1,0.92,2.99,5.49,1.77,928.13,31.0
5703970,-0.04,-0.11,0.88,2.93,6.16,1.46,928.11,30.99
5704009,-0.01,-0.11,0.88,2.32,6.16,1.22,928.05,30.99
5704058,0.0,-0.1,0.95,1.95,6.35,1.22,928.12,30.98
5704096,0.0,-0.11,0.91,1.71,5.49,1.28,928.01,30.98
5704135,-0.0,-0.1,0.92,1.46,5.74,1.1,928.01,30.99
5704173,-0.01,-0.1,0.91,1.16,5.25,0.98,928.04,30.99
5704211,-0.02,-0.1,0.96,1.04,3.78,0.92,928.04,30.99
5704249,-0.0,-0.11,0.95,1.16,2.62,0.92,928.06,31.0
5704287,-0.02,-0.1,0.92,1.16,3.11,0.55,927.99,31.0
5704325,-0.01,-0.1,0.91,1.1,2.5,0.67,927.92,30.98
5704363,0.0,-0.1,0.97,1.04,2.26,0.67,928.03,30.99
5704401,-0.02,-0.11,0.96,1.16,2.62,0.73,927.86,30.99
5704451,0.0,-0.09,1.0,1.16,1.77,0.37,927.95,30.98
5704489,-0.02,-0.1,0.96,1.16,3.17,0.37,927.92,30.98
5704527,-0.03,-0.1,0.97,1.04,1.77,0.55,927.91,30.98
5704565,-0.0,-0.1,0.99,1.1,2.5,0.37,927.89,30.99
5704604,-0.02,-0.11,0.9,0.73,3.11,0.18,927.89,30.99
5704642,-0.03,-0.08,1.05,1.16,2.87,0.18,927.86,31.0
5704680,-0.0,-0.11,0.94,1.22,3.54,0.37,927.81,30.98
5704718,-0.01,-0.08,1.06,0.92,2.5,-0.12,927.87,31.0
5704756,-0.02,-0.09,1.05,1.65,4.64,-0.06,927.9,31.01
5704832,-0.01,-0.09,1.08,1.65,4.33,-0.24,927.83,30.97
5704870,-0.03,-0.1,1.05,1.53,3.91,-0.24,927.85,30.98
5704908,-0.02,-0.1,1.06,1.83,4.46,-0.37,927.91,30.98
5704998,-0.02,-0.09,1.05,2.08,4.46,-0.49,927.77,30.94
5705036,-0.04,-0.1,0.97,2.2,5.25,-0.37,927.81,30.96
5705074,-0.03,-0.09,1.01,1.95,4.7,-0.73,927.78,30.98
5705112,-0.02,-0.1,0.98,2.08,5.8,-0.73,927.79,30.98
5705150,-0.02,-0.09,0.94,2.14,5.92,-0.67,927.75,30.98
5705188,-0.04,-0.09,0.93,2.38,7.02,-0.67,927.65,30.97
5705226,-0.01,-0.11,0.88,2.5,7.02,-0.79,927.68,30.98
5705276,-0.03,-0.09,0.87,2.75,6.1,-0.73,927.72,30.96
5705314,-0.01,-0.1,0.8,3.05,6.23,-0.73,927.67,30.98
5705352,-0.02,-0.1,0.79,2.93,6.84,-0.85,927.61,30.97
5705391,-0.01,-0.11,0.68,2.56,6.29,-0.67,927.61,30.99
5705429,-0.0,-0.09,0.69,2.32,4.46,-0.73,927.53,30.97
5705467,-0.02,-0.1,0.74,2.38,5.31,-0.73,927.54,30.98
5705505,-0.05,-0.1,0.72,2.08,3.3,-0.67,927.63,31.0
5705543,-0.03,-0.1,0.75,2.14,3.72,-0.67,927.58,30.98
5705581,-0.01,-0.11,0.76,2.14,2.2,-0.67,927.52,30.99
5705631,-0.05,-0.1,0.75,1.77,1.77,-0.67,927.56,30.98
5705669,-0.02,-0.11,0.77,1.59,2.56,-0.73,927.49,30.98
5705707,-0.03,-0.09,0.81,1.46,2.14,-0.49,927.51,30.99
5705745,-0.05,-0.1,0.83,0.98,1.95,-0.43,927.43,30.98
5705784,-0.06,-0.11,0.85,1.1,1.4,-0.43,927.44,30.99
5705822,-0.01,-0.1,0.9,1.04,2.93,-0.49,927.47,30.98
5705860,-0.01,-0.1,0.93,0.73,2.38,-0.43,927.51,30.99
5705898,-0.04,-0.1,0.9,1.04,3.17,-0.18,927.41,30.98
5705936,-0.05,-0.09,0.92,1.1,2.93,-0.43,927.49,31.0
5705974,-0.06,-0.1,0.9,1.16,5.0,-0.37,927.45,30.99
5706024,-0.05,-0.1,0.9,1.28,5.19,-0.18,927.46,30.98
5706062,-0.03,-0.11,0.89,1.83,7.45,-0.37,927.44,30.98
5706101,-0.02,-0.1,0.91,1.71,6.1,-0.31,927.45,30.98
5706139,-0.03,-0.11,0.87,1.34,5.92,-0.31,927.43,30.98
5706177,-0.04,-0.08,0.88,1.59,5.68,-0.18,927.46,31.0
5706215,-0.06,-0.09,0.9,1.95,5.86,-0.18,927.38,30.99
5706253,-0.05,-0.1,0.82,2.32,5.0,-0.12,927.44,30.99
5706291,-0.04,-0.09,0.87,2.62,4.82,-0.24,927.41,31.0
5706330,-0.03,-0.11,0.8,2.56,6.16,-0.06,927.39,31.0
5706380,-0.02,-0.09,0.78,2.44,4.88,0.18,927.42,30.98
5706418,-0.06,-0.09,0.72,2.75,4.52,0.12,927.4,30.98
5706456,-0.03,-0.11,0.61,2.56,5.25,0.31,927.38,30.99
5706494,0.02,-0.08,0.73,2.26,3.42,-0.06,927.37,30.98
5706532,-0.02,-0.09,0.64,1.95,4.64,0.12,927.31,30.99
5706570,-0.03,-0.09,0.67,2.14,2.44,0.12,927.34,30.98
5706608,0.03,-0.1,0.77,1.53,4.09,-0.06,927.34,30.98
5706646,-0.02,-0.11,0.74,1.77,3.48,0.06,927.38,30.99
5706685,-0.06,-0.09,0.84,2.01,3.3,0.12,927.36,31.01
5706723,-0.01,-0.11,0.7,1.89,5.8,-0.24,927.39,31.0
5706773,0.01,-0.08,0.79,1.95,4.58,-0.31,927.36,30.99
5706811,-0.01,-0.11,0.67,1.59,4.52,-0.24,927.37,30.99
5706849,0.01,-0.09,0.78,1.59,4.09,-0.55,927.39,30.99
5706887,-0.03,-0.11,0.71,1.65,5.86,-0.73,927.37,30.99
5706925,-0.04,-0.09,0.8,1.65,2.32,-0.49,927.38,31.0
5706963,-0.01,-0.1,0.87,1.53,4.27,-0.55,927.36,30.99
5707002,-0.03,-0.1,0.86,1.46,4.39,-1.04,927.37,30.99
5707040,-0.0,-0.09,0.97,1.46,4.03,-0.85,927.37,30.99
5707078,-0.0,-0.1,0.94,2.01,4.82,-0.79,927.35,30.99
5707128,-0.04,-0.09,1.0,2.32,4.27,-0.92,927.35,30.97
5707166,-0.03,-0.1,0.97,2.26,5.68,-0.98,927.36,30.98
5707204,-0.02,-0.1,1.0,2.2,4.88,-1.34,927.32,30.97
5707242,-0.02,-0.1,0.97,2.08,6.16,-1.22,927.41,30.98
5707280,-0.01,-0.09,1.0,1.95,5.0,-1.28,927.38,30.99
5707318,-0.02,-0.11,1.0,1.83,6.29,-1.28,927.34,30.98
5707357,-0.01,-0.1,1.0,1.89,5.43,-1.34,927.36,30.99
5707395,-0.03,-0.09,1.05,2.01,5.19,-1.46,927.34,30.97
5707433,-0.02,-0.11,1.03,2.08,5.49,-1.4,927.36,31.0
5707471,-0.04,-0.1,1.07,2.08,4.58,-1.53,927.49,30.99
5707521,-0.03,-0.1,1.06,2.2,5.25,-1.4,927.37,30.98
5707559,-0.01,-0.11,1.05,2.26,4.82,-1.28,927.39,30.99
5707597,-0.03,-0.1,1.02,2.14,5.25,-1.53,927.34,30.99
5707635,-0.03,-0.09,0.97,2.08,5.55,-1.53,927.42,30.99
5707673,-0.03,-0.09,0.99,1.95,5.25,-1.53,927.34,30.99
5707711,-0.03,-0.1,0.94,1.77,6.41,-1.4,927.4,30.98
5707749,-0.02,-0.1,1.0,1.59,5.8,-1.4,927.41,31.0
5707788,-0.02,-0.09,0.94,1.83,6.35,-1.53,927.41,31.0
5707826,-0.03,-0.09,0.96,1.71,5.86,-1.4,927.38,30.99
5707901,-0.03,-0.1,0.98,1.71,5.98,-1.28,927.41,30.97
5707940,-0.05,-0.09,1.02,2.08,5.8,-1.4,927.42,30.98
5707978,-0.05,-0.1,0.95,2.14,5.86,-1.16,927.4,30.97
5708067,-0.05,-0.09,0.93,2.44,5.62,-1.1,927.38,30.96
5708105,-0.04,-0.09,0.98,2.26,5.25,-0.98,927.42,30.96
5708143,-0.04,-0.1,0.96,2.26,5.49,-0.98,927.42,30.97
5708182,-0.05,-0.09,0.97,2.2,5.49,-0.98,927.39,30.97
5708220,-0.05,-0.09,0.96,2.44,5.74,-0.79,927.35,30.97
5708258,-0.05,-0.09,0.96,2.32,5.19,-0.92,927.38,30.97
5708296,-0.05,-0.09,0.97,2.32,5.31,-0.79,927.41,30.98
5708346,-0.05,-0.08,0.97,2.26,4.64,-0.55,927.42,30.98
5708384,-0.04,-0.09,0.98,2.14,5.0,-0.43,927.36,30.98
5708422,-0.05,-0.09,0.95,2.26,5.49,-0.37,927.42,30.99
5708460,-0.06,-0.08,0.97,2.32,5.0,-0.24,927.37,30.98
5708498,-0.05,-0.1,0.97,2.44,5.43,-0.12,927.4,30.99
5708536,-0.06,-0.09,0.94,2.32,5.92,-0.06,927.37,30.98
5708575,-0.06,-0.08,0.93,2.38,6.23,-0.06,927.41,30.99
5708613,-0.05,-0.09,0.94,2.38,6.16,0.06,927.28,30.98
5708651,-0.05,-0.1,0.95,2.44,6.16,0.18,927.34,30.98
5708701,-0.05,-0.09,0.99,2.14,6.16,0.18,927.34,30.97
5708739,-0.04,-0.09,0.99,2.2,6.1,0.37,927.36,30.97
5708777,-0.05,-0.09,1.0,2.2,5.86,0.37,927.44,30.99
5708815,-0.07,-0.09,0.97,2.32,5.98,0.55,927.41,30.99
5708853,-0.05,-0.09,0.98,2.44,5.98,0.73,927.42,31.0
5708891,-0.05,-0.1,0.95,2.32,5.74,0.79,927.36,30.99
5708930,-0.06,-0.09,0.93,2.44,5.68,1.16,927.41,30.98
5708968,-0.05,-0.1,0.91,2.44,6.29,1.28,927.4,30.98
5709006,-0.04,-0.09,0.95,2.26,5.62,1.22,927.39,30.98
5709044,-0.05,-0.09,0.97,2.14,5.37,1.46,927.38,30.99
5709094,-0.05,-0.09,0.96,2.14,5.37,1.34,927.42,30.98
5709132,-0.05,-0.09,0.97,2.2,6.47,1.46,927.39,30.99
5709170,-0.04,-0.09,1.0,2.14,4.58,1.46,927.34,30.98
5709208,-0.04,-0.09,0.94,2.32,5.68,1.59,927.38,30.98
5709246,-0.04,-0.09,0.97,2.2,6.1,1.59,927.42,30.98
5709284,-0.05,-0.09,0.95,2.2,6.71,1.77,927.39,30.98
5709323,-0.05,-0.1,0.94,2.2,5.19,1.65,927.43,30.98
5709361,-0.05,-0.09,0.95,1.95,5.55,1.71,927.38,30.99
5709399,-0.05,-0.1,0.91,2.01,6.47,1.71,927.36,31.0
5709437,-0.05,-0.1,0.92,1.89,6.16,1.89,927.42,30.99
5709487,-0.05,-0.09,0.93,2.01,6.04,1.77,927.41,30.97
5709525,-0.04,-0.1,0.94,1.89,5.98,1.95,927.47,31.0
5709563,-0.03,-0.1,0.9,1.89,6.16,1.89,927.44,30.98
5709601,-0.03,-0.09,0.94,1.77,6.04,2.01,927.41,30.98
5709639,-0.04,-0.1,0.93,1.65,6.04,1.89,927.4,30.99
5709678,-0.04,-0.1,0.95,1.4,5.31,2.01,927.45,30.98
5709716,-0.02,-0.1,0.98,1.4,5.25,2.08,927.45,30.99
5709754,-0.04,-0.1,0.97,1.1,4.52,2.08,927.44,30.99
5709792,-0.02,-0.1,1.01,1.1,4.46,1.95,927.47,31.0
5709842,-0.03,-0.1,1.0,0.85,4.03,1.95,927.48,30.98
5709880,-0.03,-0.1,1.02,0.98,3.23,2.01,927.43,30.98
5709918,-0.04,-0.1,1.03,1.16,3.05,2.01,927.51,30.99
5709956,-0.02,-0.09,1.06,1.16,4.03,2.08,927.41,30.98
5709994,-0.03,-0.09,1.05,1.1,3.23,1.95,927.42,30.99
5710033,-0.03,-0.09,1.11,0.85,2.81,2.01,927.44,30.97
5710071,-0.02,-0.1,1.1,1.04,3.11,1.89,927.44,30.98
5710109,-0.02,-0.1,1.14,1.22,2.93,1.83,927.47,31.0
5710147,-0.01,-0.1,1.1,1.28,4.03,1.95,927.45,30.99
5710185,-0.03,-0.09,1.13,1.4,2.38,2.01,927.39,30.98
5710235,-0.03,-0.1,1.04,1.59,3.36,1.83,927.5,30.98
5710273,-0.01,-0.1,1.06,1.77,2.69,1.83,927.47,30.98
5710311,-0.03,-0.1,1.06,1.71,2.87,1.65,927.45,30.99
5710350,-0.02,-0.1,1.04,1.83,3.6,1.34,927.5,30.99
5710388,-0.02,-0.09,1.04,1.89,4.03,1.4,927.48,30.99
5710426,-0.01,-0.1,1.02,1.89,4.27,1.34,927.5,30.98
5710464,-0.01,-0.09,1.04,1.59,4.15,1.22,927.5,30.99
5710502,-0.01,-0.1,1.05,1.65,4.82,1.16,927.48,30.99
5710540,-0.04,-0.1,1.0,1.77,4.76,0.92,927.46,30.99
5710578,-0.02,-0.09,1.02,1.71,4.58,1.04,927.5,31.0
5710628,-0.02,-0.11,0.98,1.95,5.25,0.92,927.47,30.98
5710666,-0.02,-0.11,0.97,2.01,5.37,0.85,927.54,30.99
5710705,-0.02,-0.1,0.96,1.89,5.55,0.85,927.53,30.99
5710743,-0.0,-0.1,0.95,1.59,5.0,0.85,927.48,30.99
5710781,-0.01,-0.09,0.93,0.98,4.21,0.55,927.52,30.98
5710819,-0.01,-0.1,0.95,0.79,5.0,0.85,927.49,31.0
5710857,-0.01,-0.11,0.93,0.61,4.03,0.67,927.49,31.0
5710895,-0.02,-0.09,0.99,0.61,3.54,0.55,927.45,30.99
5710934,-0.01,-0.09,0.97,0.43,4.27,0.61,927.53,30.99
5711009,-0.02,-0.1,1.04,0.61,2.87,0.37,927.48,30.96
5711048,-0.02,-0.11,1.05,0.43,2.99,0.31,927.53,30.98
5711086,-0.01,-0.08,1.07,0.73,3.05,0.37,927.46,30.98
5711250,-0.01,-0.1,1.11,0.98,2.08,0.18,927.51,30.92
5711288,-0.02,-0.1,1.14,0.67,1.1,0.24,927.48,30.93
5711326,-0.01,-0.09,1.15,1.04,2.01,-0.12,927.51,30.95
5711364,-0.01,-0.09,1.17,1.22,1.89,-0.06,927.57,30.95
5711402,0.0,-0.09,1.19,1.46,2.2,-0.24,927.58,30.95
5711441,-0.01,-0.1,1.16,1.65,2.32,-0.12,927.56,30.97
5711479,0.0,-0.09,1.16,1.89,1.83,-0.37,927.48,30.95
5711528,-0.01,-0.09,1.13,1.95,1.95,-0.37,927.51,30.95
5711567,-0.01,-0.09,1.1,2.14,2.14,-0.61,927.54,30.96
5711605,0.01,-0.1,1.08,2.08,2.44,-0.61,927.53,30.96
5711643,0.01,-0.09,1.07,2.01,2.32,-0.85,927.49,30.97
5711681,-0.0,-0.1,1.05,2.2,2.5,-0.92,927.5,30.95
5711719,-0.01,-0.1,1.03,2.08,2.69,-1.1,927.56,30.98
5711757,-0.01,-0.09,1.03,2.32,2.81,-1.16,927.55,30.97
5711795,-0.01,-0.11,1.0,2.14,3.05,-1.4,927.49,30.96
5711833,-0.01,-0.1,1.01,2.2,2.99,-1.4,927.5,30.97
5711883,-0.0,-0.09,1.01,2.14,3.48,-1.46,927.51,30.97
5711921,-0.0,-0.1,1.0,2.08,3.54,-1.59,927.49,30.98
5711960,-0.01,-0.1,0.99,1.83,3.42,-1.77,927.54,30.97
5711998,-0.01,-0.1,0.99,1.71,3.72,-1.77,927.46,30.98
5712036,-0.0,-0.1,1.0,1.59,3.78,-1.77,927.45,30.98
5712074,-0.02,-0.09,1.01,1.34,3.66,-1.95,927.51,31.0
5712112,-0.01,-0.1,1.0,1.46,3.72,-1.95,927.42,30.96
5712150,-0.01,-0.1,1.02,1.4,3.48,-2.08,927.52,30.98
5712188,-0.01,-0.1,1.02,1.34,4.21,-2.08,927.47,30.98
5712226,-0.03,-0.1,1.0,1.4,4.15,-2.26,927.43,30.98
5712276,-0.02,-0.09,1.03,1.46,4.52,-2.26,927.49,30.96
5712314,-0.02,-0.1,1.03,1.28,4.09,-2.44,927.5,30.98
5712353,-0.03,-0.1,1.04,1.28,4.46,-2.5,927.5,30.98
5712391,-0.03,-0.09,1.03,1.4,4.94,-2.5,927.44,30.99
5712429,-0.03,-0.09,1.06,1.59,5.13,-2.44,927.56,30.99
5712467,-0.02,-0.12,1.06,1.77,5.0,-2.62,927.46,30.99
5712505,-0.03,-0.09,1.05,1.89,5.49,-2.62,927.5,30.98
5712543,-0.03,-0.1,1.03,2.14,5.37,-2.32,927.46,30.98
5712581,-0.03,-0.09,1.03,1.95,5.43,-2.5,927.5,31.0
5712631,-0.03,-0.09,1.0,1.95,5.49,-2.62,927.52,30.97
5712669,-0.03,-0.09,1.0,1.95,5.55,-2.56,927.45,30.98
5712707,-0.04,-0.1,0.98,1.89,5.49,-2.38,927.5,30.98
5712746,-0.03,-0.09,0.98,1.77,5.25,-2.38,927.5,30.98
5712784,-0.03,-0.09,0.98,1.77,5.25,-2.38,927.47,30.99
5712822,-0.03,-0.09,0.95,1.59,5.19,-2.26,927.48,30.98
5712860,-0.04,-0.09,0.97,1.28,4.52,-2.14,927.45,30.98
5712898,-0.03,-0.1,0.98,1.22,4.7,-2.01,927.43,30.99
5712936,-0.03,-0.09,1.0,1.1,3.97,-2.01,927.42,30.98
5712974,-0.03,-0.1,0.98,0.92,3.91,-1.89,927.49,30.98
5713024,-0.04,-0.09,0.99,0.61,2.75,-2.01,927.48,30.97
5713062,-0.04,-0.09,0.98,0.43,3.42,-1.95,927.49,30.98
5713101,-0.03,-0.09,0.99,0.43,3.23,-1.83,927.39,30.98
5713139,-0.04,-0.08,1.03,0.37,3.78,-1.71,927.46,30.98
5713177,-0.03,-0.1,0.99,0.43,3.78,-1.59,927.48,31.0
5713215,-0.05,-0.09,1.03,0.37,3.17,-1.77,927.46,31.0
5713253,-0.05,-0.1,1.01,0.55,3.42,-1.65,927.41,30.98
5713291,-0.03,-0.09,0.99,0.49,3.23,-1.65,927.41,30.99
5713329,-0.04,-0.08,1.0,0.85,3.54,-1.59,927.43,30.98
5713379,-0.03,-0.1,0.99,0.73,3.72,-1.53,927.4,30.97
5713417,-0.03,-0.09,1.04,0.73,3.42,-1.53,927.43,30.98
5713456,-0.06,-0.09,1.03,0.79,4.15,-1.4,927.39,30.96
5713494,-0.05,-0.09,1.07,0.61,4.33,-1.28,927.41,30.98
5713532,-0.04,-0.09,1.09,0.79,4.27,-1.16,927.36,30.99
5713570,-0.03,-0.1,1.08,0.92,4.46,-1.22,927.39,30.99
5713608,-0.03,-0.1,1.04,0.79,4.15,-1.28,927.43,30.98
5713646,-0.05,-0.09,1.05,0.92,4.15,-1.28,927.39,30.99
5713684,-0.07,-0.09,1.05,1.04,4.58,-0.92,927.39,30.99
5713723,-0.05,-0.09,1.03,0.79,4.7,-1.1,927.36,30.99
5713773,-0.04,-0.09,1.02,0.98,5.0,-1.1,927.41,30.98
5713811,-0.04,-0.09,1.05,0.85,5.0,-0.92,927.35,30.97
5713849,-0.05,-0.1,1.01,0.98,5.74,-0.79,927.41,30.98
5713887,-0.05,-0.09,1.01,0.92,5.68,-0.85,927.41,31.0
5713925,-0.05,-0.09,1.04,1.22,5.62,-0.67,927.44,30.99
5713963,-0.05,-0.1,0.99,1.1,5.8,-0.67,927.41,31.0
5714001,-0.05,-0.09,1.01,1.34,5.19,-0.61,927.4,31.0
5714040,-0.05,-0.09,0.97,1.28,5.55,-0.49,927.42,31.0
5714078,-0.03,-0.09,0.99,1.04,4.7,-0.37,927.45,31.0
5714153,-0.04,-0.09,1.0,0.85,3.97,-0.37,927.35,30.97
5714192,-0.05,-0.08,1.03,0.79,3.6,-0.24,927.38,30.98
5714230,-0.04,-0.09,1.07,1.04,3.23,0.06,927.34,30.97
5714319,-0.02,-0.1,1.1,0.85,3.42,0.18,927.36,30.95
5714357,-0.04,-0.09,1.1,1.16,3.23,0.06,927.4,30.96
5714396,-0.03,-0.09,1.06,1.28,3.91,0.0,927.42,30.96
5714434,-0.03,-0.08,1.07,1.71,3.85,-0.12,927.39,30.97
5714472,-0.02,-0.1,1.0,1.77,5.37,-0.18,927.41,30.97
5714510,-0.02,-0.1,0.99,2.01,4.94,-0.24,927.39,30.97
5714548,-0.02,-0.09,0.98,2.08,4.82,-0.24,927.37,30.97
5714598,-0.03,-0.09,0.91,2.08,5.07,-0.31,927.41,30.98
5714636,0.02,-0.09,0.96,1.83,5.74,-0.43,927.38,30.98
5714674,-0.01,-0.1,0.96,2.2,5.0,-0.37,927.37,30.98
5714712,-0.03,-0.11,0.93,2.44,3.6,-0.37,927.39,30.98
5714750,-0.01,-0.1,0.92,2.01,3.97,-0.49,927.33,30.99
5714789,0.01,-0.09,0.92,1.89,3.97,-0.55,927.32,30.98
5714827,-0.02,-0.09,0.88,1.83,3.6,-0.43,927.32,30.97
5714865,0.01,-0.1,0.87,1.77,4.15,-0.73,927.34,30.98
5714903,-0.01,-0.09,0.88,1.46,4.15,-0.92,927.34,30.98
5714953,0.0,-0.1,0.88,1.34,3.85,-0.98,927.3,30.97
5714991,-0.01,-0.1,0.89,1.22,4.03,-0.98,927.31,30.98
5715029,-0.02,-0.09,0.92,0.98,3.54,-1.04,927.35,30.98
5715067,0.0,-0.1,0.94,0.61,3.23,-1.04,927.31,30.98
5715105,-0.0,-0.1,1.0,0.43,2.56,-1.28,927.37,31.0
5715143,-0.02,-0.1,0.97,0.31,3.42,-1.28,927.4,30.99
5715182,-0.01,-0.1,1.01,0.37,2.75,-1.34,927.38,31.0
5715220,-0.0,-0.1,1.03,0.24,2.87,-1.46,927.35,30.98
5715258,-0.03,-0.09,1.05,0.43,2.38,-1.4,927.31,30.97
5715296,-0.03,-0.09,1.06,0.55,2.62,-1.59,927.32,30.98
5715346,-0.03,-0.09,1.1,0.85,2.44,-1.71,927.41,30.98
5715384,-0.01,-0.09,1.11,1.1,2.87,-1.65,927.34,30.98
5715422,-0.03,-0.09,1.09,1.04,3.36,-1.59,927.3,31.0
5715460,-0.03,-0.1,1.13,1.28,4.46,-1.83,927.33,30.98
5715498,-0.02,-0.09,1.14,1.46,4.58,-1.77,927.33,30.98
5715537,-0.03,-0.08,1.15,1.46,5.49,-1.89,927.36,31.0
5715575,-0.02,-0.08,1.15,1.59,5.62,-2.01,927.34,30.99
5715613,-0.02,-0.09,1.15,1.71,6.1,-1.89,927.33,30.99
5715651,-0.03,-0.09,1.13,1.89,6.04,-1.95,927.34,30.98
5715701,-0.02,-0.08,1.11,1.83,6.47,-2.01,927.32,30.98
5715739,-0.02,-0.09,1.1,1.89,7.57,-2.32,927.29,30.99
5715777,-0.04,-0.08,1.09,1.89,7.57,-2.08,927.29,30.98
5715815,-0.05,-0.09,1.09,1.95,8.06,-2.14,927.28,30.99
5715853,-0.03,-0.09,1.09,2.01,8.73,-2.26,927.29,30.99
5715892,-0.03,-0.09,1.09,1.89,8.48,-2.14,927.35,30.99
5715930,-0.04,-0.08,1.09,1.89,8.36,-2.01,927.31,31.0
5715968,-0.04,-0.09,1.06,1.83,8.3,-2.2,927.28,31.0
5716006,-0.04,-0.08,1.11,1.77,8.24,-2.01,927.28,30.99
5716044,-0.02,-0.09,1.1,1.89,6.84,-2.08,927.31,30.99
5716094,-0.03,-0.08,1.14,1.71,5.98,-1.77,927.32,30.98
5716132,-0.03,-0.08,1.12,1.59,5.8,-1.65,927.29,30.98
5716170,-0.04,-0.08,1.14,1.77,4.64,-1.46,927.25,30.99
5716208,-0.03,-0.09,1.08,1.77,3.23,-1.53,927.23,30.99
5716246,-0.04,-0.08,1.05,1.77,2.38,-1.22,927.29,31.0
5716284,-0.03,-0.09,1.02,2.01,2.87,-1.1,927.27,31.0
5716323,-0.04,-0.09,0.96,2.26,1.53,-0.92,927.25,31.0
5716361,-0.05,-0.08,0.91,2.56,0.85,-0.92,927.24,31.0
5716399,-0.02,-0.09,0.85,2.32,1.46,-1.04,927.21,30.99
5716449,-0.02,-0.09,0.84,2.2,2.38,-0.85,927.19,30.97
5716487,-0.04,-0.09,0.77,2.44,2.44,-0.85,927.22,31.0
5716525,-0.04,-0.08,0.82,2.32,2.5,-0.98,927.2,30.99
5716563,-0.03,-0.1,0.79,2.14,3.23,-0.92,927.24,31.0
5716601,-0.02,-0.09,0.84,1.95,3.11,-1.04,927.19,31.0
5716639,-0.03,-0.09,0.81,1.89,3.85,-1.1,927.25,30.99
5716677,-0.02,-0.08,0.84,1.65,4.15,-0.92,927.22,30.99
5716715,-0.01,-0.09,0.87,1.53,4.64,-1.04,927.17,30.99
5716754,-0.02,-0.09,0.87,1.71,4.39,-1.16,927.16,30.99
5716792,-0.03,-0.08,0.9,1.53,4.33,-1.16,927.19,31.0
5716841,-0.02,-0.1,0.89,1.46,4.03,-1.34,927.15,30.98
5716880,-0.03,-0.09,0.92,1.59,4.09,-1.28,927.17,30.97
5716918,-0.02,-0.09,0.91,1.46,3.6,-1.16,927.17,30.99
5716956,-0.03,-0.09,0.91,1.65,4.27,-1.22,927.22,30.99
5716994,-0.03,-0.08,0.93,1.59,3.97,-1.34,927.24,31.0
5717032,-0.03,-0.09,0.92,1.71,3.6,-1.16,927.17,31.0
5717070,-0.02,-0.09,0.96,1.71,3.66,-1.34,927.21,30.99
5717108,-0.0,-0.09,0.97,1.71,4.39,-1.53,927.17,30.99
5717146,-0.02,-0.08,0.97,1.77,3.91,-1.53,927.21,31.0
5717222,-0.03,-0.09,0.92,1.53,3.48,-1.34,927.13,30.96
5717260,-0.04,-0.08,0.95,1.77,2.5,-1.53,927.17,30.97
5717298,-0.02,-0.1,0.9,1.71,2.2,-1.34,927.22,30.99
5717388,-0.02,-0.08,0.94,1.65,2.5,-1.53,927.19,30.95
5717426,-0.03,-0.1,0.94,1.71,2.32,-1.28,927.15,30.97
5717464,-0.03,-0.08,1.0,1.34,2.26,-1.53,927.14,30.96
5717502,-0.03,-0.09,0.98,1.28,2.62,-1.71,927.23,30.98
5717540,-0.02,-0.09,1.03,1.22,2.38,-1.59,927.09,30.96
5717579,-0.01,-0.09,1.03,1.4,3.11,-1.71,927.17,30.97
5717617,-0.01,-0.09,1.01,1.46,2.38,-1.71,927.17,30.98
5717666,-0.02,-0.09,1.04,1.59,2.5,-1.59,927.19,30.97
5717705,-0.03,-0.09,1.04,1.59,2.2,-1.65,927.17,30.99
5717743,-0.03,-0.09,1.05,1.53,2.08,-1.83,927.15,30.97
5717781,-0.02,-0.08,1.06,1.53,2.26,-1.77,927.25,30.98
5717819,-0.01,-0.08,1.03,1.53,2.26,-1.83,927.18,30.98
5717857,-0.02,-0.09,1.05,1.46,1.89,-1.83,927.17,30.98
5717895,-0.02,-0.09,1.09,1.4,2.2,-1.89,927.18,30.99
5717933,-0.04,-0.09,1.07,1.4,2.38,-1.95,927.14,30.99
5717972,-0.03,-0.08,1.1,1.46,2.26,-1.95,927.12,30.98
5718021,-0.03,-0.09,1.09,1.59,2.26,-2.01,927.18,30.98
5718059,-0.03,-0.09,1.09,1.46,2.2,-2.01,927.17,30.98
5718098,-0.02,-0.09,1.08,1.77,2.75,-2.01,927.14,30.97
5718136,-0.02,-0.09,1.08,1.59,2.14,-1.95,927.14,30.98
5718174,-0.05,-0.08,1.09,1.83,2.01,-2.01,927.16,30.99
5718212,-0.03,-0.09,1.1,1.83,2.93,-2.01,927.19,30.99
5718250,-0.04,-0.09,1.09,1.83,2.93,-2.2,927.17,31.0
5718288,-0.05,-0.08,1.07,2.08,3.11,-1.89,927.17,30.98
5718326,-0.04,-0.08,1.09,2.26,2.32,-1.77,927.23,30.99
5718364,-0.04,-0.09,1.04,2.44,2.81,-1.83,927.2,30.99
5718414,-0.06,-0.08,1.01,2.62,2.5,-1.59,927.19,30.99
5718452,-0.05,-0.09,0.98,2.44,3.36,-1.34,927.14,31.0
5718491,-0.05,-0.08,0.98,2.5,2.2,-1.34,927.2,31.0
5718529,-0.05,-0.08,0.96,2.14,2.81,-1.4,927.13,31.0
5718567,-0.06,-0.09,0.95,2.14,3.23,-1.16,927.19,31.0
5718605,-0.04,-0.09,0.95,2.01,3.48,-1.1,927.16,31.0
5718643,-0.05,-0.09,0.99,2.01,3.72,-0.92,927.16,31.0
5718681,-0.04,-0.09,0.95,1.89,4.82,-0.85,927.17,30.99
5718719,-0.06,-0.08,0.97,2.01,4.27,-0.73,927.16,31.0
5718769,-0.06,-0.1,0.9,2.08,5.86,-0.79,927.15,30.98
5718807,-0.04,-0.08,0.95,2.08,4.27,-0.73,927.15,31.0
5718845,-0.04,-0.09,0.91,2.2,5.0,-0.61,927.11,30.99
5718883,-0.05,-0.09,0.89,1.95,4.82,-0.43,927.14,30.98
5718922,-0.04,-0.08,0.95,2.01,5.0,-0.31,927.13,30.99
5718960,-0.02,-0.1,0.91,1.83,5.13,-0.37,927.14,30.99
5718998,-0.04,-0.08,0.91,1.77,5.31,-0.24,927.15,30.99
5719036,-0.03,-0.09,0.89,1.53,5.62,-0.37,927.14,30.98
5719074,-0.03,-0.08,0.95,1.65,4.27,-0.24,927.17,30.99
5719112,-0.02,-0.1,0.9,1.59,5.43,-0.31,927.19,31.0
5719162,-0.02,-0.08,0.98,1.71,4.09,-0.18,927.13,30.98
5719200,-0.02,-0.1,0.92,1.83,4.76,-0.12,927.18,30.99
5719238,-0.03,-0.09,0.97,1.89,3.05,-0.18,927.19,30.99
5719277,-0.03,-0.09,0.95,1.71,3.48,-0.12,927.18,30.98
5719315,-0.03,-0.09,0.94,1.83,2.69,-0.18,927.19,31.0
5719353,-0.03,-0.09,0.95,1.89,3.05,-0.18,927.16,30.99
5719391,-0.02,-0.09,0.92,1.83,2.56,-0.12,927.2,31.0
5719429,-0.01,-0.08,0.96,1.95,2.69,-0.24,927.19,31.0
5719467,-0.02,-0.09,0.93,1.83,2.81,-0.12,927.17,31.0
5719517,-0.03,-0.09,0.97,1.77,2.44,-0.12,927.22,30.99
5719555,-0.03,-0.1,0.92,1.53,2.75,-0.31,927.17,31.0
5719593,-0.02,-0.09,0.96,1.53,2.14,-0.31,927.15,30.98
5719631,-0.03,-0.09,0.95,1.53,2.32,-0.31,927.18,30.99
5719669,-0.01,-0.09,0.97,1.46,2.56,-0.43,927.18,30.99
5719708,-0.03,-0.09,0.95,1.53,2.75,-0.49,927.16,31.01
5719746,-0.02,-0.09,0.98,1.4,2.75,-0.49,927.23,31.0
5719784,-0.02,-0.09,0.98,1.46,2.62,-0.61,927.22,31.0
5719822,-0.03,-0.09,0.95,1.16,2.93,-0.49,927.19,30.99
5719860,-0.02,-0.09,0.97,1.22,3.23,-0.61,927.17,31.0
5719910,-0.01,-0.09,0.97,1.1,2.87,-0.67,927.22,30.99
5719948,-0.03,-0.07,0.98,1.1,1.95,-0.49,927.22,31.0
5719986,-0.03,-0.09,1.02,1.16,3.05,-0.73,927.21,31.0
5720024,-0.01,-0.09,1.05,0.98,2.87,-0.79,927.17,31.0
5720062,-0.01,-0.08,1.11,1.22,2.62,-0.79,927.2,30.99
5720101,-0.02,-0.09,1.08,1.28,2.38,-0.73,927.2,31.0
5720139,-0.03,-0.08,1.12,1.4,2.08,-0.67,927.22,31.0
5720177,-0.03,-0.08,1.09,1.34,2.01,-0.73,927.24,31.0
5720215,-0.01,-0.08,1.09,1.4,1.77,-0.61,927.24,31.0
5720291,-0.04,-0.09,1.07,1.28,0.79,-0.85,927.2,30.98
5720329,-0.04,-0.09,1.08,1.1,0.55,-0.67,927.17,30.97
5720367,-0.05,-0.09,1.06,1.28,0.49,-0.85,927.2,30.99
5720457,-0.04,-0.09,1.06,1.59,1.53,-0.79,927.22,30.95
5720495,-0.02,-0.09,1.05,1.71,2.26,-0.73,927.32,30.97
5720533,-0.03,-0.08,1.04,1.89,3.11,-0.79,927.2,30.98
5720571,-0.04,-0.08,1.03,2.26,3.91,-0.73,927.23,30.96
5720609,-0.02,-0.09,1.08,2.38,3.23,-0.85,927.25,30.98
5720647,-0.04,-0.1,1.06,2.38,3.54,-0.85,927.24,30.98
5720685,-0.04,-0.09,1.02,2.08,3.42,-0.79,927.22,30.98
5720735,-0.03,-0.09,1.0,2.32,3.66,-0.79,927.25,30.98
5720773,-0.03,-0.08,0.99,2.08,2.5,-0.73,927.2,30.98
5720811,-0.03,-0.09,1.0,2.01,2.87,-0.73,927.21,30.98
5720850,-0.03,-0.09,0.96,2.01,3.17,-0.92,927.17,30.97
5720888,-0.04,-0.08,1.0,2.32,2.99,-0.67,927.23,30.98
5720926,-0.02,-0.1,0.96,2.32,3.54,-0.73,927.23,30.98
5720964,-0.03,-0.09,0.96,2.62,3.78,-0.73,927.22,30.99
5721002,-0.04,-0.09,0.96,2.81,3.91,-0.85,927.23,30.99
5721040,-0.03,-0.1,0.92,2.99,3.72,-0.85,927.21,30.99
5721090,-0.03,-0.09,0.91,2.38,3.11,-0.73,927.19,30.97
5721128,-0.01,-0.09,0.87,2.14,3.17,-0.98,927.2,30.98
5721166,-0.04,-0.09,0.86,2.08,3.54,-0.98,927.2,30.98
5721205,-0.01,-0.09,0.92,1.65,2.44,-0.92,927.25,31.0
5721243,-0.03,-0.09,0.88,1.53,2.81,-1.1,927.22,30.98
5721281,-0.05,-0.08,0.89,1.65,2.69,-0.98,927.23,30.98
5721319,-0.03,-0.1,0.89,1.59,2.99,-0.92,927.23,30.99
5721357,-0.01,-0.09,0.89,1.65,2.81,-1.04,927.21,30.99
5721395,-0.03,-0.08,0.89,1.53,2.69,-0.98,927.29,31.01
5721433,-0.02,-0.09,0.89,1.65,2.08,-0.98,927.24,31.0
5721483,-0.02,-0.09,0.93,1.34,2.32,-1.04,927.25,30.99
5721521,-0.02,-0.09,0.94,1.28,1.95,-1.04,927.3,30.99
5721559,-0.03,-0.09,0.98,1.46,1.71,-0.98,927.22,30.99
5721598,-0.02,-0.11,0.94,1.34,1.95,-0.98,927.27,31.0
5721636,-0.02,-0.08,0.98,1.34,1.16,-1.1,927.27,30.99
5721674,-0.03,-0.09,0.94,1.28,2.44,-0.92,927.28,31.0
5721712,-0.02,-0.09,0.94,1.22,1.59,-1.1,927.28,31.01
5721750,-0.03,-0.09,0.99,1.16,2.08,-1.16,927.27,31.0
5721788,-0.02,-0.1,0.97,1.22,1.89,-1.16,927.29,31.0
5721838,-0.01,-0.09,1.03,1.1,2.32,-1.22,927.28,30.99
5721876,-0.02,-0.09,1.04,1.46,2.5,-1.28,927.23,31.0
5721914,-0.03,-0.08,1.04,1.4,2.32,-1.16,927.26,31.0
5721952,-0.02,-0.09,1.06,1.65,2.32,-1.22,927.26,31.0
5721990,-0.01,-0.09,1.04,1.46,2.08,-1.4,927.29,31.01
5722029,-0.03,-0.09,1.04,1.59,2.38,-1.4,927.24,31.0
5722067,-0.03,-0.09,1.01,1.59,3.05,-1.4,927.31,31.01
5722105,-0.02,-0.09,1.04,1.59,2.62,-1.53,927.29,31.0
5722143,-0.02,-0.09,1.01,1.59,2.99,-1.59,927.3,31.0
5722181,-0.03,-0.09,1.02,1.59,2.81,-1.59,927.24,31.0
5722231,-0.02,-0.09,1.03,1.59,2.81,-1.65,927.24,30.99
5722269,-0.02,-0.09,1.01,1.46,2.81,-1.71,927.34,31.0
5722307,-0.03,-0.09,1.03,1.34,2.62,-1.65,927.28,30.99
5722345,-0.02,-0.09,1.01,1.53,2.87,-1.71,927.23,31.0
5722383,-0.02,-0.09,1.01,1.34,2.99,-1.77,927.3,31.01
5722421,-0.03,-0.09,1.01,1.22,2.75,-1.77,927.33,30.99
5722460,-0.03,-0.09,1.05,1.1,2.5,-1.83,927.31,31.0
5722498,-0.03,-0.09,1.02,1.1,2.99,-1.77,927.28,31.0
5722536,-0.03,-0.09,1.05,1.16,2.93,-1.77,927.36,31.01
5722586,-0.04,-0.09,1.05,1.16,3.48,-1.71,927.35,30.99
5722624,-0.03,-0.08,1.06,1.28,3.11,-1.77,927.34,30.99
5722662,-0.03,-0.09,1.07,1.28,3.11,-1.77,927.29,30.99
5722700,-0.03,-0.08,1.09,1.04,3.11,-1.65,927.38,30.99
5722738,-0.05,-0.09,1.08,1.22,3.42,-1.65,927.32,31.0
5722776,-0.04,-0.09,1.05,1.04,3.23,-1.71,927.34,31.0
5722814,-0.02,-0.08,1.04,1.16,3.36,-1.53,927.34,31.01
5722853,-0.03,-0.08,1.04,1.16,3.36,-1.59,927.31,31.0
5722891,-0.04,-0.09,1.02,1.4,3.11,-1.53,927.36,31.01
5722940,-0.05,-0.08,1.04,1.22,3.05,-1.59,927.37,31.0
5722979,-0.04,-0.08,1.03,1.46,2.99,-1.53,927.32,31.0
5723017,-0.04,-0.09,1.02,1.71,2.81,-1.4,927.34,31.0
5723055,-0.04,-0.09,1.04,1.77,2.5,-1.34,927.34,31.0
5723093,-0.04,-0.09,1.03,1.89,2.5,-1.34,927.36,31.01
5723131,-0.04,-0.09,1.03,1.95,2.26,-1.1,927.35,31.0
5723169,-0.05,-0.09,1.01,2.14,2.75,-1.28,927.31,31.0
5723207,-0.04,-0.09,1.01,2.2,3.17,-1.16,927.37,31.0
5723245,-0.05,-0.09,1.0,2.2,3.54,-1.22,927.29,31.01
5723284,-0.05,-0.08,1.02,2.32,3.85,-1.16,927.3,31.01
5723359,-0.05,-0.08,1.03,2.26,4.09,-0.85,927.37,30.98
5723398,-0.05,-0.09,1.08,2.2,3.6,-0.92,927.33,30.99
5723436,-0.04,-0.1,1.04,2.32,3.72,-0.79,927.32,31.0
5723525,-0.05,-0.08,1.01,2.26,1.4,-0.55,927.32,30.96
5723563,-0.06,-0.08,0.99,2.14,0.06,-0.55,927.3,30.97
5723602,-0.07,-0.08,1.02,2.08,0.24,-0.24,927.36,30.98
5723640,-0.06,-0.09,0.97,2.14,0.79,-0.24,927.31,30.98
5723678,-0.06,-0.08,1.01,2.08,1.04,-0.12,927.32,30.99
5723716,-0.06,-0.09,0.96,1.83,1.71,-0.06,927.23,30.99
5723766,-0.05,-0.07,1.01,1.71,1.34,0.0,927.38,30.98
5723804,-0.07,-0.09,0.97,1.95,2.62,0.12,927.33,30.99
5723842,-0.08,-0.08,0.98,2.01,1.95,0.24,927.32,30.99
5723880,-0.04,-0.08,1.04,2.14,2.56,0.31,927.29,30.98
5723918,-0.05,-0.09,0.98,1.83,3.17,0.31,927.34,30.99
5723957,-0.04,-0.08,1.02,1.95,4.58,0.37,927.39,31.0
5723995,-0.04,-0.1,1.01,2.01,5.13,0.43,927.34,30.99
5724033,-0.06,-0.08,1.04,1.65,4.58,0.55,927.39,31.0
5724071,-0.07,-0.08,1.03,1.89,5.68,0.73,927.42,30.99
5724109,-0.04,-0.09,1.02,1.83,5.37,0.79,927.37,31.0
5724159,-0.04,-0.08,1.03,1.95,4.88,0.92,927.38,30.98
5724197,-0.03,-0.09,1.03,1.95,4.82,1.04,927.38,31.01
5724235,-0.03,-0.09,0.99,2.01,4.88,1.22,927.32,31.01
5724273,-0.04,-0.07,1.02,2.14,4.64,1.16,927.36,31.0
5724311,-0.05,-0.09,0.98,2.14,4.64,1.46,927.41,31.0
5724350,-0.04,-0.09,0.95,2.01,3.91,1.46,927.33,31.01
5724388,-0.04,-0.08,0.96,2.26,3.17,1.4,927.36,31.01
5724426,-0.02,-0.09,0.94,2.08,3.23,1.46,927.4,31.0
5724464,-0.04,-0.09,0.94,2.32,2.44,1.59,927.36,31.01
5724502,-0.03,-0.1,0.95,2.01,2.87,1.46,927.35,31.0
5724552,-0.03,-0.09,1.0,1.95,2.81,1.65,927.38,30.99
5724590,-0.03,-0.09,1.02,1.77,3.05,1.71,927.36,31.01
5724628,-0.02,-0.09,1.03,1.46,1.65,1.65,927.35,30.99
5724666,-0.05,-0.09,1.08,1.95,2.81,1.46,927.37,31.01
5724704,-0.03,-0.1,1.03,1.83,2.01,1.71,927.32,31.01
5724743,-0.05,-0.08,1.07,1.95,1.71,1.71,927.35,31.01
5724781,-0.02,-0.09,0.99,1.95,2.38,1.65,927.43,31.01
5724819,-0.01,-0.09,1.06,1.77,1.77,1.65,927.36,31.01
5724857,-0.01,-0.1,1.0,1.59,2.5,1.77,927.38,31.01
5724907,-0.03,-0.08,1.05,1.59,1.65,1.65,927.33,30.99
5724945,-0.01,-0.09,1.04,1.46,2.32,1.65,927.38,31.01
5724983,-0.01,-0.09,1.05,1.46,1.1,1.46,927.41,31.01
5725021,-0.01,-0.09,1.04,1.1,1.34,1.4,927.3,30.99
5725059,-0.03,-0.09,0.98,1.16,1.65,1.34,927.34,31.01
5725098,-0.02,-0.09,1.0,1.28,1.59,1.16,927.37,31.01
5725136,-0.01,-0.1,0.94,1.22,2.56,1.16,927.36,31.01
5725174,-0.02,-0.09,0.96,1.34,2.32,1.04,927.39,31.0
5725212,-0.02,-0.09,0.96,1.22,2.81,0.92,927.41,31.01
5725250,-0.01,-0.09,0.99,1.34,2.08,0.85,927.39,31.02
5725300,-0.02,-0.09,0.99,1.53,2.14,0.85,927.35,31.0
5725338,-0.0,-0.1,0.99,1.65,2.01,0.73,927.36,31.0
5725376,-0.02,-0.09,0.99,1.46,2.2,0.49,927.38,31.02
5725414,-0.02,-0.09,0.99,1.53,1.46,0.61,927.34,31.01
5725452,-0.02,-0.09,0.98,1.4,2.01,0.37,927.36,31.0
5725491,-0.02,-0.09,0.98,1.46,2.62,0.24,927.38,31.01
5725529,-0.03,-0.1,0.96,1.46,2.99,0.43,927.37,31.0
5725567,-0.02,-0.09,0.99,1.59,2.01,0.37,927.35,31.01
5725605,-0.03,-0.09,0.96,1.34,2.75,0.12,927.35,31.0
5725643,-0.04,-0.09,0.99,1.46,2.93,0.24,927.35,31.03
5725693,-0.02,-0.1,1.0,1.71,3.23,0.37,927.33,31.0
5725731,-0.03,-0.09,1.0,1.65,2.87,0.18,927.32,31.01
5725769,-0.03,-0.09,1.01,1.71,3.42,0.37,927.39,31.03
5725807,-0.02,-0.1,0.99,1.65,3.72,0.43,927.4,31.01
5725845,-0.02,-0.09,0.98,1.59,3.78,0.24,927.36,31.02
5725883,-0.03,-0.1,0.97,1.4,4.21,0.24,927.36,31.01
5725922,-0.01,-0.09,0.96,1.16,3.42,0.18,927.35,31.01
5725960,-0.02,-0.09,0.94,1.04,4.52,0.0,927.39,31.01
5725998,-0.01,-0.09,0.92,0.92,4.15,0.06,927.32,31.01
5726048,-0.02,-0.1,0.94,0.85,4.52,0.18,927.36,31.01
5726086,-0.01,-0.1,0.93,0.49,4.03,0.06,927.35,31.0
5726124,-0.01,-0.09,1.01,0.85,4.82,0.06,927.3,31.01
5726162,-0.01,-0.11,0.92,0.67,5.31,-0.12,927.32,31.02
5726200,-0.03,-0.09,1.0,0.98,4.46,-0.18,927.38,31.02
5726238,-0.01,-0.1,0.95,0.92,5.86,-0.18,927.38,31.01
5726276,0.01,-0.09,0.97,0.92,4.33,-0.24,927.33,31.0
5726314,-0.03,-0.08,0.98,1.28,4.94,-0.43,927.38,31.01
5726353,0.0,-0.1,0.95,0.98,4.33,-0.49,927.37,31.01
5726391,0.01,-0.09,1.01,0.92,3.97,-0.73,927.35,31.02
5726466,-0.02,-0.09,1.01,1.04,2.99,-0.67,927.33,31.0
5726505,-0.01,-0.1,1.0,0.85,3.54,-0.73,927.33,31.01
5726543,-0.02,-0.08,1.06,0.49,2.32,-0.79,927.4,31.0
5726632,-0.0,-0.09,1.15,0.37,0.67,-0.73,927.38,30.97
5726670,-0.03,-0.09,1.14,0.43,1.46,-0.85,927.37,30.98
5726709,-0.04,-0.09,1.11,0.12,1.28,-0.67,927.35,30.99
5726747,-0.02,-0.08,1.21,0.43,1.1,-0.92,927.33,31.0
5726785,-0.01,-0.1,1.16,0.43,2.14,-0.98,927.42,31.0
5726823,-0.04,-0.08,1.18,0.31,1.22,-0.67,927.45,30.99
5726873,-0.03,-0.09,1.14,0.85,2.14,-0.85,927.41,30.99
5726911,-0.04,-0.08,1.18,1.1,1.34,-0.98,927.37,30.98
5726949,-0.02,-0.09,1.15,1.4,2.44,-0.85,927.37,30.99
5726987,-0.02,-0.09,1.13,1.77,1.95,-1.1,927.41,31.0
5727026,-0.03,-0.08,1.16,2.2,1.4,-0.85,927.38,31.0
5727064,-0.03,-0.09,1.07,2.38,1.34,-0.85,927.38,31.0
5727102,-0.03,-0.08,1.09,2.44,0.79,-0.98,927.38,31.01
5727140,-0.03,-0.09,1.07,2.5,1.4,-0.98,927.33,31.0
5727178,-0.03,-0.09,1.08,2.87,0.55,-0.92,927.4,31.0
5727216,-0.03,-0.08,1.03,2.87,1.89,-0.73,927.38,31.01
5727266,-0.02,-0.08,1.02,2.99,2.26,-0.85,927.38,31.01
5727304,-0.04,-0.08,0.95,3.23,1.77,-0.92,927.38,31.01
5727342,-0.05,-0.08,0.96,3.23,1.04,-0.92,927.39,31.01
5727380,-0.02,-0.09,0.96,3.3,3.66,-1.1,927.35,31.02
5727418,-0.04,-0.09,0.94,3.54,2.99,-0.92,927.37,31.02
5727456,-0.05,-0.08,0.97,3.6,2.81,-0.73,927.35,31.02
5727495,-0.03,-0.09,0.95,3.6,3.23,-0.85,927.37,31.0
5727533,-0.04,-0.09,0.93,3.66,3.66,-0.85,927.37,31.02
5727571,-0.05,-0.09,0.94,3.97,4.33,-0.79,927.34,31.0
5727621,-0.03,-0.09,0.89,3.85,4.27,-0.92,927.3,31.01
5727659,-0.05,-0.08,0.86,3.72,5.37,-0.61,927.33,31.01
5727697,-0.05,-0.1,0.83,3.97,4.39,-0.79,927.32,31.01
5727735,-0.04,-0.09,0.81,3.66,4.52,-0.73,927.33,31.01
5727773,-0.03,-0.1,0.79,3.85,4.82,-0.67,927.29,31.02
5727811,-0.03,-0.09,0.79,3.48,4.88,-0.73,927.3,31.01
5727849,-0.04,-0.09,0.8,3.11,3.36,-0.61,927.31,31.02
5727887,-0.04,-0.09,0.84,2.69,3.17,-0.49,927.31,31.01
5727926,-0.03,-0.1,0.84,2.44,3.36,-0.37,927.3,31.01
5727964,-0.04,-0.1,0.84,2.32,3.54,-0.37,927.26,31.01
5728014,-0.04,-0.08,0.79,2.2,3.85,-0.37,927.3,31.01
5728052,-0.04,-0.09,0.79,2.5,3.91,-0.49,927.27,31.01
5728090,-0.06,-0.09,0.75,2.26,4.52,-0.43,927.27,31.01
5728128,-0.03,-0.09,0.82,2.08,4.82,-0.24,927.29,31.02
5728166,-0.02,-0.11,0.79,1.77,6.59,-0.49,927.33,31.02
5728204,-0.05,-0.08,0.84,1.59,5.86,-0.37,927.28,31.01
5728243,-0.04,-0.09,0.87,1.89,5.68,-0.37,927.34,31.03
5728281,-0.04,-0.1,0.89,1.89,4.64,-0.37,927.33,31.02
5728319,-0.04,-0.09,0.9,2.08,5.43,-0.31,927.3,31.01
5728369,-0.05,-0.09,0.92,2.14,4.09,-0.24,927.34,31.01
5728407,-0.05,-0.08,0.92,2.2,5.13,-0.24,927.26,31.01
5728445,-0.05,-0.09,0.97,2.26,3.6,-0.18,927.31,31.03
5728483,-0.03,-0.1,0.98,2.01,5.19,-0.06,927.34,31.01
5728521,-0.04,-0.08,0.98,2.2,4.39,-0.06,927.32,31.03
5728559,-0.05,-0.08,0.98,2.38,4.39,0.12,927.36,31.02
5728597,-0.04,-0.09,0.94,2.14,3.17,0.18,927.32,31.02
5728636,-0.06,-0.09,0.91,2.14,3.66,0.31,927.32,31.03
5728674,-0.04,-0.1,0.86,2.2,3.3,0.37,927.37,31.03
5728712,-0.04,-0.08,0.87,2.01,2.38,0.12,927.31,31.02
5728762,-0.04,-0.08,0.86,2.2,2.69,0.31,927.34,31.01
5728800,-0.03,-0.09,0.89,2.32,2.75,0.31,927.34,31.02
5728838,-0.05,-0.1,0.89,2.56,2.26,0.43,927.34,31.01
5728876,-0.04,-0.09,0.92,2.32,3.17,0.55,927.35,31.02
5728914,-0.03,-0.1,0.96,2.14,3.72,0.55,927.39,31.03
5728952,-0.03,-0.09,0.96,2.01,3.54,0.73,927.37,31.03
5728990,-0.04,-0.09,1.0,2.01,3.42,0.73,927.35,31.02
5729028,-0.03,-0.09,0.98,2.08,4.09,0.67,927.38,31.01
5729067,-0.04,-0.09,1.0,2.32,3.05,0.73,927.38,31.02
5729105,-0.03,-0.09,0.99,2.5,2.93,0.55,927.36,31.01
5729154,-0.01,-0.09,1.02,2.32,2.93,0.55,927.41,31.01
5729192,-0.02,-0.09,1.0,2.38,3.36,0.61,927.37,31.02
5729231,-0.01,-0.09,1.04,2.32,2.5,0.49,927.38,31.02
5729269,-0.03,-0.1,1.01,2.44,2.62,0.55,927.42,31.01
5729307,-0.02,-0.09,1.03,2.26,1.65,0.55,927.36,31.02
5729345,-0.02,-0.1,0.99,2.2,2.32,0.49,927.42,31.03
5729383,-0.01,-0.1,0.98,2.08,1.89,0.24,927.38,31.01
5729421,-0.02,-0.09,1.01,2.14,1.53,0.24,927.45,31.03
5729459,-0.01,-0.09,0.97,1.95,1.53,0.12,927.45,31.02
5729535,-0.02,-0.09,1.0,2.14,2.14,-0.06,927.42,31.0
5729573,-0.04,-0.1,0.95,2.26,2.01,0.0,927.39,31.0
5729611,-0.02,-0.09,0.96,2.14,2.32,-0.06,927.39,31.01
5729700,-0.04,-0.09,0.92,2.26,2.93,-0.06,927.45,30.98
5729739,-0.03,-0.09,0.95,2.14,2.87,-0.24,927.44,30.99
5729777,-0.03,-0.1,0.93,2.5,3.78,-0.49,927.46,31.0
5729815,-0.04,-0.1,0.96,2.5,3.11,-0.31,927.5,31.01
5729853,-0.02,-0.09,1.04,2.62,3.54,-0.31,927.41,31.01
5729891,-0.03,-0.1,0.98,2.44,3.66,-0.43,927.44,31.0
5729929,-0.06,-0.08,1.01,2.69,3.3,-0.37,927.41,31.01
5729979,-0.03,-0.1,0.95,2.87,3.36,-0.24,927.48,31.0
5730017,-0.03,-0.1,0.94,2.5,3.11,-0.37,927.45,31.01
5730055,-0.03,-0.09,0.91,2.5,2.81,-0.37,927.45,31.01
5730093,-0.03,-0.09,0.88,2.56,2.56,-0.18,927.43,31.01
5730131,-0.03,-0.09,0.84,2.38,2.93,-0.31,927.48,31.01
5730170,-0.05,-0.09,0.82,2.5,2.93,-0.12,927.51,31.02
5730208,-0.02,-0.11,0.76,2.2,3.85,-0.24,927.45,31.02
5730246,-0.03,-0.09,0.73,2.08,3.23,-0.37,927.46,31.02
5730284,-0.05,-0.09,0.73,1.71,3.54,-0.24,927.44,31.03
5730334,-0.04,-0.11,0.7,1.28,3.91,-0.18,927.43,31.01
5730372,-0.07,-0.09,0.77,1.16,3.78,-0.31,927.49,31.01
5730410,-0.04,-0.1,0.8,1.34,4.39,-0.12,927.49,31.01
5730448,-0.04,-0.09,0.83,0.98,4.82,-0.31,927.45,31.01
5730486,-0.06,-0.09,0.88,0.92,4.82,-0.31,927.49,31.02
5730524,-0.08,-0.09,0.88,1.1,5.0,0.0,927.5,31.02
5730563,-0.07,-0.09,0.93,0.92,5.49,0.0,927.51,31.03
5730601,-0.06,-0.1,0.94,0.92,6.16,0.06,927.58,31.04
5730639,-0.06,-0.09,0.96,1.16,5.19,0.12,927.52,31.03
5730677,-0.07,-0.09,0.91,1.34,5.74,0.31,927.55,31.03
5730727,-0.05,-0.09,0.95,1.4,4.88,0.43,927.52,31.01
5730765,-0.06,-0.09,0.95,1.4,4.76,0.67,927.57,31.02
5730803,-0.06,-0.1,0.89,1.4,4.33,0.85,927.58,31.03
5730841,-0.06,-0.09,0.93,1.59,4.46,0.85,927.53,31.03
5730879,-0.05,-0.09,0.91,1.46,4.52,1.1,927.59,31.03
5730918,-0.05,-0.09,0.94,1.34,4.33,1.22,927.58,31.02
5730956,-0.05,-0.1,0.89,1.65,4.58,1.34,927.63,31.02
5730994,-0.06,-0.09,0.91,1.65,4.09,1.4,927.69,31.03
5731032,-0.06,-0.08,0.88,1.71,4.82,1.53,927.64,31.03
5731082,-0.05,-0.09,0.89,1.59,3.97,1.46,927.64,31.01
5731120,-0.05,-0.09,0.91,1.4,4.03,1.77,927.68,31.01
5731158,-0.02,-0.09,0.94,1.34,4.09,1.83,927.7,31.03
5731196,-0.05,-0.1,0.94,1.28,3.36,2.01,927.7,31.04
5731234,-0.06,-0.09,0.95,1.53,3.11,1.95,927.71,31.02
5731272,-0.05,-0.1,0.95,1.53,2.62,2.26,927.73,31.03
5731310,-0.04,-0.09,0.97,1.4,1.65,2.01,927.71,31.02
5731349,-0.04,-0.09,0.96,1.16,1.77,2.08,927.74,31.03
5731387,-0.02,-0.09,1.0,1.28,1.59,2.14,927.71,31.02
5731425,-0.03,-0.09,0.99,1.34,2.32,2.08,927.8,31.02
5731475,-0.05,-0.09,0.98,1.46,2.38,2.32,927.71,31.0
5731513,-0.05,-0.09,0.98,1.46,2.26,2.2,927.77,31.0
5731551,-0.03,-0.09,0.98,1.46,1.95,2.08,927.74,31.01
5731589,-0.02,-0.1,0.99,1.46,2.2,2.01,927.76,31.02
5731627,-0.03,-0.09,0.98,1.53,2.75,2.08,927.72,31.01
5731665,-0.02,-0.1,0.98,1.59,2.5,1.83,927.79,31.02
5731703,-0.02,-0.1,0.99,1.53,2.14,1.95,927.85,31.03
5731742,-0.04,-0.1,0.99,1.83,2.26,1.89,927.84,31.01
5731780,-0.03,-0.11,0.98,1.89,2.44,1.71,927.85,31.02
5731818,-0.0,-0.09,1.0,1.83,1.95,1.65,927.89,31.02
5731868,-0.01,-0.1,0.98,1.59,2.01,1.59,927.89,31.01
5731906,-0.02,-0.09,1.0,1.65,1.89,1.4,927.89,31.02
5731944,-0.04,-0.1,0.98,1.65,2.44,1.34,927.88,31.01
5731982,-0.02,-0.11,1.02,1.65,1.34,1.34,927.89,31.01
5732020,-0.01,-0.1,1.03,1.34,1.95,1.04,927.94,31.0
5732058,-0.03,-0.1,1.02,1.59,1.83,1.04,927.92,31.0
5732096,-0.02,-0.1,1.05,1.71,2.01,0.92,927.91,31.01
5732134,-0.01,-0.09,1.05,1.65,2.5,0.73,927.91,31.01
5732173,-0.04,-0.09,1.06,1.65,2.87,0.79,927.9,31.0
5732222,-0.03,-0.1,1.05,1.71,3.6,0.37,927.89,31.0
5732260,-0.03,-0.09,1.06,1.77,3.05,0.37,927.97,31.0
5732299,-0.04,-0.1,1.03,1.71,3.48,0.37,928.0,31.01
5732337,-0.03,-0.09,1.04,1.77,3.78,0.18,927.98,31.01
5732375,-0.02,-0.1,1.03,1.77,3.66,0.06,927.98,31.0
5732413,-0.03,-0.1,0.99,1.65,3.48,0.12,928.04,31.02
5732451,-0.05,-0.09,1.0,1.71,3.66,0.12,928.0,31.01
5732489,-0.04,-0.09,1.0,1.71,4.33,0.0,928.02,31.01
5732527,-0.03,-0.1,0.99,1.65,4.21,0.12,928.02,31.01
5732566,-0.04,-0.09,0.99,1.77,4.7,-0.24,928.08,31.02
5732643,-0.03,-0.09,0.94,1.46,5.0,-0.12,928.05,30.98
5732681,-0.02,-0.1,0.93,1.46,4.94,-0.06,928.03,31.0
5732719,-0.05,-0.1,0.92,1.59,5.0,-0.12,928.05,31.02
5732808,-0.03,-0.1,0.94,1.77,4.15,-0.24,928.07,30.97
5732847,-0.02,-0.08,0.98,1.71,4.15,-0.18,928.13,31.0
5732885,-0.03,-0.09,0.95,1.59,4.46,-0.18,928.14,31.0
5732923,-0.02,-0.1,0.92,1.77,4.64,-0.37,928.14,31.0
5732961,-0.04,-0.09,0.95,1.46,3.66,-0.43,928.11,31.0
5732999,-0.02,-0.09,0.94,1.59,3.97,-0.31,928.11,31.01
5733037,-0.03,-0.1,0.94,1.46,3.91,-0.31,928.18,31.01
5733087,-0.03,-0.09,0.96,0.92,3.48,-0.24,928.16,30.99
5733125,-0.04,-0.1,0.94,1.04,2.93,-0.18,928.18,31.01
5733163,-0.04,-0.1,0.97,0.79,2.56,-0.18,928.17,31.01
5733202,-0.02,-0.09,1.01,0.67,2.69,-0.31,928.19,31.02
5733240,-0.04,-0.09,1.0,0.43,2.99,-0.18,928.22,31.02
5733278,-0.03,-0.09,1.04,0.61,2.5,-0.37,928.19,31.02
5733316,-0.04,-0.1,1.06,0.61,2.32,-0.12,928.23,31.02
5733354,-0.02,-0.08,1.08,0.31,2.32,-0.12,928.27,31.02
5733392,-0.03,-0.09,1.09,0.55,2.62,-0.18,928.22,31.01
5733442,-0.04,-0.09,1.15,0.73,2.32,-0.12,928.27,31.0
5733480,-0.03,-0.1,1.15,0.37,2.44,-0.18,928.24,31.02
5733518,-0.03,-0.09,1.16,0.67,2.75,-0.31,928.25,31.02
5733556,-0.04,-0.09,1.14,0.67,3.17,-0.31,928.33,31.03
5733594,-0.04,-0.08,1.18,0.79,2.56,-0.43,928.25,31.02
5733633,-0.03,-0.09,1.18,1.04,3.66,-0.31,928.32,31.02
5733671,-0.06,-0.09,1.16,0.85,3.42,-0.37,928.31,31.02
5733709,-0.05,-0.08,1.22,1.28,5.13,-0.31,928.34,31.02
5733747,-0.04,-0.09,1.18,1.53,5.43,-0.37,928.33,31.03
5733785,-0.04,-0.08,1.24,1.53,4.76,-0.24,928.31,31.03
5733835,-0.04,-0.09,1.14,1.65,6.1,-0.37,928.36,31.01
5733873,-0.04,-0.08,1.16,1.71,6.16,-0.43,928.31,31.02
5733911,-0.03,-0.08,1.07,1.77,6.35,-0.37,928.43,31.03
5733949,-0.05,-0.09,1.02,1.77,5.62,-0.24,928.4,31.02
5733988,-0.04,-0.09,0.98,1.95,5.68,-0.24,928.42,31.02
5734026,-0.01,-0.1,0.97,2.08,4.64,-0.37,928.38,31.03
5734064,-0.02,-0.09,0.95,2.08,3.78,-0.24,928.41,31.03
5734102,-0.04,-0.09,0.92,1.83,2.75,-0.06,928.3,31.02
5734140,-0.03,-0.09,0.98,1.65,1.34,-0.06,928.34,31.02
5734190,-0.04,-0.1,0.99,1.22,1.1,-0.06,928.39,31.02
5734228,-0.05,-0.09,1.06,1.16,0.85,0.18,928.36,31.02
5734266,-0.03,-0.09,1.09,1.16,2.01,0.0,928.39,31.02
5734304,-0.03,-0.08,1.11,0.98,2.81,-0.12,928.45,31.04
5734342,-0.04,-0.07,1.19,1.34,2.26,-0.12,928.38,31.02
5734380,-0.06,-0.11,1.17,1.71,3.91,0.06,928.41,31.02
5734419,-0.02,-0.11,1.17,1.71,4.21,-0.06,928.49,31.03
5734457,-0.04,-0.07,1.22,2.01,3.11,0.0,928.4,31.03
5734495,-0.03,-0.1,1.14,2.08,4.64,0.0,928.4,31.03
5734533,-0.02,-0.09,1.15,2.01,2.44,-0.06,928.42,31.04
5734583,-0.03,-0.1,1.14,2.44,2.69,0.0,928.47,31.02
5734621,-0.01,-0.1,1.15,2.44,1.65,-0.18,928.46,31.03
5734659,-0.03,-0.09,1.14,2.26,2.69,-0.24,928.52,31.03
5734697,-0.01,-0.1,1.1,1.71,1.4,-0.06,928.4,31.04
5734735,-0.06,-0.09,1.17,1.77,-0.43,-0.12,928.42,31.03
5734773,-0.05,-0.1,1.12,1.4,1.1,-0.24,928.44,31.03
5734811,-0.02,-0.07,1.29,1.53,0.98,-0.24,928.41,31.03
5734849,-0.05,-0.09,1.27,1.46,2.99,-0.24,928.39,31.03
5734888,-0.06,-0.08,1.35,1.59,1.28,-0.31,928.41,31.04
5734937,-0.09,-0.09,1.34,2.44,4.52,-0.24,928.46,31.03
5734975,-0.06,-0.07,1.38,2.2,2.81,-0.37,928.44,31.02
5735014,-0.03,-0.05,1.42,2.08,3.97,-0.06,928.34,31.02
5735052,-0.05,-0.1,1.35,2.38,4.64,-0.06,928.38,31.03
5735090,-0.03,-0.12,1.33,2.56,5.92,-0.12,928.4,31.03
5735128,-0.01,-0.1,1.3,2.5,3.42,0.37,928.43,31.03
5735166,-0.07,-0.09,1.2,2.87,3.78,0.37,928.45,31.03
5735204,-0.06,-0.08,1.09,2.44,4.33,0.24,928.39,31.05
5735242,-0.05,-0.06,1.14,3.17,4.03,0.31,928.4,31.04
5735280,-0.05,-0.11,0.93,3.11,5.92,0.49,928.4,31.03
5735330,-0.07,-0.11,0.94,3.17,5.92,0.49,928.35,31.02
5735368,-0.05,-0.11,0.82,3.3,6.23,0.61,928.37,31.03
5735406,-0.04,-0.07,0.68,2.08,5.13,0.79,928.39,31.03
5735444,-0.09,-0.06,0.59,2.14,4.21,1.4,928.33,31.03
5735483,-0.09,-0.1,0.45,1.65,2.93,1.4,928.33,31.03
5735521,-0.05,-0.1,0.45,1.34,2.01,1.16,928.38,31.03
5735559,-0.06,-0.08,0.42,0.79,2.26,1.46,928.33,31.03
5735597,-0.05,-0.07,0.4,0.31,2.2,1.95,928.31,31.03
5735635,-0.05,-0.08,0.48,0.06,2.32,1.95,928.36,31.03
5735711,-0.05,-0.1,0.5,-0.55,1.28,2.5,928.4,31.0
5735749,-0.08,-0.07,0.6,-0.73,0.61,2.2,928.34,31.02
5735787,-0.03,-0.09,0.59,-0.85,1.22,2.44,928.39,31.03
5735876,-0.05,-0.1,0.76,-0.31,0.0,2.81,928.41,30.99
5735914,-0.05,-0.09,0.86,0.0,-0.31,2.93,928.39,31.01
5735952,-0.08,-0.1,0.88,0.55,1.4,2.81,928.51,31.0
5735991,-0.05,-0.1,0.87,0.55,0.98,2.5,928.47,31.01
5736029,-0.03,-0.09,0.87,0.73,3.48,2.44,928.45,31.01
5736067,-0.02,-0.08,0.85,0.79,4.46,2.14,928.47,31.03
5736105,-0.04,-0.08,0.92,1.34,5.13,2.26,928.52,31.02
5736155,-0.03,-0.09,0.97,1.46,5.98,2.26,928.47,31.01
5736193,-0.04,-0.1,1.06,1.28,6.77,1.95,928.49,31.01
5736231,0.0,-0.1,1.07,1.34,6.59,1.65,928.51,31.01
5736269,-0.02,-0.07,1.14,1.71,5.37,1.53,928.55,31.02
5736307,-0.03,-0.09,1.04,1.59,6.77,1.65,928.54,31.03
5736345,0.0,-0.07,1.18,1.77,5.31,1.71,928.56,31.03
5736384,0.01,-0.09,1.16,1.83,4.94,1.53,928.56,31.02
5736422,-0.04,-0.08,1.18,2.14,2.87,1.4,928.53,31.01
5736460,-0.03,-0.1,1.16,2.38,2.62,1.28,928.56,31.03
5736498,0.01,-0.09,1.18,1.95,0.79,1.04,928.54,31.04
5736548,0.0,-0.09,1.15,1.95,1.65,1.04,928.6,31.01
5736586,-0.01,-0.08,1.18,2.14,0.98,0.79,928.59,31.03
5736624,-0.02,-0.09,1.14,2.2,0.18,0.85,928.6,31.03
5736662,-0.01,-0.09,1.17,2.08,-0.24,0.49,928.6,31.03
5736700,0.01,-0.08,1.21,1.95,-1.16,0.37,928.6,31.03
5736738,0.03,-0.06,1.16,1.83,-1.89,0.18,928.62,31.05
5736776,0.0,-0.08,1.26,1.59,-2.08,0.06,928.57,31.03
5736815,-0.03,-0.1,1.15,1.65,-2.5,-0.12,928.6,31.04
5736853,-0.03,-0.08,1.22,1.34,-2.99,0.0,928.62,31.03
5736902,0.03,-0.07,1.27,1.53,-3.54,-0.37,928.64,31.02
5736941,-0.02,-0.07,1.22,1.1,-5.0,-0.49,928.57,31.03
5736979,0.01,-0.07,1.27,1.16,-4.94,-0.31,928.61,31.02
5737017,-0.0,-0.11,1.26,1.46,-4.88,-0.55,928.55,31.03
5737055,-0.02,-0.09,1.25,1.16,-6.04,-0.79,928.57,31.02
5737093,-0.05,-0.06,1.31,0.92,-6.59,-0.92,928.5,31.01
5737131,-0.02,-0.08,1.26,0.24,-3.48,-1.04,928.52,31.02
5737169,-0.04,-0.06,1.31,0.61,-4.09,-1.22,928.53,31.03
5737208,-0.06,-0.07,1.3,0.85,-3.66,-1.4,928.58,31.03
5737246,-0.04,-0.07,1.25,0.79,-3.6,-1.53,928.51,31.03
5737295,-0.08,-0.06,1.24,1.34,-2.01,-1.34,928.5,31.02
5737334,-0.09,-0.07,1.18,1.22,-2.44,-1.1,928.46,31.01
5737372,-0.11,-0.07,1.18,1.71,-0.98,-1.04,928.51,31.03
5737410,-0.03,-0.09,1.18,2.2,0.0,-1.04,928.56,31.03
5737448,-0.04,-0.07,1.13,2.08,0.24,-0.79,928.54,31.03
5737486,-0.07,-0.07,1.08,2.62,1.4,-0.31,928.5,31.03
5737524,-0.09,-0.08,1.03,3.05,0.92,-0.18,928.51,31.03
5737562,-0.09,-0.05,1.14,3.17,0.24,0.0,928.48,31.02
5737600,-0.07,-0.08,1.05,2.44,2.69,0.12,928.47,31.04
5737650,-0.09,-0.05,1.14,2.01,0.49,0.31,928.41,31.02
5737688,-0.05,-0.1,1.0,1.95,3.54,0.55,928.45,31.01
5737726,-0.05,-0.07,0.97,1.59,1.59,0.85,928.45,31.03
5737764,-0.1,-0.07,0.94,2.26,4.39,1.4,928.48,31.03
5737803,-0.1,-0.08,0.87,2.38,2.99,1.4,928.37,31.03
5737841,-0.1,-0.06,1.04,2.44,6.65,1.22,928.42,31.03
5737879,-0.06,-0.09,0.92,2.2,10.5,1.77,928.34,31.04
5737917,-0.06,-0.06,1.12,1.71,9.46,2.2,928.36,31.02
5737955,-0.1,-0.08,1.03,2.08,15.01,2.26,928.27,31.04
5737993,-0.08,-0.07,1.11,2.62,14.65,2.44,928.28,31.03
5738043,-0.05,-0.07,1.02,3.23,15.5,2.99,928.39,31.01
5738081,-0.07,-0.06,0.98,3.72,13.85,3.17,928.35,31.03
5738119,-0.06,-0.07,0.99,3.91,13.55,3.42,928.38,31.04
5738157,-0.02,-0.09,1.02,4.09,12.7,3.36,928.36,31.04
5738195,-0.03,-0.09,1.09,3.97,10.93,3.85,928.34,31.03
5738234,-0.05,-0.09,0.93,3.72,9.28,4.03,928.37,31.04
5738272,-0.07,-0.06,0.99,3.72,8.24,4.21,928.26,31.03
5738310,-0.04,-0.11,0.94,3.54,9.83,4.52,928.34,31.03
5738348,-0.02,-0.08,1.01,3.42,7.02,4.27,928.33,31.05
5738398,-0.08,-0.09,0.97,3.48,8.48,4.27,928.34,31.04
5738436,-0.03,-0.1,1.0,3.17,8.97,4.52,928.32,31.03
5738474,-0.05,-0.08,1.03,3.17,8.97,4.64,928.36,31.02
5738512,-0.08,-0.09,0.98,3.54,7.63,4.76,928.32,31.04
5738550,-0.07,-0.09,0.97,3.6,6.65,4.82,928.36,31.03
5738589,-0.04,-0.09,0.92,3.6,8.24,4.76,928.36,31.04
5738627,-0.01,-0.09,0.94,3.72,7.57,4.52,928.27,31.02
5738665,-0.04,-0.09,0.95,3.6,7.32,4.82,928.28,31.03
5738703,-0.05,-0.1,0.88,3.78,8.85,4.58,928.31,31.05
5738741,-0.05,-0.09,0.96,3.6,8.97,4.58,928.3,31.04
5738817,-0.03,-0.09,0.95,3.54,8.42,4.33,928.29,31.01
5738856,-0.01,-0.11,0.94,3.72,8.42,4.39,928.35,31.03
5738894,-0.03,-0.11,0.89,3.78,7.14,4.21,928.32,31.02
5738984,-0.03,-0.1,0.84,3.3,5.25,4.39,928.29,31.0
5739023,-0.02,-0.1,0.81,3.23,4.7,4.03,928.33,31.01
5739061,-0.04,-0.12,0.77,3.05,4.15,3.91,928.3,31.01
5739099,-0.03,-0.12,0.71,2.75,4.21,3.91,928.26,31.01
5739137,-0.0,-0.09,0.64,2.08,3.78,3.85,928.26,31.02
5739175,-0.01,-0.09,0.66,2.2,1.95,3.91,928.27,31.02
5739213,-0.04,-0.11,0.53,1.71,2.14,3.72,928.29,31.03
5739263,-0.05,-0.09,0.71,1.1,-1.04,3.42,928.24,31.01
5739301,-0.04,-0.11,0.66,0.31,-0.37,3.72,928.25,31.03
5739339,-0.01,-0.1,0.82,0.18,-1.53,3.72,928.22,31.02
5739378,-0.01,-0.11,0.87,0.31,0.18,3.54,928.27,31.03
5739416,-0.01,-0.11,0.84,0.06,0.24,3.36,928.25,31.02
5739454,-0.04,-0.09,0.96,0.12,0.31,3.36,928.25,31.02
5739492,-0.02,-0.1,0.96,0.12,-0.24,3.36,928.26,31.03
5739530,-0.01,-0.1,0.98,-0.18,0.92,2.93,928.29,31.03
5739568,-0.03,-0.08,1.05,0.37,-0.61,2.93,928.25,31.03
5739618,-0.0,-0.1,1.06,0.85,0.24,2.75,928.31,31.03
5739656,-0.02,-0.09,1.09,1.16,0.67,2.69,928.27,31.02
5739694,-0.01,-0.08,1.07,1.77,0.73,2.44,928.27,31.04
5739733,-0.01,-0.1,1.08,2.44,2.75,2.26,928.21,31.03
5739771,-0.0,-0.1,1.02,2.75,2.93,1.77,928.28,31.04
5739809,-0.0,-0.09,1.02,3.23,2.75,1.59,928.28,31.03
5739847,0.01,-0.11,0.89,2.93,2.14,1.65,928.29,31.04
5739885,0.01,-0.1,0.9,3.11,2.14,1.4,928.3,31.04
5739923,-0.02,-0.11,0.86,3.3,2.75,1.22,928.29,31.05
5739961,-0.02,-0.11,0.88,3.11,2.38,1.1,928.29,31.04
5740011,0.01,-0.09,0.85,2.99,1.22,0.98,928.35,31.03
5740049,-0.06,-0.1,0.67,3.11,0.79,0.85,928.23,31.03
5740087,-0.04,-0.1,0.73,3.54,1.04,0.79,928.28,31.03
5740126,-0.01,-0.11,0.55,3.23,1.71,0.37,928.32,31.03
5740164,-0.05,-0.07,0.54,3.05,1.04,0.37,928.3,31.04
5740202,0.0,-0.1,0.49,3.23,4.82,0.43,928.25,31.03
5740240,0.01,-0.1,0.56,2.01,4.21,0.18,928.33,31.03
5740278,-0.06,-0.1,0.64,2.56,4.46,0.37,928.3,31.04
5740316,-0.02,-0.12,0.65,1.77,4.09,0.24,928.23,31.04
5740366,-0.01,-0.08,0.75,1.53,4.64,-0.18,928.36,31.02
5740404,-0.0,-0.1,0.75,1.65,4.76,-0.12,928.26,31.03
5740442,-0.03,-0.12,0.75,1.59,4.94,-0.18,928.27,31.04
5740480,-0.05,-0.09,0.77,1.59,3.97,-0.12,928.26,31.04
5740519,0.01,-0.1,0.83,1.34,6.23,-0.24,928.27,31.04
5740557,-0.04,-0.09,0.86,1.53,4.46,-0.24,928.3,31.05
5740595,-0.06,-0.09,0.9,2.14,4.46,-0.31,928.32,31.03
5740633,-0.02,-0.11,0.89,1.65,5.31,-0.55,928.32,31.05
5740671,-0.02,-0.09,0.95,1.59,5.0,-0.49,928.31,31.04
5740709,-0.04,-0.09,0.96,1.77,4.27,-0.43,928.37,31.04
5740759,-0.06,-0.09,0.92,2.01,5.49,-0.49,928.38,31.03
5740797,-0.06,-0.09,1.02,2.38,5.0,-0.43,928.31,31.03
5740835,-0.03,-0.11,1.02,2.08,6.96,-0.43,928.3,31.03
5740873,-0.04,-0.09,1.08,2.44,5.74,-0.55,928.37,31.03
5740911,-0.06,-0.09,1.13,2.32,6.41,-0.49,928.38,31.03
5740950,-0.05,-0.11,1.19,2.81,7.81,-0.49,928.39,31.05
5740988,-0.05,-0.1,1.2,2.81,7.69,-0.43,928.4,31.05
5741026,-0.06,-0.08,1.26,3.23,7.87,-0.18,928.35,31.03
5741064,-0.04,-0.1,1.22,3.54,9.09,-0.31,928.39,31.05
5741114,-0.08,-0.09,1.2,3.3,5.92,-0.12,928.39,31.03
5741152,-0.07,-0.09,1.17,3.85,6.53,-0.12,928.37,31.03
5741190,-0.07,-0.1,1.08,4.03,7.08,0.12,928.41,31.04
5741228,-0.07,-0.08,1.06,3.78,5.31,0.18,928.45,31.05
5741266,-0.11,-0.08,0.9,3.85,4.39,0.61,928.44,31.05
5741304,-0.12,-0.08,0.84,3.72,5.0,1.04,928.41,31.05
5741343,-0.07,-0.1,0.8,3.3,5.13,0.98,928.37,31.04
5741381,-0.12,-0.07,0.74,3.17,3.78,1.04,928.44,31.04
5741419,-0.14,-0.08,0.81,3.36,2.93,2.08,928.45,31.05
5741457,-0.1,-0.1,0.83,3.48,4.58,2.56,928.37,31.05
5741507,-0.09,-0.08,0.87,3.23,3.11,2.56,928.41,31.03
5741545,-0.11,-0.1,0.74,3.3,5.25,3.05,928.41,31.03
5741583,-0.12,-0.07,0.74,2.99,3.78,3.42,928.38,31.05
5741621,-0.06,-0.08,0.78,3.17,3.42,3.6,928.46,31.05
5741659,-0.06,-0.1,0.79,3.48,3.97,3.91,928.45,31.05
5741697,-0.1,-0.07,0.77,3.11,1.89,4.15,928.5,31.05
5741735,-0.09,-0.08,0.76,3.54,2.56,4.33,928.46,31.05
5741774,-0.07,-0.1,0.74,3.3,2.08,4.64,928.47,31.05
5741812,-0.08,-0.09,0.77,3.48,0.55,4.76,928.46,31.05
5741850,-0.09,-0.09,0.79,4.09,1.71,5.0,928.45,31.04
5741925,-0.08,-0.08,0.86,4.15,1.89,5.13,928.56,31.02
5741964,-0.08,-0.1,0.79,4.03,4.27,5.25,928.53,31.02
5742002,-0.07,-0.1,0.86,3.78,4.09,5.37,928.51,31.03
5742091,-0.04,-0.07,0.93,3.54,5.55,4.76,928.56,31.0
5742129,-0.08,-0.1,0.95,3.42,9.52,4.88,928.58,31.01
5742167,-0.01,-0.11,1.0,3.23,9.58,4.64,928.6,31.02
5742205,-0.01,-0.11,1.0,3.11,10.5,4.64,928.63,31.02
5742244,-0.02,-0.11,0.92,2.26,10.07,4.52,928.65,31.02
5742282,-0.06,-0.09,1.07,2.87,8.36,4.46,928.62,31.04
5742331,-0.03,-0.12,0.98,2.93,7.75,4.39,928.68,31.03
5742370,-0.04,-0.09,1.05,2.69,7.81,4.33,928.72,31.04
5742408,-0.04,-0.11,0.95,2.99,9.52,4.27,928.71,31.03
5742446,-0.04,-0.09,1.01,2.81,6.84,4.21,928.76,31.04
5742484,-0.03,-0.1,0.97,2.81,7.93,4.39,928.74,31.04
5742522,-0.05,-0.11,0.92,2.62,6.53,4.27,928.77,31.04
5742560,-0.03,-0.08,0.98,2.26,6.96,4.15,928.78,31.05
5742598,-0.02,-0.1,0.96,2.26,5.25,4.27,928.72,31.03
5742637,-0.03,-0.1,0.95,1.65,6.1,4.15,928.76,31.05
5742675,-0.03,-0.1,0.94,1.83,6.53,4.03,928.8,31.04
5742725,-0.02,-0.1,0.96,1.59,5.68,3.85,928.81,31.03
5742763,-0.05,-0.1,0.95,1.53,4.94,3.78,928.85,31.05
5742801,-0.01,-0.11,0.96,1.04,3.85,3.78,928.8,31.04
5742839,-0.0,-0.1,0.99,1.04,5.43,3.54,928.91,31.06
5742877,-0.0,-0.11,0.97,1.04,5.0,3.36,928.84,31.05
5742915,-0.03,-0.09,1.01,0.98,4.03,3.36,928.89,31.05
5742953,-0.02,-0.11,1.01,0.92,4.27,3.23,928.91,31.06
5742991,-0.01,-0.09,1.05,0.92,3.97,2.99,928.9,31.04
5743030,-0.02,-0.11,1.02,1.04,3.6,2.93,928.97,31.05
5743068,-0.01,-0.1,1.05,0.79,2.44,2.62,928.99,31.05
5743117,-0.01,-0.1,1.08,1.16,2.81,2.62,928.94,31.04
5743156,-0.01,-0.1,1.08,1.34,2.2,2.5,928.99,31.05
5743194,-0.02,-0.1,1.09,1.65,3.11,2.01,929.0,31.04
5743232,-0.01,-0.1,1.11,1.65,3.11,1.59,928.98,31.04
5743270,-0.01,-0.11,1.12,1.46,3.42,1.77,929.02,31.04
5743308,0.01,-0.1,1.13,1.46,3.3,1.59,929.02,31.05
5743346,-0.0,-0.1,1.15,1.46,3.23,1.34,929.05,31.05
5743384,-0.01,-0.1,1.08,1.53,2.87,1.1,928.98,31.05
5743423,-0.03,-0.1,1.11,1.65,3.17,1.16,929.07,31.05
5743472,-0.01,-0.11,1.05,2.01,3.05,0.92,929.0,31.03
5743511,-0.03,-0.1,1.02,2.14,2.93,0.85,929.1,31.04
5743549,-0.0,-0.11,0.97,2.56,3.72,0.49,929.11,31.05
5743587,-0.01,-0.11,0.95,2.56,3.42,0.37,929.04,31.05
5743625,-0.01,-0.1,0.91,2.38,2.69,0.0,929.08,31.05
5743663,-0.0,-0.09,1.02,2.5,2.62,0.12,929.07,31.06
5743701,-0.01,-0.11,1.06,2.5,3.23,-0.24,929.05,31.05
5743739,-0.01,-0.11,1.1,2.14,2.56,-0.31,929.13,31.05
5743778,-0.01,-0.1,1.14,2.2,3.91,-0.61,929.11,31.05
5743816,-0.02,-0.11,1.09,2.26,4.21,-0.61,929.09,31.04
5743865,-0.02,-0.11,1.07,2.56,5.07,-0.79,929.15,31.04
5743904,-0.03,-0.12,0.95,2.56,5.8,-1.04,929.11,31.05
5743942,-0.01,-0.1,1.02,2.14,5.19,-1.04,929.15,31.05
5743980,-0.0,-0.12,0.96,2.38,6.84,-1.16,929.14,31.05
5744018,-0.01,-0.12,1.01,2.26,6.47,-1.53,929.18,31.04
5744056,-0.04,-0.1,1.0,1.95,6.96,-1.59,929.16,31.05
5744094,-0.01,-0.1,1.15,2.14,8.67,-1.77,929.15,31.05
5744132,0.01,-0.12,1.07,1.22,9.4,-1.95,929.24,31.03
5744171,-0.01,-0.08,1.27,1.89,7.69,-1.89,929.27,31.06
5744221,-0.03,-0.16,1.03,1.65,8.48,-2.08,929.21,31.04
5744259,-0.06,-0.05,1.2,1.1,4.88,-2.01,929.26,31.05
5744297,-0.05,-0.1,1.01,1.28,9.52,-2.14,929.23,31.04
5744335,-0.04,-0.12,1.05,1.1,4.76,-1.95,929.22,31.05
5744373,-0.03,-0.09,1.21,1.1,3.97,-2.14,929.2,31.03
5744411,-0.08,-0.12,1.16,1.22,5.07,-1.89,929.25,31.05
5744449,-0.04,-0.1,1.23,0.37,5.86,-1.89,929.27,31.06
5744488,-0.07,-0.08,1.25,0.55,4.33,-1.95,929.31,31.06
5744526,-0.02,-0.09,1.3,-0.31,2.2,-1.65,929.3,31.06
5744564,-0.06,-0.12,1.28,-0.06,2.99,-1.53,929.26,31.05
5744614,-0.08,-0.1,1.18,-0.49,1.1,-1.65,929.23,31.04
5744652,-0.06,-0.08,1.28,-0.43,1.1,-1.53,929.32,31.05
5744690,-0.03,-0.12,1.16,-0.73,1.59,-1.59,929.27,31.03
5744728,-0.05,-0.09,1.23,-1.34,0.24,-1.46,929.27,31.04
5744766,-0.08,-0.12,1.14,-1.59,2.75,-1.46,929.25,31.05
5744804,-0.07,-0.1,1.19,-1.71,0.43,-1.59,929.29,31.05
5744843,-0.07,-0.08,1.19,-1.22,1.22,-1.46,929.29,31.04
5744881,-0.04,-0.11,1.15,-1.16,2.75,-1.4,929.32,31.06
5744919,-0.09,-0.11,1.18,-0.73,4.58,-1.34,929.28,31.05
5744995,-0.07,-0.08,1.19,-0.49,4.09,-1.4,929.29,31.03
5745033,-0.06,-0.09,1.16,0.0,5.55,-1.22,929.26,31.03
5745071,-0.08,-0.11,1.16,0.24,5.07,-1.04,929.28,31.03
5745160,-0.05,-0.11,1.16,0.98,3.97,-0.79,929.26,31.01
5745198,-0.07,-0.1,1.13,1.04,3.66,-0.61,929.26,31.03
5745236,-0.07,-0.1,1.1,1.28,3.91,-0.55,929.27,31.02
5745275,-0.06,-0.09,1.02,1.1,2.87,-0.31,929.33,31.02
5745313,-0.07,-0.09,1.06,1.1,2.81,-0.24,929.33,31.04
5745351,-0.07,-0.12,0.97,0.92,2.26,-0.18,929.36,31.03
5745389,-0.05,-0.1,0.97,0.37,2.01,-0.24,929.33,31.04
5745439,-0.02,-0.11,0.91,0.12,1.77,-0.12,929.3,31.02
5745477,-0.06,-0.12,0.88,-0.85,1.04,-0.24,929.28,31.03
5745515,-0.08,-0.1,1.06,-0.73,1.65,-0.24,929.31,31.03
5745553,-0.06,-0.13,0.98,-0.85,5.55,-0.18,929.36,31.05
5745591,-0.08,-0.07,1.26,-0.55,4.46,-0.37,929.35,31.05
5745629,-0.05,-0.11,1.35,-0.18,7.75,-0.24,929.3,31.04
5745667,-0.04,-0.11,1.24,-0.24,8.3,-0.24,929.33,31.04
5745706,-0.07,-0.07,1.42,0.18,9.03,-0.06,929.32,31.04
5745744,-0.02,-0.12,1.28,0.67,11.17,-0.06,929.35,31.05
5745794,-0.03,-0.07,1.38,1.71,9.64,-0.12,929.4,31.04
5745832,-0.06,-0.12,1.2,2.2,11.17,0.12,929.33,31.05
5745870,-0.03,-0.1,1.23,2.62,9.28,-0.06,929.29,31.05
5745908,-0.06,-0.09,1.23,2.87,9.58,-0.12,929.34,31.04
5745946,-0.06,-0.11,1.19,2.87,10.38,0.12,929.27,31.05
5745984,-0.03,-0.11,1.25,2.75,10.93,0.0,929.22,31.04
5746022,-0.07,-0.11,1.23,2.75,11.72,-0.12,929.13,31.04
5746060,-0.06,-0.12,1.35,2.75,11.54,0.24,929.29,31.06
5746099,-0.05,-0.11,1.39,2.99,11.11,0.18,929.25,31.06
5746148,-0.03,-0.1,1.39,2.81,11.23,0.18,929.23,31.04
5746186,-0.05,-0.09,1.37,2.75,11.47,0.49,929.28,31.04
5746225,-0.05,-0.13,1.31,2.93,10.8,0.37,929.22,31.04
5746263,-0.06,-0.11,1.22,2.56,9.7,0.12,929.24,31.05
5746301,-0.06,-0.09,1.19,2.56,9.22,0.31,929.3,31.05
5746339,-0.02,-0.12,1.14,2.56,8.48,0.43,929.2,31.05
5746377,-0.03,-0.11,1.1,2.08,7.02,0.06,929.21,31.05
5746415,-0.04,-0.11,1.15,1.59,6.65,0.49,929.23,31.06
5746453,-0.03,-0.11,1.05,1.1,7.02,0.67,929.19,31.06
5746491,-0.07,-0.1,1.06,0.98,4.94,0.37,929.16,31.04
5746541,-0.06,-0.13,0.87,0.06,5.62,0.49,929.25,31.05
5746579,-0.01,-0.11,0.95,-0.37,3.72,0.31,929.22,31.05
5746617,-0.02,-0.11,0.97,-0.12,5.62,0.43,929.15,31.06
5746656,-0.01,-0.12,0.93,-0.37,3.11,0.43,929.19,31.05
5746694,-0.05,-0.11,0.99,-0.79,2.56,0.37,929.15,31.05
5746732,-0.02,-0.13,0.93,-0.92,4.64,-0.18,929.12,31.04
5746770,-0.05,-0.09,1.02,-0.61,2.14,-0.06,929.13,31.06
5746808,-0.01,-0.13,0.94,-0.67,3.05,-0.12,929.16,31.05
5746846,-0.04,-0.12,0.89,-0.73,2.62,-0.31,929.17,31.05
5746884,-0.03,-0.11,0.93,-0.98,3.17,-0.37,929.14,31.08
5746934,-0.0,-0.13,1.0,-1.16,2.32,-0.43,929.12,31.05
5746972,-0.03,-0.12,1.11,-1.1,1.34,-0.55,929.06,31.04
5747010,-0.01,-0.12,1.14,-1.46,1.04,-0.73,929.09,31.04
5747048,-0.03,-0.12,1.21,-1.28,0.37,-0.61,929.1,31.05
5747087,-0.01,-0.12,1.23,-1.04,-0.24,-0.79,929.17,31.06
5747125,-0.01,-0.11,1.26,-0.73,-0.31,-1.1,929.06,31.05
5747163,-0.0,-0.12,1.16,-0.49,-0.12,-0.92,929.12,31.05
5747201,-0.0,-0.11,1.22,-0.18,-0.31,-0.98,929.11,31.06
5747239,-0.03,-0.12,1.23,0.18,-1.28,-1.34,929.04,31.06
5747289,-0.07,-0.13,1.06,0.24,0.67,-1.34,929.11,31.06
5747327,-0.01,-0.1,1.16,0.79,0.31,-1.71,929.04,31.06
5747365,-0.02,-0.13,0.99,0.55,2.2,-2.01,929.09,31.05
5747403,-0.07,-0.09,1.06,0.67,1.22,-1.77,929.02,31.06
5747441,-0.02,-0.12,0.98,1.28,4.09,-1.83,929.02,31.06
5747480,-0.06,-0.12,0.96,0.73,2.32,-2.01,929.02,31.07
5747518,-0.08,-0.09,1.04,1.1,3.72,-1.89,928.98,31.06
5747556,-0.07,-0.12,0.92,1.04,5.07,-2.01,928.96,31.05
5747594,-0.07,-0.1,0.92,0.61,5.43,-2.01,928.94,31.05
5747644,-0.04,-0.11,0.93,0.18,6.53,-2.01,928.96,31.05
5747682,-0.07,-0.11,0.89,-0.37,7.32,-1.71,928.94,31.06
5747720,-0.05,-0.09,0.98,-0.24,6.84,-1.71,928.94,31.05
5747758,-0.04,-0.11,0.95,-0.43,7.75,-1.71,928.93,31.05
5747796,-0.07,-0.11,0.95,-0.43,6.35,-1.65,928.93,31.06
5747834,-0.07,-0.11,1.02,-0.31,6.65,-1.65,928.88,31.05
5747873,-0.05,-0.12,1.04,-0.12,6.9,-1.77,928.89,31.06
5747911,-0.05,-0.1,1.04,-0.55,6.41,-1.4,928.83,31.06
5747949,-0.06,-0.1,1.06,-0.49,6.53,-1.28,928.86,31.06
5747987,-0.07,-0.11,1.1,0.06,6.53,-1.34,928.89,31.06
5748063,-0.09,-0.09,1.04,-0.24,3.97,-0.92,928.82,31.03
5748101,-0.08,-0.1,1.05,-0.18,3.66,-0.85,928.81,31.05
5748139,-0.05,-0.12,0.99,-0.43,4.7,-0.79,928.74,31.04
5748228,-0.06,-0.14,1.05,-0.67,6.47,-0.49,928.81,31.02
5748266,-0.07,-0.08,1.21,-0.49,5.92,-0.49,928.82,31.02
5748305,-0.07,-0.12,1.04,-0.24,8.36,-0.55,928.78,31.03
5748343,-0.08,-0.1,1.11,-0.37,6.29,-0.49,928.8,31.04
5748381,-0.03,-0.11,1.04,-0.24,8.42,-0.67,928.83,31.05
5748419,-0.04,-0.1,1.07,0.06,7.14,-0.55,928.78,31.04
5748469,-0.04,-0.12,1.01,0.55,9.22,-0.24,928.76,31.04
5748507,-0.06,-0.1,1.08,0.98,8.12,-0.43,928.77,31.05
5748545,-0.09,-0.1,1.0,1.28,9.4,-0.43,928.67,31.03
5748583,-0.06,-0.1,0.92,1.34,7.26,-0.31,928.71,31.05
5748621,-0.07,-0.1,0.9,1.34,6.65,-0.31,928.69,31.05
5748659,-0.06,-0.1,0.85,1.4,5.49,-0.12,928.67,31.05
5748698,-0.03,-0.09,0.95,1.16,4.27,0.06,928.7,31.05
5748736,-0.05,-0.1,0.93,0.79,4.64,0.49,928.63,31.05
5748774,-0.06,-0.1,0.99,0.67,1.77,0.55,928.65,31.06
5748824,-0.06,-0.12,0.97,0.67,2.99,0.49,928.66,31.03
5748862,-0.04,-0.1,1.0,0.31,1.16,0.49,928.64,31.06
5748900,-0.05,-0.09,1.04,0.43,1.4,0.79,928.7,31.06
5748938,-0.03,-0.11,0.99,0.61,2.01,0.85,928.61,31.05
5748976,-0.05,-0.1,1.05,0.61,1.34,0.61,928.59,31.05
5749014,-0.04,-0.11,1.04,0.61,0.43,0.85,928.7,31.07
5749052,-0.04,-0.11,1.1,0.55,-0.18,0.98,928.66,31.06
5749090,-0.04,-0.11,1.04,0.55,1.83,0.73,928.64,31.07
5749129,-0.03,-0.1,1.09,0.98,0.92,0.49,928.65,31.08
5749167,0.0,-0.11,1.05,0.98,1.4,0.49,928.66,31.07
5749216,-0.03,-0.11,1.09,1.04,1.28,0.43,928.63,31.04
5749255,-0.02,-0.11,1.07,1.34,2.2,0.37,928.61,31.05
5749293,-0.04,-0.1,1.08,1.65,1.71,0.12,928.64,31.06
5749331,-0.05,-0.11,1.03,1.83,1.34,-0.06,928.63,31.05
5749369,-0.01,-0.1,1.05,1.83,0.61,0.0,928.6,31.06
5749407,-0.0,-0.1,1.07,1.95,1.59,-0.12,928.53,31.06
5749445,-0.04,-0.11,0.99,2.2,1.16,-0.18,928.6,31.06
5749483,-0.03,-0.1,1.01,2.14,0.49,-0.18,928.5,31.05
5749521,-0.01,-0.11,0.97,2.08,1.34,-0.37,928.56,31.06
5749559,-0.02,-0.09,0.95,2.08,1.4,-0.43,928.52,31.06
5749609,-0.02,-0.11,0.93,1.77,2.32,-0.61,928.53,31.05
5749647,-0.01,-0.1,0.97,1.71,1.34,-0.73,928.46,31.06
5749685,-0.01,-0.1,0.96,2.08,1.53,-0.79,928.49,31.05
5749724,-0.03,-0.11,0.95,2.01,1.4,-0.98,928.41,31.05
5749762,-0.02,-0.1,0.95,1.77,1.59,-1.04,928.51,31.06
5749800,-0.01,-0.1,0.95,1.71,1.77,-1.22,928.47,31.06
5749838,-0.01,-0.1,0.91,2.08,1.34,-1.22,928.5,31.07
5749876,-0.03,-0.11,0.89,2.2,1.89,-1.28,928.47,31.05
5749914,-0.01,-0.1,0.9,2.14,2.38,-1.65,928.5,31.06
5749964,-0.03,-0.09,0.88,2.01,2.2,-1.65,928.42,31.05
5750002,-0.03,-0.1,0.89,2.08,2.69,-1.65,928.42,31.04
5750040,-0.01,-0.1,0.89,2.08,2.62,-1.89,928.39,31.06
5750078,-0.02,-0.1,0.87,1.95,2.81,-1.95,928.41,31.06
5750117,-0.05,-0.09,0.9,2.01,2.26,-2.01,928.37,31.07
5750155,-0.0,-0.11,0.94,2.08,2.81,-1.89,928.38,31.07
5750193,-0.01,-0.1,0.95,1.89,1.89,-2.26,928.41,31.06
5750231,-0.03,-0.1,0.98,1.95,2.32,-2.32,928.35,31.06
5750269,-0.01,-0.11,0.96,1.83,2.01,-2.44,928.33,31.06
5750307,-0.01,-0.09,1.01,1.89,1.71,-2.56,928.4,31.07
5750357,-0.01,-0.09,0.99,2.08,1.28,-2.32,928.34,31.05
5750395,-0.02,-0.1,0.96,2.2,0.79,-2.5,928.36,31.07
5750433,-0.04,-0.1,0.94,2.38,0.73,-2.69,928.35,31.06
5750471,-0.03,-0.09,0.97,2.2,0.37,-2.81,928.36,31.07
5750510,-0.02,-0.1,0.93,2.2,0.55,-2.62,928.26,31.06
5750548,-0.03,-0.09,0.92,2.08,0.49,-2.87,928.3,31.05
5750586,-0.02,-0.09,0.93,2.01,0.79,-2.81,928.34,31.06
5750624,-0.03,-0.09,0.93,1.89,0.55,-2.81,928.27,31.07
5750662,-0.04,-0.09,0.92,1.71,0.79,-2.87,928.28,31.07
5750712,-0.04,-0.1,0.93,1.89,1.28,-2.93,928.3,31.06
5750750,-0.04,-0.09,0.94,1.83,0.49,-3.05,928.31,31.06
5750788,-0.02,-0.09,0.92,1.59,1.77,-3.11,928.3,31.06
5750826,-0.04,-0.09,0.94,1.77,2.75,-2.99,928.27,31.06
5750865,-0.03,-0.09,0.91,1.71,2.62,-3.36,928.28,31.07
5750903,-0.05,-0.08,0.93,1.59,2.32,-2.99,928.24,31.05
5750941,-0.04,-0.09,0.96,1.53,3.17,-3.05,928.27,31.07
5750979,-0.04,-0.1,0.92,1.59,3.72,-3.3,928.27,31.07
5751017,-0.03,-0.08,0.94,1.59,2.5,-2.93,928.25,31.07
5751055,-0.03,-0.08,0.94,1.77,2.44,-2.99,928.22,31.07
5751131,-0.05,-0.08,0.96,2.2,2.08,-2.81,928.23,31.03
5751169,-0.05,-0.09,0.98,2.5,1.95,-2.81,928.21,31.05
5751207,-0.04,-0.1,0.94,2.5,1.89,-2.87,928.19,31.05
5751297,-0.02,-0.09,0.94,3.11,3.17,-2.93,928.2,31.03
5751335,-0.0,-0.09,0.96,3.17,2.69,-2.93,928.19,31.03
5751373,-0.04,-0.09,0.88,3.17,3.3,-2.99,928.18,31.04
5751411,-0.04,-0.09,0.83,3.17,4.09,-3.11,928.23,31.05
5751449,-0.05,-0.09,0.79,3.48,3.85,-3.17,928.22,31.04
5751487,-0.04,-0.09,0.76,3.6,3.6,-3.17,928.13,31.05
5751537,-0.05,-0.09,0.69,3.6,4.27,-3.05,928.16,31.04
5751575,-0.01,-0.08,0.8,3.36,3.11,-2.99,928.13,31.05
5751614,-0.04,-0.09,0.81,2.87,4.52,-2.99,928.16,31.07
5751652,-0.07,-0.07,0.95,2.75,2.62,-2.75,928.13,31.05
5751690,-0.03,-0.09,0.86,2.56,5.13,-2.81,928.13,31.06
5751728,-0.02,-0.09,0.92,2.69,4.7,-2.87,928.14,31.05
5751766,-0.02,-0.1,0.97,3.17,7.32,-2.75,928.13,31.06
5751804,-0.02,-0.11,0.94,3.48,5.92,-2.81,928.14,31.07
5751842,-0.04,-0.07,0.97,3.42,5.37,-2.93,928.09,31.06
5751881,0.01,-0.1,0.95,3.23,5.37,-2.81,928.06,31.06
5751930,-0.01,-0.1,1.0,2.38,3.23,-2.75,928.05,31.04
5751969,-0.01,-0.1,1.04,2.75,2.14,-2.99,928.04,31.05
5752007,0.01,-0.1,0.92,2.26,2.26,-3.11,928.07,31.05
5752045,0.02,-0.07,1.01,2.38,1.16,-3.05,928.06,31.05
5752083,-0.01,-0.09,0.9,2.38,1.71,-3.54,928.04,31.06
5752121,-0.01,-0.09,1.0,2.26,0.98,-3.78,928.05,31.06
5752159,0.02,-0.1,0.99,1.65,2.99,-4.03,928.05,31.06
5752197,-0.02,-0.08,1.01,1.22,-0.18,-4.21,928.02,31.05
5752235,-0.02,-0.09,1.16,1.28,0.61,-4.09,928.05,31.05
5752285,-0.01,-0.09,1.32,1.1,0.43,-4.52,927.96,31.05
5752323,-0.04,-0.09,1.28,1.16,2.32,-4.39,928.03,31.05
5752362,-0.02,-0.09,1.2,1.04,0.98,-4.39,928.01,31.05
5752400,-0.04,-0.07,1.3,1.46,2.56,-4.76,928.02,31.05
5752438,-0.0,-0.11,1.1,2.01,3.54,-4.52,928.07,31.06
5752476,0.0,-0.08,1.14,2.38,1.53,-4.88,928.07,31.06
5752514,-0.02,-0.08,0.99,2.26,3.11,-4.94,928.04,31.06
5752552,-0.05,-0.07,1.06,2.26,1.46,-5.0,928.0,31.06
5752591,-0.02,-0.09,1.11,2.08,1.89,-4.94,927.95,31.05
5752629,-0.03,-0.09,1.14,2.01,1.34,-5.13,928.03,31.08
5752678,-0.07,-0.08,1.17,1.83,2.69,-5.07,927.99,31.05
5752717,-0.06,-0.08,1.16,1.83,3.05,-5.0,927.99,31.05
5752755,-0.06,-0.05,1.23,1.77,3.54,-5.19,927.99,31.07
5752793,-0.08,-0.07,1.12,1.89,5.0,-5.13,927.98,31.06
5752831,-0.07,-0.05,1.17,2.01,3.36,-4.76,927.93,31.07
5752869,-0.09,-0.07,1.12,2.56,4.15,-4.82,927.93,31.06
5752907,-0.14,-0.06,1.15,3.17,2.81,-4.33,927.88,31.06
5752946,-0.08,-0.07,1.25,3.66,2.87,-4.21,927.91,31.06
5752984,-0.11,-0.09,1.22,4.21,2.2,-3.72,927.93,31.07
5753034,-0.11,-0.07,1.12,4.39,2.99,-3.54,927.84,31.04
5753072,-0.1,-0.06,1.08,4.39,1.83,-3.05,927.87,31.05
5753110,-0.08,-0.08,0.97,4.21,3.54,-2.81,927.86,31.06
5753148,-0.12,-0.07,0.9,3.97,1.4,-2.56,927.79,31.06
5753186,-0.11,-0.07,0.91,4.09,2.38,-1.89,927.88,31.08
5753224,-0.1,-0.09,0.85,4.03,2.62,-1.89,927.79,31.07
5753262,-0.11,-0.05,0.93,4.21,1.95,-1.65,927.86,31.07
5753300,-0.1,-0.09,0.88,4.33,4.39,-1.4,927.82,31.07
5753339,-0.09,-0.11,0.84,4.03,4.27,-1.04,927.77,31.07
5753377,-0.07,-0.09,0.84,3.91,5.68,-0.92,927.77,31.08
5753427,-0.09,-0.08,0.75,3.42,5.13,-0.79,927.83,31.06
5753465,-0.09,-0.08,0.72,3.11,6.16,-0.67,927.8,31.07
5753503,-0.07,-0.09,0.76,2.69,5.19,-0.49,927.82,31.07
5753541,-0.06,-0.1,0.78,2.26,4.15,-0.43,927.76,31.07
5753579,-0.09,-0.08,0.76,1.65,3.36,-0.24,927.78,31.08
5753617,-0.07,-0.07,0.78,1.46,2.99,-0.12,927.73,31.06
5753655,-0.08,-0.08,0.81,1.16,3.3,0.0,927.77,31.07
5753693,-0.05,-0.09,0.82,0.79,4.21,0.31,927.69,31.07
5753732,-0.1,-0.08,0.85,1.22,4.7,0.49,927.78,31.08
5753781,-0.11,-0.08,0.84,1.28,5.37,0.61,927.74,31.06
5753820,-0.08,-0.07,0.92,1.4,5.13,0.55,927.68,31.06
5753858,-0.09,-0.09,0.91,1.65,6.04,0.85,927.74,31.06
5753896,-0.05,-0.09,0.95,1.77,5.68,1.1,927.71,31.07
5753934,-0.08,-0.08,0.95,1.65,5.62,1.16,927.73,31.06
5753972,-0.06,-0.09,1.01,1.95,4.88,1.22,927.77,31.06
5754010,-0.05,-0.09,1.05,2.14,4.27,1.59,927.78,31.07
5754048,-0.08,-0.09,1.03,2.5,4.27,1.65,927.78,31.08
5754086,-0.08,-0.1,1.0,2.62,3.91,1.77,927.72,31.07
5754125,-0.08,-0.07,1.01,2.81,3.6,1.71,927.74,31.07
5754202,-0.07,-0.1,0.98,2.75,3.17,1.95,927.69,31.03
5754240,-0.07,-0.1,0.97,2.62,3.17,2.08,927.72,31.06
5754278,-0.06,-0.09,0.98,2.32,3.78,2.01,927.71,31.06
5754367,-0.07,-0.09,0.99,2.2,3.54,2.32,927.68,31.02
5754406,-0.08,-0.09,0.98,2.01,4.27,2.08,927.72,31.04
5754444,-0.05,-0.09,0.96,1.77,4.09,2.38,927.68,31.05
5754482,-0.04,-0.09,1.0,1.53,3.66,2.32,927.69,31.04
5754520,-0.06,-0.1,1.02,1.59,3.72,2.32,927.61,31.04
5754558,-0.05,-0.1,1.04,1.46,3.3,2.32,927.65,31.06
5754608,-0.05,-0.09,1.02,1.22,2.99,2.38,927.68,31.05
5754646,-0.06,-0.08,1.04,1.16,3.17,2.38,927.66,31.04
5754684,-0.04,-0.1,0.99,1.04,3.72,2.32,927.65,31.05
5754722,-0.04,-0.09,1.07,1.4,3.66,2.32,927.68,31.05
5754760,-0.06,-0.1,1.0,1.34,4.52,2.44,927.72,31.06
5754799,-0.06,-0.09,1.01,1.53,4.03,2.32,927.71,31.07
5754837,-0.02,-0.09,1.05,1.59,4.94,1.89,927.68,31.07
5754875,-0.04,-0.1,1.01,1.53,5.25,1.89,927.66,31.07
5754913,-0.04,-0.1,1.05,1.34,4.94,1.77,927.67,31.08
5754951,-0.03,-0.1,1.01,1.53,5.25,1.71,927.65,31.06
5755001,-0.04,-0.09,1.03,1.22,4.94,1.71,927.61,31.06
5755039,-0.03,-0.1,1.0,1.4,4.88,1.46,927.64,31.06
5755077,-0.03,-0.1,1.02,1.4,4.39,1.53,927.57,31.06
5755115,-0.04,-0.09,1.02,1.16,4.58,1.28,927.64,31.06
5755153,-0.03,-0.1,1.03,1.22,3.97,1.4,927.62,31.08
5755192,-0.02,-0.1,0.98,1.16,3.66,1.22,927.63,31.06
5755230,-0.01,-0.09,1.02,1.1,3.85,1.04,927.63,31.06
5755268,-0.04,-0.09,0.97,1.16,4.33,1.16,927.67,31.06
5755306,-0.05,-0.1,0.96,1.04,3.6,0.92,927.57,31.07
5755344,-0.02,-0.09,1.03,1.34,3.72,0.92,927.66,31.08
5755394,-0.02,-0.1,1.02,1.22,3.42,0.85,927.63,31.06
5755432,-0.01,-0.09,1.1,1.34,3.11,0.79,927.63,31.07
5755470,-0.02,-0.1,1.0,1.46,3.78,0.73,927.6,31.06
5755508,-0.01,-0.08,1.09,1.28,1.59,0.49,927.62,31.06
5755547,-0.04,-0.11,1.02,1.53,2.99,0.43,927.65,31.07
5755585,-0.01,-0.09,1.04,0.92,2.38,0.31,927.62,31.08
5755623,-0.01,-0.08,1.08,0.92,3.23,0.0,927.6,31.07
5755661,-0.06,-0.09,1.02,1.1,2.81,-0.18,927.63,31.07
5755699,-0.03,-0.09,1.07,1.16,2.69,-0.06,927.62,31.07
5755749,-0.02,-0.08,1.12,1.46,2.44,-0.37,927.54,31.06
5755787,-0.03,-0.08,1.14,1.28,1.77,-0.18,927.65,31.08
5755825,-0.03,-0.08,1.13,1.34,2.38,-0.18,927.54,31.08
5755863,-0.04,-0.08,1.19,1.83,1.71,-0.37,927.59,31.08
5755901,-0.02,-0.08,1.22,2.2,0.55,-0.24,927.59,31.08
5755940,-0.04,-0.09,1.19,2.14,0.12,-0.24,927.6,31.07
5755978,-0.05,-0.07,1.19,2.5,0.49,-0.24,927.56,31.08
5756016,-0.05,-0.08,1.15,2.69,0.55,-0.18,927.54,31.07
5756054,-0.04,-0.08,1.14,2.56,0.37,-0.31,927.55,31.08
5756092,-0.06,-0.09,1.11,2.87,0.92,-0.18,927.53,31.07
5756142,-0.07,-0.08,1.15,2.93,0.98,-0.06,927.55,31.06
5756180,-0.03,-0.08,1.18,2.87,0.55,-0.06,927.51,31.07
5756218,-0.04,-0.08,1.16,2.87,0.67,-0.06,927.48,31.07
5756256,-0.05,-0.1,1.14,2.75,0.98,-0.12,927.54,31.08
5756294,-0.03,-0.11,1.12,2.93,1.46,-0.24,927.52,31.08
5756333,-0.03,-0.09,1.08,3.05,0.92,-0.18,927.52,31.07
5756371,-0.05,-0.09,0.99,2.93,1.83,-0.18,927.46,31.08
5756409,-0.05,-0.08,1.03,3.11,0.98,-0.24,927.48,31.08
5756447,-0.02,-0.1,0.95,3.36,2.5,-0.18,927.46,31.07
5756497,-0.04,-0.09,0.97,3.3,0.0,-0.31,927.43,31.07
5756535,-0.02,-0.1,0.84,3.3,3.48,-0.37,927.4,31.07
5756573,-0.02,-0.09,0.87,3.54,1.34,-0.37,927.4,31.07
5756611,-0.04,-0.1,0.86,3.48,2.38,-0.43,927.44,31.08
5756649,-0.03,-0.12,0.81,3.42,2.2,-0.24,927.4,31.08
5756687,-0.03,-0.09,0.97,3.3,1.77,-0.49,927.32,31.07
5756725,0.01,-0.12,0.85,2.93,1.89,-0.67,927.34,31.07
5756764,0.02,-0.08,0.95,2.2,1.16,-0.85,927.32,31.08
5756802,0.0,-0.09,0.98,2.2,2.32,-0.92,927.28,31.08
5756840,-0.02,-0.09,1.02,2.38,1.4,-0.98,927.38,31.07
5756890,-0.02,-0.1,1.0,2.26,3.23,-1.34,927.32,31.06
5756928,-0.03,-0.08,1.03,2.08,2.75,-1.77,927.33,31.06
5756966,-0.06,-0.09,1.04,2.2,3.42,-1.71,927.32,31.08
5757004,-0.03,-0.09,1.0,2.56,3.42,-1.83,927.32,31.07
5757042,-0.06,-0.08,0.99,2.87,3.91,-1.83,927.34,31.08
5757080,-0.06,-0.1,0.95,3.23,4.7,-1.65,927.27,31.08
5757118,-0.04,-0.09,1.0,3.42,4.39,-1.65,927.32,31.08
5757157,-0.07,-0.09,0.94,3.66,4.82,-1.59,927.25,31.06
5757195,-0.04,-0.09,0.95,3.42,4.82,-1.46,927.3,31.07
5757270,-0.03,-0.1,0.9,3.05,5.49,-1.46,927.22,31.04
5757309,-0.05,-0.09,0.86,3.05,6.16,-1.59,927.25,31.05
5757347,-0.03,-0.1,0.84,2.81,5.0,-1.59,927.27,31.05
5757436,-0.04,-0.09,0.84,1.95,3.54,-1.71,927.21,31.04
5757474,-0.05,-0.09,0.87,1.77,3.11,-1.65,927.22,31.05
5757513,-0.04,-0.1,0.85,1.46,2.93,-1.65,927.22,31.06
5757551,-0.04,-0.08,0.94,1.46,2.2,-1.53,927.23,31.05
5757589,-0.05,-0.1,0.89,1.59,4.33,-1.53,927.2,31.05
5757627,-0.08,-0.08,0.96,1.46,2.69,-1.4,927.2,31.06
5757665,-0.08,-0.09,0.96,1.71,3.6,-1.4,927.17,31.06
5757715,-0.09,-0.08,0.95,1.65,2.62,-0.98,927.12,31.05
5757753,-0.07,-0.08,0.91,1.59,4.88,-1.04,927.19,31.06
5757791,-0.05,-0.08,0.92,1.46,3.78,-0.98,927.17,31.06
5757829,-0.06,-0.09,0.98,1.77,3.54,-0.73,927.15,31.06
5757867,-0.04,-0.1,0.92,1.65,3.6,-0.61,927.15,31.06
5757906,-0.07,-0.07,1.01,1.71,3.78,-0.61,927.21,31.08
5757944,-0.06,-0.08,0.97,1.77,4.52,-0.37,927.18,31.07
5757982,-0.06,-0.09,0.99,1.65,2.99,-0.24,927.13,31.07
5758020,-0.05,-0.09,0.98,1.53,3.36,-0.37,927.14,31.07
5758070,-0.04,-0.09,0.96,1.34,3.3,-0.12,927.18,31.07
5758108,-0.05,-0.09,0.92,1.53,4.94,-0.18,927.09,31.06
5758146,-0.06,-0.08,0.96,1.65,4.88,-0.31,927.19,31.08
5758184,-0.06,-0.09,0.95,1.77,5.68,-0.24,927.07,31.06
5758222,-0.05,-0.09,0.97,1.89,5.55,-0.06,927.09,31.08
5758260,-0.08,-0.09,0.97,1.65,4.46,-0.12,927.13,31.08
5758298,-0.04,-0.09,1.0,1.65,5.19,-0.24,927.06,31.07
5758336,-0.05,-0.08,1.04,1.77,5.19,0.0,927.12,31.08
5758374,-0.06,-0.08,1.02,2.01,5.0,0.24,927.08,31.08
5758413,-0.07,-0.08,1.02,1.95,5.07,0.24,927.12,31.08
5758462,-0.05,-0.08,1.0,2.01,5.19,0.24,927.09,31.07
5758500,-0.05,-0.08,1.0,2.32,4.39,0.37,927.08,31.08
5758539,-0.05,-0.08,1.0,2.38,4.94,0.49,927.09,31.08
5758577,-0.04,-0.09,0.95,2.32,5.07,0.37,927.05,31.08
5758615,-0.05,-0.08,1.0,2.32,4.46,0.55,927.02,31.08
5758653,-0.07,-0.09,0.95,2.26,4.94,0.55,927.03,31.08
5758691,-0.05,-0.09,0.99,2.38,4.88,0.55,927.04,31.08
5758729,-0.05,-0.09,1.0,2.08,5.43,0.61,927.05,31.08
5758767,-0.06,-0.09,1.0,1.95,5.31,0.79,927.01,31.08
5758817,-0.05,-0.09,0.95,2.2,6.04,0.67,927.02,31.07
5758855,-0.06,-0.08,0.98,1.95,6.04,0.73,926.98,31.08
5758893,-0.06,-0.09,0.95,2.01,6.1,0.85,927.05,31.08
5758931,-0.06,-0.08,1.0,1.95,4.94,1.1,927.01,31.07
5758969,-0.05,-0.09,1.0,2.08,5.19,1.22,926.95,31.08
5759008,-0.06,-0.08,1.05,2.01,4.27,1.1,926.99,31.08
5759046,-0.07,-0.09,1.04,2.38,5.07,1.34,927.05,31.1
5759084,-0.03,-0.09,1.04,2.26,4.15,1.46,927.01,31.08
5759122,-0.05,-0.08,1.02,2.44,4.52,1.4,927.0,31.09
5759160,-0.08,-0.09,0.94,2.75,4.94,1.59,926.93,31.09
5759210,-0.06,-0.07,0.97,2.5,3.3,1.46,927.01,31.08
5759248,-0.07,-0.09,0.98,2.69,6.59,1.46,926.92,31.08
5759286,-0.01,-0.1,0.97,2.32,6.16,1.53,926.93,31.08
5759324,-0.06,-0.09,1.11,2.38,7.02,1.71,926.98,31.09
5759362,-0.04,-0.11,1.04,2.14,7.75,1.71,926.91,31.08
5759400,-0.05,-0.08,1.06,1.83,7.63,1.77,926.96,31.09
5759439,-0.02,-0.08,1.02,1.83,7.45,1.71,926.97,31.09
5759477,-0.0,-0.09,1.05,2.01,5.8,1.4,926.95,31.08
5759515,-0.05,-0.1,0.92,2.08,6.9,1.46,926.94,31.08
5759553,-0.03,-0.08,0.95,2.2,6.1,1.71,926.89,31.09
5759603,0.01,-0.12,0.83,2.01,6.1,1.22,926.87,31.08
5759641,-0.04,-0.08,0.88,1.83,4.03,1.1,926.93,31.07
5759679,-0.03,-0.1,0.87,1.89,5.98,1.22,926.87,31.08
5759717,0.02,-0.11,0.8,1.46,4.46,0.55,926.9,31.08
5759755,-0.03,-0.07,0.89,1.16,3.66,0.49,926.91,31.08
5759793,-0.03,-0.11,0.78,0.92,4.03,0.92,926.91,31.08
5759831,-0.02,-0.1,0.88,0.67,2.2,0.67,926.91,31.09
5759870,-0.03,-0.1,0.9,0.43,2.87,0.18,926.9,31.07
5759908,-0.02,-0.1,0.92,0.61,0.61,0.61,926.9,31.09
5759958,-0.03,-0.09,0.95,0.49,1.28,0.61,926.9,31.08
5759996,-0.03,-0.1,1.01,0.24,0.43,0.18,926.88,31.08
5760034,-0.05,-0.1,1.05,0.0,1.34,0.37,926.88,31.09
5760072,-0.04,-0.1,1.04,0.06,2.08,0.37,926.88,31.08
5760110,-0.02,-0.09,1.04,-0.12,2.2,0.06,926.83,31.06
5760148,-0.02,-0.09,1.08,0.24,2.26,-0.06,926.85,31.07
5760186,-0.0,-0.11,1.05,0.49,1.71,0.0,926.89,31.08
5760224,-0.02,-0.1,1.06,0.85,2.56,-0.06,926.88,31.07
5760262,-0.03,-0.1,0.99,1.1,2.62,-0.24,926.85,31.09
5760300,-0.01,-0.1,1.07,1.53,1.65,-0.31,926.83,31.09
5760376,-0.02,-0.11,1.02,1.65,3.36,-0.49,926.84,31.05
5760414,-0.03,-0.09,1.01,1.53,2.87,-0.73,926.82,31.07
5760452,0.0,-0.11,1.09,1.22,2.75,-0.61,926.78,31.06
5760542,-0.05,-0.09,1.13,1.34,4.46,-0.92,926.78,31.04
5760580,-0.01,-0.13,1.13,1.34,5.49,-1.28,926.83,31.05
5760618,-0.02,-0.09,1.2,1.95,4.15,-1.59,926.88,31.06
5760656,-0.04,-0.1,1.09,2.32,6.59,-1.34,926.8,31.06
5760694,-0.04,-0.09,1.01,1.65,5.98,-1.28,926.83,31.06
5760733,0.03,-0.09,0.99,1.59,6.47,-1.89,926.81,31.06
5760771,-0.02,-0.11,0.9,1.28,4.82,-2.01,926.81,31.07
5760820,-0.04,-0.1,0.93,0.98,6.1,-1.65,926.81,31.07
5760859,-0.0,-0.1,0.96,0.73,6.41,-1.77,926.73,31.08
5760897,-0.02,-0.1,0.99,0.55,5.74,-2.32,926.74,31.07
5760935,-0.04,-0.1,0.98,0.31,6.65,-2.08,926.76,31.07
5760973,-0.03,-0.1,1.02,0.49,6.59,-2.2,926.73,31.07
5761011,-0.04,-0.11,0.97,0.24,7.14,-2.56,926.77,31.07
5761049,-0.04,-0.08,0.98,0.67,5.68,-2.44,926.79,31.08
5761087,-0.04,-0.09,0.93,1.28,7.57,-2.26,926.79,31.08
5761125,-0.05,-0.12,0.88,1.46,6.41,-2.2,926.72,31.08
5761175,-0.06,-0.09,0.91,1.53,6.29,-2.08,926.77,31.08
5761213,-0.04,-0.1,0.85,1.4,5.8,-1.83,926.76,31.07
5761251,-0.03,-0.1,0.81,1.4,5.98,-1.89,926.77,31.08
5761289,-0.05,-0.09,0.8,1.59,5.13,-2.08,926.72,31.07
5761328,-0.05,-0.1,0.79,1.59,4.94,-1.71,926.72,31.08
5761366,-0.01,-0.1,0.78,1.34,4.09,-1.77,926.73,31.08
5761404,-0.05,-0.09,0.82,0.98,4.09,-1.83,926.72,31.08
5761442,-0.06,-0.1,0.83,1.04,3.23,-1.59,926.63,31.08
5761480,-0.01,-0.1,0.91,0.61,2.44,-1.65,926.68,31.09
