timestamp,acc_x,acc_y,acc_z,rot_x,rot_y,rot_z,qfe,temp
3901530,0.0,0.09,0.88,-3.97,10.25,0.55,983.21,36.13
3901568,0.04,0.1,0.71,-2.38,0.06,0.55,983.19,36.13
3901606,-0.06,0.17,0.67,-1.89,8.67,1.04,983.29,36.13
3901644,0.0,0.14,0.45,-3.72,6.71,1.65,983.19,36.14
3901682,-0.02,0.21,0.88,-1.46,2.81,0.98,983.11,36.12
3901720,0.03,0.08,0.47,0.12,9.28,1.34,983.12,36.14
3901758,-0.09,0.17,1.27,2.08,-3.42,1.89,983.06,36.13
3901808,0.04,0.12,0.97,5.68,4.27,0.98,983.26,36.12
3901846,-0.14,0.24,1.64,5.19,7.14,1.34,983.22,36.12
3901884,0.03,0.29,1.52,6.1,-5.07,1.53,983.2,36.13
3901922,0.1,0.21,1.3,7.63,1.28,1.77,983.29,36.13
3901960,-0.14,0.11,0.66,12.76,8.48,1.59,983.18,36.14
3901998,-0.0,0.17,0.64,7.69,2.44,1.71,983.29,36.13
3902036,-0.08,0.17,0.88,9.09,4.64,1.77,983.23,36.13
3902074,-0.0,0.06,0.53,8.42,4.76,2.08,983.3,36.13
3902112,-0.02,0.14,0.8,7.02,3.05,2.14,983.23,36.15
3902162,0.06,0.14,0.58,6.71,4.52,1.89,983.23,36.11
3902200,-0.01,0.19,0.69,6.04,3.78,2.5,983.13,36.13
3902238,0.01,0.15,0.52,5.25,4.82,2.5,983.26,36.14
3902276,-0.04,0.17,0.64,4.94,1.59,2.26,983.19,36.15
3902314,0.01,0.07,0.75,3.85,5.55,2.01,983.19,36.14
3902352,0.12,0.11,1.72,5.13,-0.73,2.08,983.18,36.11
3902390,0.05,0.03,2.36,7.93,-3.66,2.44,983.32,36.13
3902428,0.0,0.04,1.54,5.8,10.93,2.56,983.35,36.14
3902466,-0.07,0.39,1.31,8.61,1.4,2.44,983.24,36.14
3902504,0.03,0.23,0.46,7.39,8.79,2.08,983.21,36.13
3902554,-0.04,0.08,0.56,9.16,-1.16,1.65,983.12,36.12
3902592,0.06,0.1,0.6,6.47,1.95,1.46,983.11,36.12
3902630,0.02,0.08,0.79,5.25,-1.89,1.16,983.16,36.13
3902668,0.06,0.0,0.94,0.61,-0.37,1.4,983.17,36.13
3902706,0.08,-0.0,1.6,0.43,-2.87,1.53,983.19,36.13
3902744,0.06,0.13,1.4,-6.1,0.06,1.77,983.36,36.14
3902782,0.06,0.17,1.06,-7.39,2.5,1.77,983.3,36.13
3902820,0.09,0.15,1.0,-6.41,-2.56,1.1,983.29,36.14
3902858,0.1,-0.01,0.84,-6.71,4.64,0.61,983.22,36.13
3902896,-0.0,0.1,1.62,-7.14,-4.21,1.34,983.2,36.13
3902972,-0.12,0.23,1.01,-4.88,-3.23,1.28,983.28,36.11
3903010,0.08,0.13,0.97,-2.99,2.08,0.49,983.22,36.12
3903048,0.01,0.1,0.83,-2.81,-1.95,0.67,983.22,36.12
3903137,0.03,0.23,0.77,-2.5,0.67,0.73,983.23,36.09
3903175,-0.01,0.16,0.8,-2.08,6.77,0.85,983.06,36.11
3903213,-0.02,0.1,0.77,-2.62,2.5,1.53,983.12,36.13
3903252,-0.07,0.15,1.12,-1.04,1.59,0.92,983.2,36.12
3903290,-0.01,0.12,0.87,-1.28,4.88,0.61,983.23,36.14
3903328,-0.02,0.25,1.08,-0.37,1.59,1.1,983.14,36.13
3903366,-0.02,0.12,0.9,1.1,5.49,0.85,983.1,36.13
3903415,-0.04,0.16,1.22,2.32,6.84,0.67,983.08,36.11
3903453,0.02,0.2,1.29,2.32,5.25,0.98,983.15,36.12
3903492,-0.13,0.18,1.06,5.49,2.56,0.98,983.12,36.12
3903530,-0.15,0.26,1.17,4.64,2.99,0.98,983.08,36.12
3903568,-0.0,0.17,0.78,4.21,4.88,1.1,983.12,36.13
3903606,-0.1,0.16,1.33,5.86,3.11,1.4,983.08,36.13
3903644,-0.12,0.1,0.7,7.93,7.63,1.65,983.15,36.12
3903682,-0.03,0.22,1.09,7.45,-0.24,2.01,983.11,36.13
3903720,-0.05,0.16,0.73,7.57,9.22,1.77,983.18,36.13
3903758,-0.06,0.1,0.88,7.69,1.1,1.83,983.21,36.13
3903808,-0.0,0.15,0.76,7.45,7.26,2.01,983.11,36.12
3903846,0.0,0.17,0.89,8.12,1.4,2.56,983.14,36.12
3903884,-0.01,0.12,0.74,6.96,5.55,2.5,983.22,36.13
3903922,-0.03,0.11,0.79,6.71,4.46,2.62,983.24,36.13
3903960,-0.04,0.12,1.2,7.26,2.26,2.93,983.21,36.13
3903998,-0.04,0.12,0.88,6.29,3.66,2.44,983.18,36.11
3904036,0.06,0.17,1.15,8.36,8.48,2.56,983.12,36.13
3904074,0.09,0.18,0.94,7.08,0.0,2.81,983.07,36.13
3904112,0.01,0.17,1.13,7.69,6.84,2.32,983.18,36.13
3904150,-0.02,0.06,1.28,8.61,-3.91,2.32,983.23,36.14
3904200,-0.08,0.11,0.85,7.26,5.31,2.38,983.24,36.13
3904238,0.05,0.11,1.16,6.53,0.67,2.2,983.21,36.13
3904276,0.1,0.15,1.2,3.6,9.46,3.11,983.27,36.14
3904314,-0.12,0.15,1.03,4.76,-0.55,2.32,983.19,36.13
3904352,0.1,0.06,0.86,1.04,8.48,2.14,983.05,36.13
3904390,-0.08,0.15,0.45,-0.73,9.16,2.62,983.13,36.13
3904428,0.12,0.14,0.85,-2.75,3.23,2.81,983.12,36.12
3904466,-0.0,0.12,0.74,-3.11,9.16,2.81,983.11,36.13
3904504,-0.14,0.07,0.85,-0.92,2.08,3.23,983.15,36.14
3904554,0.01,0.18,0.7,-2.56,9.16,2.75,983.25,36.13
3904592,-0.0,0.13,0.87,-1.46,5.0,3.05,983.13,36.13
3904630,0.13,0.12,0.61,-2.81,8.3,2.5,983.12,36.12
3904668,-0.01,0.15,1.18,-2.32,3.42,2.32,983.14,36.13
3904706,0.14,0.07,1.05,-1.46,7.14,2.99,983.16,36.13
3904744,0.05,0.2,1.47,-1.83,2.26,2.81,983.22,36.15
3904782,0.15,0.16,1.2,-5.43,11.6,2.38,983.15,36.15
3904821,-0.06,0.11,1.12,-0.31,12.45,2.01,983.22,36.13
3904859,0.17,0.2,1.15,-1.16,1.22,2.2,983.04,36.13
3904897,0.11,0.17,1.12,-4.21,12.33,1.77,983.1,36.14
3904947,-0.06,0.14,1.08,-0.73,13.49,1.04,983.17,36.13
3904985,0.04,0.16,1.35,-0.31,-0.18,1.4,983.12,36.13
3905023,0.06,0.11,1.02,0.85,5.55,1.28,983.21,36.13
3905061,-0.03,0.06,1.04,2.26,8.06,0.85,983.11,36.14
3905099,0.03,0.1,0.9,0.98,3.17,0.98,983.14,36.13
3905137,0.03,0.14,1.04,0.98,4.64,0.55,983.07,36.13
3905175,0.05,0.1,0.89,0.85,6.9,0.49,983.05,36.12
3905213,0.05,0.12,1.05,0.73,1.46,0.67,983.12,36.15
3905251,0.02,0.1,1.01,0.61,7.32,0.55,983.03,36.13
3905289,-0.03,0.14,1.02,1.04,6.23,0.49,983.13,36.14
3905339,-0.03,0.16,1.11,2.2,4.7,0.31,983.06,36.12
3905377,-0.03,0.12,0.92,2.56,4.7,0.31,983.02,36.13
3905415,0.02,0.11,1.02,2.01,2.69,0.12,983.14,36.15
3905453,0.08,0.12,0.89,1.65,5.07,-0.06,983.12,36.12
3905491,-0.0,0.15,0.98,2.01,1.77,0.61,983.08,36.13
3905529,-0.02,0.14,0.93,1.89,4.58,1.1,983.11,36.13
3905567,-0.05,0.14,0.98,1.95,2.75,0.37,983.16,36.15
3905605,-0.06,0.15,1.01,2.14,4.52,0.24,983.15,36.15
3905643,-0.0,0.13,0.92,2.14,0.67,0.37,983.14,36.14
3905681,-0.01,0.17,0.99,1.71,1.46,0.31,983.13,36.13
3905731,0.04,0.14,0.94,1.46,2.87,0.24,983.17,36.12
3905769,-0.0,0.18,1.06,1.22,2.14,0.55,983.11,36.14
3905807,-0.06,0.15,1.0,0.98,3.3,0.92,983.07,36.15
3905845,-0.04,0.16,1.03,0.67,2.87,0.49,983.07,36.13
3905883,-0.0,0.16,1.09,0.31,3.97,0.06,983.08,36.14
3905921,0.04,0.14,0.99,0.18,2.81,0.49,983.07,36.15
3905959,0.03,0.16,1.1,0.37,0.49,0.73,983.02,36.15
3905997,-0.0,0.15,1.06,0.92,2.38,0.73,983.05,36.15
3906035,-0.01,0.17,1.06,0.92,1.28,1.04,982.98,36.15
3906073,-0.03,0.16,1.1,1.65,1.89,0.85,983.08,36.15
3906149,0.01,0.18,1.12,2.5,1.46,0.61,983.13,36.11
3906187,0.01,0.16,1.11,3.23,1.1,0.55,983.12,36.12
3906225,0.02,0.17,1.13,3.97,-0.73,0.79,983.05,36.13
3906314,-0.02,0.15,1.08,5.92,0.79,0.24,983.0,36.09
3906352,-0.03,0.16,1.04,5.74,2.44,0.61,983.0,36.12
3906391,0.02,0.12,0.98,6.04,0.73,0.18,983.02,36.11
3906429,0.0,0.13,0.98,5.68,1.4,0.31,983.05,36.12
3906467,0.01,0.09,0.92,6.16,1.4,0.67,983.05,36.12
3906505,0.0,0.12,0.99,6.47,1.89,0.79,982.99,36.12
3906543,-0.08,0.1,0.9,6.29,2.38,1.28,982.96,36.13
3906592,-0.02,0.13,0.88,6.1,-0.79,1.16,982.96,36.13
3906630,-0.01,0.1,0.89,5.25,2.38,0.98,983.01,36.13
3906669,-0.04,0.1,0.76,4.94,1.46,1.46,983.03,36.13
3906707,0.0,0.09,0.85,4.7,0.24,1.71,982.99,36.13
3906745,-0.04,0.06,0.75,3.3,2.81,2.14,983.02,36.15
3906783,-0.07,0.13,0.86,2.75,1.46,2.32,983.02,36.14
3906821,-0.06,0.11,0.91,2.26,4.58,2.32,982.98,36.13
3906859,0.0,0.06,0.89,1.16,2.69,2.26,982.99,36.13
3906897,0.02,0.11,0.98,0.37,5.62,2.2,982.97,36.13
3906935,0.06,0.12,1.02,0.67,4.46,2.26,983.08,36.13
3906985,-0.05,0.11,1.0,0.98,5.07,3.3,983.08,36.13
3907023,-0.01,0.09,1.0,1.53,3.36,3.11,983.03,36.14
3907061,-0.07,0.11,0.95,1.89,3.54,2.93,982.97,36.14
3907099,0.02,0.09,1.0,2.01,5.49,2.81,983.05,36.13
3907137,0.04,0.09,0.98,2.01,2.87,2.75,983.06,36.15
3907175,0.06,0.11,0.99,1.65,1.71,2.81,983.04,36.14
3907213,0.0,0.09,1.07,1.95,3.05,2.62,983.01,36.14
3907251,0.02,0.09,1.03,1.89,5.98,2.44,983.06,36.13
3907289,-0.06,0.11,1.01,2.44,3.42,2.75,982.92,36.13
3907327,0.0,0.07,0.92,1.89,2.38,2.08,982.95,36.15
3907377,0.04,0.11,1.03,0.06,3.78,1.16,983.14,36.13
3907415,0.04,0.12,1.08,0.37,5.07,1.71,982.92,36.12
3907453,0.04,0.08,1.05,0.31,6.47,2.01,982.97,36.14
3907491,-0.01,0.09,1.05,0.0,6.53,1.65,983.08,36.14
3907529,-0.08,0.12,1.05,0.0,6.47,1.59,983.11,36.15
3907567,0.01,0.11,1.11,0.49,6.41,1.28,983.02,36.13
3907605,0.02,0.09,1.07,0.67,5.86,1.28,983.1,36.14
3907643,0.02,0.11,1.11,0.79,8.06,1.16,983.01,36.14
3907681,0.04,0.09,1.11,1.34,8.61,1.22,983.02,36.14
3907719,0.02,0.09,1.04,1.83,8.85,0.98,983.03,36.15
3907769,-0.0,0.11,1.1,2.2,8.61,1.1,983.07,36.13
3907807,-0.03,0.1,1.13,3.17,8.12,0.85,982.98,36.13
3907845,0.05,0.1,1.08,3.42,7.57,1.16,983.07,36.14
3907883,0.02,0.09,1.02,3.78,6.77,1.28,983.06,36.14
3907921,-0.03,0.08,0.92,4.39,8.06,0.98,983.14,36.15
3907959,0.06,0.08,0.95,4.33,8.24,0.85,983.02,36.15
3907997,0.01,0.09,1.03,4.52,6.77,1.4,983.07,36.14
3908035,-0.06,0.08,0.85,4.03,7.26,1.4,983.09,36.14
3908074,-0.01,0.09,0.88,4.33,7.26,0.73,983.05,36.15
3908123,0.06,0.08,0.9,3.72,8.24,0.79,983.07,36.13
3908161,0.01,0.12,0.89,3.05,5.13,1.22,983.13,36.14
3908199,0.01,0.11,0.81,2.87,6.84,0.85,983.06,36.13
3908238,-0.0,0.1,0.93,2.44,6.53,0.61,983.02,36.15
3908276,0.02,0.1,0.99,2.14,7.14,0.73,983.04,36.16
3908314,0.01,0.1,0.8,0.98,7.93,0.61,983.07,36.14
3908352,0.02,0.14,0.93,0.98,5.55,0.49,983.06,36.15
3908390,0.03,0.13,0.97,0.98,7.39,1.28,983.07,36.15
3908428,0.02,0.1,0.96,0.98,6.77,0.98,983.02,36.15
3908466,-0.03,0.13,1.02,1.16,3.3,0.67,983.15,36.15
3908516,-0.0,0.13,0.91,0.85,5.86,0.85,983.09,36.13
3908554,0.03,0.14,1.02,0.92,3.11,0.85,983.0,36.13
3908592,0.05,0.12,1.01,1.04,5.86,0.61,983.1,36.13
3908630,0.0,0.14,0.95,0.92,2.81,1.04,983.12,36.15
3908668,0.0,0.15,1.04,0.98,3.91,1.16,983.1,36.15
3908706,0.04,0.11,0.93,1.04,4.64,1.1,983.09,36.16
3908744,-0.03,0.16,1.09,1.28,1.34,1.34,983.07,36.15
3908782,-0.03,0.13,1.0,0.98,5.49,1.34,983.14,36.15
3908820,-0.02,0.14,1.08,1.28,2.62,1.1,983.03,36.15
3908858,-0.01,0.15,1.12,1.28,4.52,1.04,983.1,36.16
3908908,0.0,0.1,1.03,1.46,3.54,1.65,983.03,36.14
3908946,-0.01,0.12,1.12,2.26,4.76,1.65,983.01,36.16
3908984,0.0,0.13,1.06,2.44,4.39,1.89,983.03,36.16
3909022,0.03,0.14,1.07,2.14,2.5,2.14,983.09,36.15
3909060,-0.04,0.13,1.09,2.93,2.56,2.26,983.09,36.15
3909098,0.01,0.07,1.04,3.6,2.44,2.32,983.05,36.16
3909136,0.0,0.1,1.09,3.85,2.08,2.2,983.02,36.15
3909174,-0.05,0.11,1.01,4.76,1.65,2.62,983.0,36.15
3909212,0.03,0.1,0.9,4.52,1.83,2.44,983.0,36.15
3909250,0.04,0.1,0.95,4.27,1.28,1.83,983.05,36.16
3909326,0.03,0.06,0.98,4.09,0.06,2.69,983.1,36.15
3909364,0.01,0.09,0.95,3.54,0.79,2.32,983.05,36.14
3909402,-0.01,0.09,0.94,3.72,0.67,2.44,983.02,36.14
3909491,0.01,0.06,0.91,2.93,2.38,2.38,983.0,36.11
3909529,-0.03,0.09,1.0,2.87,0.92,2.26,983.11,36.13
3909567,-0.01,0.07,0.93,2.69,2.69,2.62,982.99,36.13
3909605,0.01,0.07,0.89,2.5,1.77,2.75,983.0,36.14
3909643,-0.02,0.09,0.96,2.87,1.77,2.38,982.99,36.13
3909682,-0.01,0.06,0.88,2.32,2.5,2.75,982.95,36.13
3909720,0.04,0.08,0.99,2.5,1.34,2.62,982.96,36.13
3909769,-0.01,0.07,0.91,2.08,2.87,2.26,982.99,36.13
3909807,0.01,0.08,0.95,1.77,3.11,2.56,982.97,36.15
3909845,0.02,0.09,0.96,2.26,3.85,2.56,982.97,36.14
3909883,-0.04,0.07,0.94,1.83,4.52,2.32,983.04,36.14
3909922,0.04,0.09,0.96,1.53,5.74,2.5,983.01,36.15
3909960,0.03,0.11,1.03,1.83,3.72,2.62,982.99,36.15
3909997,-0.03,0.1,1.02,1.77,4.21,2.87,982.93,36.16
3910035,-0.0,0.09,0.95,2.2,7.14,2.5,983.0,36.15
3910074,0.03,0.12,0.96,2.08,5.25,2.5,982.99,36.16
3910112,-0.02,0.13,0.96,1.89,3.85,2.62,983.1,36.16
3910161,0.02,0.08,0.89,1.53,7.14,2.69,982.93,36.15
3910199,0.03,0.12,1.08,2.26,3.66,2.5,982.91,36.16
3910237,0.02,0.1,1.04,2.2,5.86,2.99,982.94,36.15
3910275,0.03,0.12,1.01,2.01,3.54,2.99,982.89,36.15
3910313,-0.02,0.1,1.03,2.38,5.31,2.75,982.91,36.15
3910351,0.0,0.07,0.9,1.83,6.9,3.05,982.9,36.15
3910389,0.0,0.07,0.97,1.95,5.19,3.23,982.79,36.15
3910427,0.02,0.09,0.94,1.28,5.19,3.3,982.8,36.16
3910465,0.03,0.11,1.03,1.1,5.8,3.05,982.84,36.16
3910503,0.02,0.09,0.99,1.16,6.41,3.11,982.95,36.16
3910553,0.04,0.1,1.09,1.53,4.03,3.17,982.86,36.15
3910591,0.01,0.06,1.0,1.83,6.04,3.3,982.99,36.17
3910629,0.02,0.09,1.02,1.71,5.43,3.11,982.86,36.15
3910667,0.03,0.1,0.98,1.53,4.88,3.05,982.92,36.16
3910705,0.02,0.08,1.05,1.59,2.75,3.05,982.81,36.16
3910743,-0.0,0.06,1.03,1.89,5.92,2.93,982.81,36.15
3910781,0.05,0.09,1.06,1.95,3.91,2.87,982.92,36.15
3910819,0.03,0.08,1.19,2.26,5.74,2.69,982.85,36.17
3910857,-0.02,0.06,1.02,1.95,7.02,2.87,982.87,36.16
3910895,0.0,0.08,1.13,2.44,4.46,2.62,982.9,36.17
3910945,0.08,0.03,0.98,2.38,7.08,2.14,982.87,36.16
3910983,0.08,0.09,1.01,2.2,5.25,1.95,982.73,36.16
3911021,0.03,0.07,1.02,2.69,7.57,2.08,982.76,36.17
3911059,0.06,0.06,0.97,2.32,6.29,1.71,982.84,36.17
3911097,0.08,0.09,1.08,2.93,5.62,1.1,982.84,36.17
3911135,0.02,0.06,0.89,2.93,4.76,1.16,982.75,36.17
3911173,0.03,0.06,1.1,3.23,6.23,1.04,982.69,36.15
3911211,0.13,0.05,0.9,2.62,6.29,0.43,982.72,36.16
3911249,0.06,0.11,1.0,2.69,2.69,0.31,982.77,36.17
3911287,0.02,0.03,0.82,3.05,4.58,0.43,982.72,36.16
3911337,0.07,0.04,0.99,2.32,6.35,-0.18,982.79,36.17
3911375,0.09,0.11,1.01,1.71,4.15,-0.37,982.75,36.17
3911413,-0.05,0.09,0.96,2.01,5.86,-0.43,982.86,36.15
3911451,0.03,0.02,0.83,2.14,6.35,-0.67,982.81,36.16
3911489,0.11,0.09,1.11,2.26,4.76,-0.67,982.84,36.16
3911527,0.0,0.09,1.01,2.75,7.02,-0.79,982.81,36.16
3911565,0.01,0.1,1.01,3.72,4.7,-0.67,982.82,36.17
3911603,0.04,0.12,1.06,3.91,4.94,-0.92,982.75,36.16
3911641,0.02,0.04,1.05,4.15,8.67,-0.98,982.77,36.16
3911679,0.08,0.04,0.93,3.42,4.7,-0.85,982.81,36.17
3911729,-0.0,0.11,1.13,4.33,1.77,-0.73,982.75,36.15
3911767,0.02,0.04,0.73,3.11,5.92,-0.85,982.75,36.15
3911805,0.05,0.1,1.02,3.23,2.01,-0.73,982.73,36.15
3911843,0.0,0.05,0.79,3.11,4.21,-1.28,982.7,36.16
3911881,0.0,0.07,0.94,2.87,0.67,-1.16,982.83,36.16
3911919,0.03,0.06,0.9,2.26,3.72,-1.16,982.83,36.16
3911957,0.06,0.06,0.98,1.65,-0.49,-1.4,982.87,36.17
3911995,-0.03,0.04,1.01,1.71,2.5,-1.16,982.83,36.16
3912033,0.04,0.04,0.86,1.4,1.65,-0.98,982.83,36.16
3912071,0.02,0.1,1.1,1.89,1.46,-1.46,982.76,36.16
3912121,-0.02,0.04,0.99,1.71,2.01,-0.98,982.88,36.16
3912159,-0.01,0.06,1.03,2.01,1.71,-1.1,982.71,36.15
3912197,-0.03,0.03,1.0,2.14,2.69,-1.16,982.83,36.17
3912235,-0.05,0.04,1.0,1.89,2.81,-0.55,982.81,36.16
3912273,0.03,0.05,0.85,1.4,4.21,-0.55,982.72,36.16
3912311,-0.0,0.04,1.01,2.2,3.78,-0.79,982.68,36.16
3912349,-0.0,0.03,0.88,1.95,3.78,-0.31,982.76,36.16
3912387,-0.03,0.05,1.02,2.56,2.38,-0.24,982.72,36.15
3912425,-0.04,0.03,0.92,2.38,4.27,-0.31,982.71,36.15
3912463,-0.03,0.05,1.04,2.14,2.62,0.06,982.69,36.16
3912540,0.01,0.03,1.03,0.98,6.23,0.24,982.69,36.14
3912578,0.02,0.07,1.13,1.04,4.46,0.55,982.66,36.15
3912616,0.0,0.05,1.02,0.49,5.68,1.04,982.65,36.15
3912706,0.01,0.06,1.09,-0.49,3.23,1.34,982.64,36.11
3912744,-0.04,0.05,1.12,0.12,4.15,1.59,982.76,36.13
3912782,0.03,0.03,1.07,0.06,3.05,1.83,982.77,36.13
3912820,0.01,0.07,1.18,0.85,1.28,1.77,982.71,36.14
3912858,0.02,0.03,1.04,1.16,1.77,2.08,982.76,36.14
3912896,-0.01,0.02,1.05,1.22,0.18,2.2,982.8,36.15
3912934,-0.0,0.02,1.09,1.89,1.53,2.26,982.77,36.14
3912984,0.01,0.01,1.1,2.62,0.31,1.95,982.68,36.14
3913022,-0.01,0.05,1.06,2.14,2.75,2.32,982.75,36.15
3913060,-0.03,0.04,0.94,2.56,2.2,2.62,982.66,36.16
3913098,-0.01,0.05,1.07,3.17,1.53,2.5,982.79,36.18
3913136,-0.03,0.02,0.98,3.42,2.01,2.5,982.72,36.15
3913174,-0.02,0.03,1.05,3.6,1.34,2.93,982.79,36.17
3913212,0.0,0.04,0.85,3.05,3.85,2.93,982.81,36.17
3913250,-0.01,0.07,1.09,3.97,1.22,2.87,982.79,36.17
3913288,-0.0,0.02,0.81,3.23,5.68,3.11,982.68,36.17
3913338,-0.0,0.08,1.02,3.91,2.93,2.99,982.76,36.16
3913376,0.01,0.01,0.82,3.48,6.9,2.69,982.68,36.17
3913414,0.06,0.04,0.95,2.69,3.48,2.81,982.76,36.15
3913452,-0.01,0.03,0.97,2.75,5.13,2.87,982.7,36.16
3913490,0.03,-0.01,0.88,1.83,6.23,2.69,982.72,36.18
3913528,0.06,0.06,1.05,1.28,6.53,2.38,982.67,36.17
3913566,-0.01,0.01,0.84,0.85,8.48,2.81,982.7,36.17
3913604,-0.04,0.04,0.94,0.18,8.0,2.62,982.69,36.17
3913642,-0.04,0.02,0.9,0.0,9.34,2.38,982.7,36.17
3913680,0.01,0.03,1.14,-0.43,8.24,2.38,982.6,36.18
3913730,0.01,0.04,1.03,-0.92,9.34,2.69,982.65,36.17
3913768,0.06,0.04,1.05,-0.92,10.25,2.44,982.65,36.18
3913806,-0.03,0.03,1.13,-0.55,8.85,2.44,982.56,36.17
3913844,0.05,0.01,1.14,-1.04,10.38,2.99,982.53,36.17
3913882,0.03,0.03,1.15,-1.22,7.75,3.17,982.51,36.17
3913920,-0.01,0.05,1.22,-1.28,8.36,2.99,982.54,36.17
3913958,0.02,0.04,1.11,-1.59,7.93,2.87,982.57,36.16
3913996,0.05,0.06,1.28,-1.53,5.92,2.93,982.52,36.17
3914034,0.04,0.02,1.21,-1.16,5.92,2.75,982.48,36.17
3914072,0.06,0.03,1.2,-1.46,5.98,2.81,982.47,36.17
3914122,0.02,0.03,1.21,-0.98,7.14,2.44,982.51,36.15
3914160,0.03,0.04,1.14,-1.04,7.2,2.2,982.49,36.18
3914198,0.01,0.05,1.17,-0.67,5.92,1.95,982.5,36.17
3914236,0.03,0.03,1.12,-0.61,6.23,1.95,982.43,36.18
3914274,0.05,0.04,1.16,-0.79,5.43,1.77,982.41,36.17
3914312,0.05,0.05,1.13,-0.73,5.43,1.59,982.4,36.18
3914350,0.03,0.06,1.12,-0.92,6.1,1.46,982.41,36.18
3914388,0.05,0.06,1.16,-1.1,6.29,1.46,982.31,36.16
3914426,0.03,0.07,1.24,-0.79,5.68,0.98,982.34,36.17
3914464,0.03,0.07,1.18,-0.67,6.84,0.73,982.29,36.18
3914514,0.04,0.07,1.23,-0.43,7.87,0.67,982.29,36.17
3914552,0.07,0.08,1.21,-0.18,7.2,0.18,982.31,36.17
3914590,0.01,0.09,1.22,0.18,7.39,0.18,982.34,36.17
3914628,0.05,0.06,1.15,0.55,8.79,-0.06,982.29,36.18
3914666,0.07,0.06,1.16,0.92,8.24,-0.12,982.28,36.17
3914704,0.05,0.09,1.22,1.59,6.84,-0.55,982.24,36.18
3914742,0.02,0.09,1.18,1.71,6.23,-0.43,982.27,36.18
3914780,0.03,0.06,1.17,1.95,6.65,-0.49,982.28,36.19
3914818,0.04,0.06,1.12,2.08,7.2,-0.79,982.31,36.18
3914856,0.02,0.07,1.13,2.44,5.68,-0.98,982.37,36.19
3914906,0.04,0.07,1.15,2.75,5.19,-0.79,982.34,36.18
3914944,0.04,0.05,1.18,3.05,4.7,-1.22,982.32,36.17
3914982,0.0,0.08,1.05,2.93,4.09,-1.04,982.34,36.19
3915020,-0.01,0.08,1.13,3.66,0.12,-0.79,982.35,36.19
3915058,-0.01,0.05,1.06,3.3,-0.12,-0.73,982.32,36.19
3915096,0.03,0.05,1.11,3.17,-2.2,-0.67,982.25,36.18
3915134,-0.01,0.05,1.07,3.91,-2.08,-0.61,982.25,36.19
3915172,-0.01,0.04,0.94,3.36,-0.67,-0.55,982.29,36.19
3915210,-0.01,0.05,1.04,3.66,-1.65,-0.67,982.25,36.19
3915248,-0.01,0.03,0.95,3.6,-1.83,-0.67,982.27,36.17
3915298,-0.06,0.05,0.9,3.48,-1.77,-0.12,982.26,36.17
3915336,-0.03,0.02,0.88,3.48,0.73,-0.49,982.2,36.17
3915374,-0.03,0.04,0.91,3.42,-1.4,-0.43,982.25,36.17
3915412,-0.04,0.04,0.92,3.3,-0.24,0.0,982.19,36.16
3915450,-0.04,0.04,0.93,3.3,0.12,0.31,982.16,36.17
3915488,-0.03,0.02,0.92,3.23,0.73,0.12,982.17,36.17
3915526,-0.06,0.03,0.91,3.11,-0.55,0.55,982.15,36.18
3915564,-0.06,0.03,0.94,2.99,-0.06,0.98,982.11,36.17
3915602,-0.06,0.02,0.89,2.62,0.43,0.98,982.2,36.19
3915678,-0.01,0.03,0.93,2.81,0.79,1.28,982.13,36.15
3915716,-0.04,0.02,0.92,3.17,1.34,1.53,982.23,36.15
3915754,-0.03,0.03,0.91,3.3,1.77,1.65,982.27,36.17
3915843,-0.05,0.04,0.91,3.54,-0.18,2.08,982.25,36.13
3915881,-0.01,0.04,0.91,3.66,1.04,1.89,982.27,36.15
3915919,-0.02,0.04,0.9,4.39,1.16,2.32,982.28,36.16
3915957,-0.06,0.03,0.91,4.09,-0.85,2.87,982.31,36.18
3915995,-0.06,0.03,0.84,3.91,-0.12,3.23,982.24,36.16
3916033,-0.05,0.03,0.88,3.54,-0.18,3.48,982.26,36.16
3916071,-0.06,0.03,0.82,3.11,-0.67,3.66,982.19,36.16
3916121,-0.0,0.03,0.85,2.32,-0.67,3.78,982.24,36.15
3916159,0.0,0.02,0.74,1.71,2.38,3.85,982.27,36.17
3916197,0.02,0.02,0.77,1.1,1.77,4.27,982.26,36.17
3916235,-0.01,0.02,0.88,0.55,1.4,4.46,982.16,36.17
3916273,-0.03,-0.0,0.78,-0.24,3.23,4.33,982.14,36.18
3916311,-0.01,0.03,0.93,-0.92,2.2,4.39,982.06,36.18
3916349,-0.0,0.02,0.95,-1.04,2.14,4.15,982.07,36.17
3916387,-0.03,-0.0,0.91,-2.38,2.56,4.33,982.04,36.18
3916425,0.02,0.04,1.1,-2.87,2.81,4.46,982.02,36.17
3916463,0.02,0.01,1.18,-3.23,5.74,4.39,982.02,36.19
3916513,-0.0,0.04,1.19,-4.27,4.46,4.7,981.99,36.16
3916551,-0.0,0.04,1.31,-3.72,4.15,4.39,981.93,36.17
3916589,-0.0,0.01,1.2,-4.21,5.19,3.91,981.93,36.18
3916627,0.02,0.04,1.28,-3.97,5.31,4.09,981.95,36.18
3916665,0.03,0.01,1.29,-3.36,7.93,3.97,981.87,36.19
3916703,0.02,0.0,1.25,-3.17,8.06,3.48,981.84,36.18
3916741,0.01,0.02,1.34,-2.81,10.44,3.17,981.93,36.18
3916779,0.03,0.02,1.31,-2.2,10.99,3.11,981.89,36.17
3916817,-0.0,0.04,1.31,-1.83,9.58,2.87,981.92,36.17
3916867,0.02,0.02,1.3,-0.67,10.68,2.69,981.81,36.17
3916905,0.03,0.03,1.3,0.0,9.09,2.44,981.84,36.18
3916943,0.02,0.02,1.28,0.61,9.64,2.44,981.87,36.17
3916981,0.02,0.02,1.21,0.85,10.74,2.2,981.86,36.18
3917019,0.02,0.03,1.22,1.71,10.62,2.01,981.9,36.18
3917057,0.03,0.02,1.21,2.38,8.79,2.2,981.91,36.2
3917095,0.01,0.01,1.23,2.69,6.96,1.95,981.89,36.19
3917133,0.04,0.02,1.13,2.99,4.64,1.95,981.82,36.18
3917171,0.04,0.03,1.1,2.93,2.75,1.59,981.86,36.19
3917209,0.03,0.0,0.96,2.99,1.1,1.22,981.76,36.19
3917259,0.02,0.04,1.04,2.99,-1.16,0.79,981.75,36.17
3917297,0.01,0.02,0.99,2.69,-0.61,0.85,981.75,36.17
3917335,0.03,0.02,0.94,2.32,-1.34,0.61,981.73,36.18
3917373,0.0,0.05,0.95,1.71,-1.28,0.0,981.73,36.18
3917411,0.01,0.03,0.82,0.85,1.46,-0.18,981.67,36.19
3917449,0.0,0.04,0.9,0.18,-0.55,-0.43,981.7,36.18
3917487,0.01,0.05,1.0,-0.79,2.38,-0.73,981.54,36.19
3917525,-0.01,0.05,1.01,-1.4,1.59,-0.67,981.57,36.17
3917563,-0.02,0.07,1.2,-1.53,1.59,-0.73,981.56,36.19
3917601,0.0,0.07,1.19,-1.71,2.87,-0.98,981.63,36.2
3917651,-0.01,0.09,1.27,-1.34,2.56,-0.85,981.59,36.17
3917689,-0.0,0.09,1.26,-0.98,2.87,-1.1,981.62,36.18
3917727,-0.02,0.09,1.27,-0.43,1.89,-1.16,981.52,36.18
3917765,-0.0,0.09,1.26,0.24,1.71,-1.34,981.57,36.19
3917803,-0.01,0.1,1.22,0.61,3.78,-1.46,981.51,36.19
3917841,0.0,0.12,1.22,1.46,3.3,-1.53,981.52,36.18
3917879,-0.02,0.1,1.3,2.5,2.93,-1.22,981.6,36.2
3917917,-0.01,0.1,1.12,3.17,3.36,-0.98,981.56,36.19
3917955,-0.03,0.14,1.23,4.21,1.53,-1.1,981.52,36.2
3917993,0.0,0.09,1.11,4.33,1.59,-0.79,981.57,36.2
3918043,-0.02,0.13,1.07,4.33,-1.16,-0.73,981.59,36.18
3918081,-0.01,0.11,1.0,4.39,0.06,-0.55,981.6,36.18
3918119,-0.01,0.1,0.85,4.21,-0.37,-0.55,981.56,36.19
3918157,-0.03,0.12,0.85,4.27,-0.73,-0.61,981.53,36.17
3918195,-0.04,0.09,0.67,4.09,1.83,-0.55,981.51,36.2
3918233,-0.02,0.13,0.66,3.85,2.81,-0.85,981.55,36.2
3918271,-0.01,0.13,0.65,4.46,2.2,-0.79,981.57,36.2
3918309,-0.02,0.12,0.63,4.88,1.28,-0.73,981.47,36.19
3918347,-0.02,0.11,0.67,5.13,2.81,-0.61,981.48,36.2
3918397,-0.01,0.1,0.66,5.55,3.78,-0.79,981.41,36.18
3918435,-0.03,0.11,0.69,5.8,3.36,-0.61,981.42,36.19
3918473,-0.04,0.1,0.65,6.16,4.03,-0.49,981.41,36.19
3918511,-0.03,0.11,0.67,6.29,4.94,-0.43,981.4,36.19
3918549,-0.02,0.09,0.66,6.35,5.37,-0.24,981.37,36.2
3918587,-0.02,0.08,0.66,5.86,4.09,-0.06,981.35,36.21
3918625,-0.05,0.09,0.66,5.37,4.52,0.24,981.29,36.18
3918663,-0.03,0.07,0.72,4.94,4.88,0.43,981.27,36.18
3918701,-0.04,0.07,0.76,4.76,5.37,0.49,981.19,36.18
3918739,-0.03,0.06,0.8,4.39,5.74,0.61,981.25,36.19
3918815,-0.03,0.06,0.82,4.39,6.77,1.1,981.24,36.16
3918853,-0.02,0.06,0.8,4.58,6.96,1.04,981.24,36.19
3918891,-0.04,0.04,0.8,4.46,7.14,1.22,981.22,36.19
3918980,-0.04,0.04,0.79,4.15,7.63,1.46,981.13,36.14
3919018,-0.03,0.03,0.8,4.09,7.69,1.65,981.09,36.16
3919056,-0.03,0.03,0.88,3.97,6.59,1.89,981.09,36.16
3919094,-0.02,0.02,0.91,3.85,7.08,2.08,981.14,36.17
3919133,-0.06,0.03,0.9,3.85,5.37,2.26,981.08,36.18
3919171,-0.02,0.03,0.94,3.78,5.07,2.56,981.12,36.18
3919209,-0.01,0.02,0.94,3.72,4.33,2.44,981.04,36.18
3919258,-0.03,0.01,0.88,3.48,3.97,2.81,981.0,36.17
3919296,-0.03,0.02,0.88,3.85,3.6,2.87,981.03,36.18
3919334,-0.03,0.01,0.85,3.6,3.97,2.93,981.05,36.18
3919372,-0.02,0.01,0.85,3.6,3.23,2.99,981.01,36.19
3919410,-0.03,0.01,0.85,3.42,3.36,2.99,980.99,36.19
3919449,-0.01,0.0,0.85,3.48,4.33,2.99,980.98,36.2
3919487,-0.02,0.0,0.89,3.23,4.39,2.87,980.95,36.17
3919525,-0.01,0.0,0.89,2.81,4.52,2.81,980.94,36.19
3919563,-0.03,0.02,0.92,2.75,4.64,2.75,980.89,36.19
3919601,-0.02,0.01,0.85,2.2,5.8,2.69,980.92,36.19
3919650,-0.01,0.03,0.93,2.14,5.49,2.75,980.92,36.18
3919689,-0.02,0.02,0.86,2.26,7.39,2.38,980.9,36.2
3919727,-0.01,0.03,0.92,1.71,6.04,2.5,980.89,36.21
3919765,-0.01,0.05,0.94,1.77,6.65,2.5,980.84,36.2
3919803,-0.01,0.05,0.99,1.46,5.37,2.38,980.84,36.2
3919841,-0.01,0.06,1.05,0.85,5.49,2.38,980.83,36.2
3919879,-0.0,0.05,1.1,1.4,4.39,2.38,980.86,36.2
3919917,-0.02,0.06,1.1,1.46,4.15,2.32,980.87,36.21
3919955,-0.01,0.08,1.09,1.95,4.03,2.26,980.88,36.19
3919993,-0.02,0.09,1.1,2.69,3.54,2.44,980.83,36.21
3920043,0.0,0.07,1.07,3.72,2.44,2.14,980.82,36.17
3920081,-0.04,0.08,1.04,4.46,1.83,2.32,980.89,36.19
3920119,-0.01,0.08,1.0,5.31,1.83,2.44,980.82,36.19
3920157,-0.01,0.08,0.98,6.04,0.79,2.14,980.82,36.19
3920195,-0.01,0.08,0.92,6.41,1.53,1.95,980.85,36.19
3920233,-0.01,0.08,0.89,6.84,0.43,2.01,980.8,36.21
3920271,-0.01,0.08,0.83,6.77,0.85,1.71,980.84,36.2
3920309,-0.03,0.08,0.82,6.84,1.1,1.53,980.82,36.19
3920347,-0.0,0.07,0.78,6.9,2.26,1.34,980.88,36.2
3920397,-0.02,0.07,0.74,6.71,1.28,1.34,980.96,36.19
3920435,-0.04,0.06,0.68,6.59,1.59,1.28,980.95,36.21
3920473,-0.02,0.07,0.65,6.29,2.01,1.22,980.89,36.19
3920511,-0.01,0.06,0.61,5.55,2.69,1.04,980.92,36.2
3920549,-0.01,0.06,0.59,5.37,2.14,0.98,980.84,36.19
3920587,-0.03,0.05,0.65,4.82,2.81,0.85,980.8,36.21
3920625,-0.01,0.05,0.65,4.09,4.46,0.92,980.84,36.21
3920663,-0.03,0.05,0.71,3.85,3.91,0.92,980.84,36.2
3920701,-0.05,0.03,0.68,3.42,4.21,0.79,980.89,36.21
3920739,-0.02,0.03,0.72,3.23,3.72,0.67,980.89,36.2
3920789,-0.01,0.02,0.71,3.05,5.37,0.61,980.84,36.19
3920827,-0.02,0.02,0.66,2.87,3.6,0.85,980.8,36.18
3920865,-0.02,0.03,0.73,2.93,3.91,0.61,980.78,36.2
3920903,-0.03,-0.0,0.7,2.69,4.88,0.61,980.82,36.19
3920941,-0.04,0.0,0.78,2.62,4.21,0.73,980.78,36.2
3920979,-0.07,-0.0,0.78,2.14,5.68,0.43,980.71,36.2
3921017,-0.04,0.0,0.85,1.46,4.94,0.67,980.7,36.19
3921055,-0.03,0.0,0.91,0.98,5.07,1.04,980.68,36.19
3921093,-0.04,-0.02,0.89,0.18,4.82,1.1,980.65,36.2
3921131,-0.03,-0.01,0.96,-0.49,4.64,1.04,980.7,36.2
3921181,-0.04,-0.02,0.98,-1.04,4.58,1.1,980.72,36.18
3921219,-0.03,-0.02,1.06,-1.22,3.91,1.4,980.72,36.21
3921257,-0.02,-0.02,1.08,-1.34,4.33,1.22,980.67,36.19
3921295,-0.04,-0.01,1.17,-1.22,2.81,1.4,980.7,36.2
3921333,-0.04,-0.02,1.14,-1.22,2.81,1.53,980.58,36.2
3921371,-0.03,-0.0,1.2,-1.22,1.65,1.71,980.71,36.2
3921409,-0.03,-0.01,1.25,-0.92,1.83,1.59,980.66,36.2
3921447,-0.03,-0.02,1.15,-0.55,1.16,1.53,980.64,36.21
3921485,-0.03,0.01,1.26,0.12,-0.61,1.77,980.59,36.21
3921523,-0.04,-0.01,1.17,0.61,0.37,1.89,980.61,36.22
3921573,-0.02,-0.0,1.22,0.79,-0.24,1.71,980.57,36.19
3921611,-0.03,0.0,1.19,1.1,-0.18,1.65,980.65,36.21
3921649,-0.05,-0.0,1.18,1.1,-0.61,1.71,980.63,36.19
3921687,-0.04,-0.01,1.15,1.22,0.55,1.83,980.58,36.2
3921725,-0.03,0.01,1.2,1.46,0.18,1.71,980.66,36.2
3921763,-0.05,0.0,1.13,1.59,0.98,1.89,980.66,36.21
3921801,-0.05,0.01,1.13,1.53,0.31,2.08,980.59,36.2
3921839,-0.05,0.02,1.2,1.77,2.38,1.89,980.67,36.19
3921877,-0.04,-0.01,1.11,1.89,3.3,2.14,980.68,36.2
3921953,-0.04,0.04,1.14,2.26,5.19,2.69,980.62,36.18
3921991,-0.03,0.02,1.09,2.26,4.94,2.5,980.62,36.18
3922029,-0.03,0.04,1.2,2.69,3.11,2.99,980.56,36.17
3922118,-0.01,0.04,1.26,3.11,3.6,3.11,980.59,36.15
3922156,-0.01,0.03,1.11,3.48,5.86,3.17,980.55,36.17
3922194,-0.03,0.03,1.11,3.72,5.31,3.11,980.59,36.17
3922232,-0.03,0.03,1.04,4.33,8.18,3.05,980.65,36.18
3922270,-0.03,0.02,0.96,4.21,8.18,3.05,980.69,36.19
3922308,-0.03,0.04,0.97,4.33,8.3,3.11,980.62,36.18
3922346,-0.01,0.03,0.87,4.52,8.18,3.05,980.68,36.18
3922396,0.0,0.03,0.87,4.15,7.63,3.3,980.7,36.17
3922434,0.0,0.02,0.83,3.48,7.39,3.3,980.73,36.2
3922472,-0.0,0.03,0.83,2.75,7.51,3.17,980.69,36.18
3922510,-0.0,0.02,0.8,1.95,8.0,3.11,980.65,36.2
3922548,0.0,0.02,0.82,1.34,7.14,2.99,980.58,36.2
3922586,-0.0,0.01,0.8,0.85,7.32,2.87,980.6,36.19
3922624,0.01,0.02,0.83,0.67,7.08,2.75,980.64,36.2
3922662,0.01,0.02,0.83,0.31,7.32,2.81,980.63,36.19
3922700,0.01,0.02,0.91,0.43,5.37,2.81,980.62,36.2
3922738,0.01,0.01,0.91,0.12,6.16,2.81,980.58,36.2
3922788,0.04,0.02,1.01,-0.24,3.66,2.5,980.51,36.19
3922826,-0.01,0.01,1.02,-0.37,3.72,2.5,980.6,36.19
3922864,0.01,0.0,1.02,-0.61,2.08,2.38,980.52,36.19
3922902,0.03,0.01,1.12,-0.55,2.2,2.01,980.53,36.18
3922940,0.02,0.0,1.05,-0.49,2.14,2.01,980.55,36.19
3922978,0.01,0.02,1.14,-0.43,1.34,1.71,980.51,36.2
3923016,-0.01,-0.01,1.04,-0.31,2.62,1.46,980.53,36.19
3923054,-0.02,0.01,1.08,-0.18,1.34,1.34,980.53,36.2
3923092,-0.01,0.0,1.08,0.06,2.32,1.22,980.52,36.21
3923130,-0.01,-0.0,1.02,0.31,2.56,1.1,980.48,36.2
3923180,0.01,0.0,1.04,0.67,4.21,0.85,980.47,36.19
3923218,-0.01,-0.01,1.01,0.85,3.97,0.67,980.53,36.21
3923256,-0.01,-0.01,0.98,1.04,4.58,0.67,980.5,36.19
3923294,-0.01,-0.0,0.97,1.16,4.58,0.24,980.54,36.22
3923332,-0.02,-0.01,1.04,1.65,4.88,0.12,980.5,36.21
3923370,-0.01,-0.02,1.01,1.65,5.62,0.18,980.53,36.21
3923408,0.0,-0.01,1.05,1.83,5.68,0.0,980.43,36.21
3923446,-0.0,-0.01,1.02,1.95,6.29,-0.06,980.44,36.2
3923484,-0.02,0.0,1.04,2.26,6.35,0.0,980.4,36.2
3923522,-0.01,0.0,1.05,2.2,6.77,-0.12,980.44,36.21
3923572,0.0,-0.01,1.05,2.38,7.2,-0.18,980.41,36.2
3923610,-0.02,0.0,1.04,2.2,7.08,-0.12,980.43,36.21
3923648,-0.02,-0.01,1.0,2.08,7.14,-0.31,980.44,36.21
3923686,-0.02,0.0,1.01,2.14,5.74,-0.12,980.51,36.21
3923724,-0.03,-0.0,0.97,1.53,5.8,-0.12,980.38,36.19
3923762,-0.03,-0.0,0.95,1.1,4.94,-0.06,980.41,36.21
3923800,-0.03,0.0,0.98,0.55,4.94,-0.06,980.37,36.2
3923838,-0.02,-0.0,0.97,-0.18,4.58,0.0,980.36,36.2
3923876,-0.03,-0.0,0.99,-0.92,4.03,0.06,980.47,36.21
3923926,-0.04,-0.0,1.02,-1.16,4.03,0.24,980.31,36.18
3923964,-0.04,0.0,1.03,-1.59,4.09,0.18,980.38,36.21
3924002,-0.03,0.0,1.05,-1.77,3.91,0.31,980.33,36.21
3924040,-0.03,0.02,1.07,-1.71,3.6,0.31,980.42,36.2
3924078,-0.04,0.01,1.06,-1.65,4.21,0.37,980.27,36.2
3924116,-0.01,0.01,1.12,-1.28,3.85,0.43,980.3,36.21
3924154,-0.02,0.02,1.13,-1.1,4.09,0.31,980.33,36.2
3924192,-0.03,0.02,1.12,-0.85,4.39,0.49,980.28,36.22
3924230,-0.03,0.02,1.11,-0.43,4.76,0.67,980.31,36.21
3924268,-0.04,0.02,1.11,-0.31,5.13,0.49,980.23,36.2
3924318,-0.02,0.03,1.13,-0.12,4.39,0.73,980.22,36.19
3924356,-0.02,0.03,1.11,0.24,4.09,0.67,980.29,36.21
3924394,-0.02,0.03,1.13,0.31,3.72,0.61,980.23,36.21
3924432,-0.03,0.03,1.13,0.49,3.23,0.85,980.25,36.22
3924470,-0.04,0.02,1.11,0.49,2.38,0.92,980.19,36.21
3924508,-0.05,0.03,1.13,0.37,2.81,0.85,980.16,36.21
3924546,-0.03,0.03,1.14,0.67,2.93,0.73,980.15,36.2
3924584,-0.03,0.04,1.17,0.92,1.95,1.04,980.17,36.21
3924622,-0.04,0.03,1.14,1.1,3.23,1.04,980.18,36.21
3924660,-0.04,0.03,1.12,1.28,2.38,1.16,980.19,36.21
3924710,-0.03,0.04,1.06,1.28,2.93,1.1,980.23,36.21
3924748,-0.03,0.05,1.07,1.53,1.4,1.28,980.15,36.21
3924786,-0.03,0.03,1.06,1.83,2.62,1.34,980.16,36.21
3924824,-0.02,0.04,1.09,1.65,1.16,1.4,980.11,36.19
3924862,-0.05,0.03,1.15,1.77,2.08,1.71,980.13,36.21
3924900,-0.03,0.03,1.15,1.53,2.44,1.59,980.06,36.22
3924938,-0.05,0.06,1.26,1.53,3.42,1.53,980.06,36.21
3924976,-0.03,0.04,1.2,1.4,4.88,1.4,980.06,36.21
3925014,-0.04,0.05,1.31,0.98,3.91,1.34,980.05,36.22
3925089,-0.06,0.07,1.25,1.04,4.94,1.89,980.02,36.19
3925127,-0.04,0.06,1.27,1.28,5.13,1.95,980.09,36.21
3925165,-0.04,0.04,1.25,1.53,5.31,1.83,980.04,36.2
3925255,-0.01,0.05,1.11,2.26,4.09,2.38,980.06,36.16
3925293,-0.05,0.05,1.08,2.87,3.72,2.69,980.12,36.19
3925331,-0.03,0.03,0.86,2.99,2.81,2.56,980.09,36.18
3925369,-0.03,0.04,0.98,3.42,0.98,2.81,980.03,36.2
3925407,-0.01,-0.0,0.84,3.42,2.26,2.81,980.03,36.2
3925445,-0.02,0.03,0.9,3.48,0.18,2.75,979.97,36.19
3925483,-0.03,0.03,0.89,3.72,2.08,2.93,979.95,36.19
3925533,-0.04,0.03,0.91,3.54,0.92,2.69,979.91,36.19
3925571,-0.05,0.01,0.87,3.54,2.14,2.62,979.92,36.19
3925609,-0.02,0.02,0.79,2.87,2.56,2.44,979.95,36.2
3925647,-0.04,0.04,0.85,3.11,3.11,2.69,979.92,36.2
3925685,-0.03,0.01,0.74,2.56,3.72,2.75,979.92,36.19
3925723,-0.02,0.02,0.86,2.81,1.71,2.87,979.84,36.2
3925761,-0.03,0.0,0.86,2.56,4.03,2.87,979.89,36.21
3925799,-0.01,0.01,0.85,2.38,1.53,3.05,979.77,36.19
3925837,-0.03,0.04,1.0,2.08,1.65,2.81,979.78,36.21
3925875,-0.02,0.0,0.97,1.71,1.4,3.17,979.86,36.21
3925925,-0.01,0.03,1.13,2.01,1.77,3.36,979.78,36.19
3925963,-0.01,0.02,1.04,2.14,2.69,3.3,979.82,36.19
3926001,-0.04,0.03,1.02,2.32,1.16,3.54,979.88,36.19
3926039,-0.05,0.02,0.96,2.44,1.34,3.78,979.79,36.19
3926077,0.01,0.01,0.96,2.38,-0.24,3.78,979.77,36.21
3926115,-0.03,0.02,0.83,2.14,-0.18,3.72,979.76,36.21
3926153,-0.01,0.03,0.84,2.26,0.06,3.78,979.82,36.21
3926191,0.01,0.01,0.84,1.89,1.22,3.97,979.82,36.21
3926229,-0.0,0.0,0.9,1.77,-0.73,3.78,979.76,36.19
3926267,-0.04,0.02,0.93,1.83,0.61,3.97,979.76,36.22
3926317,-0.01,0.03,0.92,1.83,0.79,3.85,979.74,36.2
3926355,0.0,0.03,0.95,1.95,1.59,3.6,979.76,36.2
3926393,0.0,0.01,0.8,2.01,1.4,3.6,979.72,36.2
3926431,-0.01,0.03,0.82,2.26,1.28,3.6,979.7,36.21
3926469,-0.01,0.02,0.82,2.32,3.6,3.48,979.73,36.21
3926507,-0.0,0.03,0.84,2.01,3.11,3.23,979.7,36.21
3926545,-0.04,0.05,0.9,1.83,3.17,3.48,979.64,36.2
3926583,-0.04,0.02,0.88,1.83,5.31,3.72,979.71,36.21
3926621,-0.0,0.03,0.98,1.77,5.92,3.36,979.62,36.21
3926659,-0.02,0.04,0.97,1.65,6.23,3.48,979.64,36.21
3926709,-0.02,0.04,0.97,1.77,7.02,3.78,979.68,36.21
3926747,-0.01,0.04,1.02,1.95,7.26,3.6,979.59,36.2
3926785,-0.01,0.05,0.98,1.59,8.06,3.66,979.61,36.21
3926823,-0.03,0.05,1.05,2.08,7.39,3.72,979.61,36.22
3926861,-0.02,0.02,0.99,2.08,9.22,3.66,979.63,36.21
3926899,-0.0,0.04,1.04,2.26,8.36,3.3,979.65,36.22
3926937,-0.01,0.04,1.04,2.44,8.73,3.78,979.67,36.22
3926975,-0.0,0.03,0.97,2.38,8.18,3.66,979.66,36.22
3927013,-0.0,0.04,0.98,2.44,7.63,3.3,979.65,36.22
3927051,0.01,0.03,0.91,2.56,5.92,3.36,979.63,36.2
3927101,0.01,0.04,0.87,2.44,4.27,3.48,979.56,36.21
3927139,0.02,0.03,0.8,2.14,3.66,3.05,979.49,36.21
3927177,0.01,0.04,0.82,2.01,1.95,2.93,979.56,36.21
3927215,0.01,0.03,0.86,1.89,1.89,2.93,979.51,36.22
3927253,0.02,0.02,0.89,1.95,0.85,2.69,979.52,36.21
3927291,0.02,0.02,0.94,2.08,0.98,2.38,979.46,36.21
3927329,-0.02,0.03,0.92,2.2,0.43,2.08,979.48,36.21
3927367,0.0,0.04,0.96,2.2,0.37,1.95,979.42,36.21
3927405,0.01,0.04,1.01,2.26,0.98,1.46,979.38,36.22
3927443,0.0,0.03,1.01,2.08,1.71,1.28,979.44,36.23
3927493,0.0,0.03,1.06,2.44,1.71,1.22,979.41,36.19
3927531,-0.02,0.03,1.04,2.69,2.56,1.04,979.45,36.21
3927569,-0.01,0.04,1.02,2.93,2.5,0.85,979.47,36.23
3927607,-0.02,0.04,0.97,3.11,3.3,0.79,979.44,36.21
3927645,0.0,0.03,0.92,3.05,3.6,0.67,979.44,36.21
3927683,-0.01,0.03,0.94,2.93,3.17,0.55,979.41,36.21
3927721,-0.03,0.03,0.9,2.87,3.6,0.61,979.37,36.21
3927759,-0.01,0.03,0.92,2.81,3.05,0.73,979.45,36.22
3927797,-0.03,0.03,0.89,2.56,3.48,0.61,979.39,36.22
3927835,-0.03,0.04,0.94,2.44,2.75,0.49,979.41,36.23
3927885,-0.01,0.03,0.96,2.14,3.11,0.43,979.41,36.22
3927923,-0.01,0.04,0.96,2.01,2.56,0.43,979.37,36.21
3927961,-0.02,0.04,0.94,1.89,3.23,0.49,979.44,36.23
3927999,-0.02,0.04,0.97,1.83,2.62,0.61,979.35,36.2
3928037,-0.03,0.03,0.95,1.89,2.26,0.79,979.38,36.22
3928075,-0.04,0.05,0.95,1.83,1.04,0.73,979.34,36.21
3928113,-0.01,0.05,1.01,1.77,1.34,0.79,979.33,36.21
3928151,-0.0,0.04,0.99,1.89,0.18,0.85,979.31,36.22
3928189,-0.02,0.05,1.02,1.53,-0.18,1.1,979.24,36.21
3928265,-0.02,0.06,1.04,1.4,-0.06,0.92,979.28,36.17
3928303,-0.03,0.06,1.01,1.53,-0.24,1.04,979.33,36.21
3928341,-0.03,0.06,1.0,1.28,0.31,1.16,979.33,36.21
3928430,-0.02,0.06,1.0,1.34,1.95,1.22,979.25,36.17
3928468,-0.03,0.07,1.03,1.65,2.2,1.1,979.26,36.2
3928506,-0.03,0.06,1.03,1.59,3.78,1.28,979.24,36.18
3928544,-0.06,0.07,1.04,1.59,3.97,1.4,979.31,36.21
3928582,-0.02,0.06,1.06,1.83,5.86,1.4,979.29,36.2
3928620,-0.03,0.06,1.0,1.95,5.49,1.59,979.29,36.2
3928658,-0.05,0.07,1.08,2.32,6.04,1.59,979.22,36.21
3928708,-0.04,0.07,1.01,3.05,6.77,2.01,979.23,36.19
3928746,-0.04,0.08,1.06,3.54,5.98,1.95,979.17,36.2
3928784,-0.04,0.06,1.01,4.03,5.92,2.32,979.28,36.2
3928822,-0.04,0.06,0.98,4.58,6.29,2.38,979.25,36.21
3928860,-0.05,0.07,0.92,5.37,6.71,2.5,979.25,36.21
3928898,-0.02,0.07,0.97,5.74,7.51,2.62,979.19,36.2
3928936,-0.01,0.05,0.88,5.8,7.69,2.99,979.22,36.2
3928974,-0.04,0.07,0.89,6.16,5.68,3.17,979.16,36.2
3929012,-0.05,0.05,0.91,6.23,7.14,3.3,979.19,36.21
3929050,-0.04,0.05,0.86,5.86,6.84,3.42,979.2,36.21
3929100,-0.05,0.06,0.93,5.62,6.29,3.6,979.12,36.19
3929138,-0.06,0.04,0.87,5.13,6.53,3.97,979.16,36.2
3929176,-0.02,0.05,0.97,4.58,5.74,4.03,979.11,36.21
3929214,-0.03,0.04,0.97,4.52,6.04,4.27,979.21,36.21
3929252,-0.04,0.03,0.96,4.15,5.13,4.58,979.16,36.22
3929290,-0.04,0.06,0.97,3.91,3.05,4.7,979.07,36.2
3929328,-0.04,0.04,0.98,4.03,2.38,4.88,979.15,36.21
3929366,-0.04,0.02,0.96,3.78,1.16,4.76,979.16,36.22
3929404,-0.02,0.01,0.95,3.85,2.44,5.19,979.11,36.22
3929442,-0.01,0.03,0.94,3.85,2.38,5.0,979.17,36.22
3929492,-0.06,0.04,0.83,3.48,3.05,5.13,979.11,36.21
3929530,-0.02,0.04,0.88,4.09,3.23,5.07,979.18,36.22
3929568,-0.0,-0.0,0.74,3.6,3.36,4.88,979.14,36.21
3929606,-0.02,0.03,0.73,3.66,0.73,4.82,979.18,36.21
3929644,-0.04,0.02,0.72,4.39,1.28,4.94,979.12,36.2
3929682,0.02,0.0,0.67,4.15,1.34,5.0,979.13,36.21
3929720,-0.0,0.02,0.72,3.85,1.1,4.7,979.12,36.21
3929758,-0.02,-0.0,0.64,4.15,1.46,4.76,979.07,36.21
3929796,-0.01,-0.0,0.68,4.03,1.04,4.52,979.05,36.21
3929834,-0.0,0.01,0.69,3.66,2.01,4.27,979.11,36.23
3929883,-0.01,-0.0,0.74,3.42,1.65,4.39,979.12,36.21
3929921,-0.01,-0.01,0.71,3.17,2.14,4.33,979.1,36.22
3929959,-0.02,0.0,0.76,3.05,1.95,3.97,979.03,36.21
3929997,-0.01,-0.01,0.79,2.81,2.44,4.15,979.11,36.21
3930035,-0.01,-0.0,0.8,2.62,1.59,4.15,979.1,36.21
3930073,-0.02,-0.0,0.81,2.44,2.38,3.72,978.99,36.22
3930112,-0.0,-0.01,0.83,1.77,3.17,3.91,979.04,36.23
3930150,-0.01,-0.01,0.84,1.4,3.6,3.78,978.99,36.21
3930188,-0.02,-0.01,0.84,0.49,4.21,3.54,979.05,36.23
3930237,-0.01,0.0,0.95,-0.18,5.55,3.85,979.05,36.21
3930275,-0.0,-0.01,0.95,-0.85,6.16,3.72,978.94,36.21
3930313,-0.02,0.0,1.04,-0.98,5.37,3.6,979.0,36.22
3930351,-0.0,-0.0,1.03,-1.53,6.29,3.66,978.98,36.22
3930389,-0.0,0.02,1.08,-1.59,5.31,3.48,978.95,36.23
3930427,0.0,0.0,1.15,-1.4,5.74,3.66,978.94,36.22
3930465,0.0,-0.01,1.15,-1.28,5.37,3.66,978.92,36.23
3930503,0.0,0.01,1.17,-1.04,5.62,3.48,978.9,36.25
3930541,0.01,0.01,1.15,-0.67,5.62,3.42,978.94,36.23
3930579,-0.01,0.02,1.19,-0.18,4.82,3.42,978.87,36.23
3930629,0.01,0.0,1.2,0.24,4.88,3.23,978.91,36.23
3930667,0.01,0.0,1.19,0.37,4.09,3.11,978.92,36.22
3930705,-0.01,0.02,1.17,0.73,3.85,3.11,978.95,36.23
3930743,-0.0,0.01,1.16,0.85,3.72,3.11,978.92,36.23
3930781,0.02,0.02,1.14,1.1,3.66,2.75,979.04,36.23
3930819,-0.0,0.02,1.14,1.16,4.03,2.75,978.92,36.23
3930857,0.01,0.01,1.06,1.28,4.64,2.44,978.96,36.24
3930895,-0.0,0.02,1.09,1.53,3.72,2.38,978.94,36.23
3930933,0.0,0.01,1.04,1.71,5.19,2.32,978.93,36.24
3930971,0.01,0.02,1.05,1.4,4.88,2.32,978.96,36.23
3931021,0.0,0.02,0.98,1.53,6.04,2.01,978.95,36.23
3931059,0.02,0.03,1.01,1.46,5.13,1.83,978.95,36.22
3931097,0.0,0.03,1.0,1.65,5.98,1.83,978.93,36.24
3931135,0.0,0.02,0.99,1.53,5.25,1.65,978.92,36.23
3931173,0.01,0.03,0.98,1.22,5.68,1.53,978.93,36.23
3931211,0.01,0.03,0.98,1.16,5.62,1.28,978.98,36.24
3931249,0.01,0.03,1.02,0.98,5.98,1.22,978.92,36.23
3931287,0.0,0.04,0.98,0.73,6.35,1.04,978.96,36.23
3931325,0.01,0.04,1.03,0.92,6.16,1.04,978.89,36.24
3931363,-0.01,0.03,0.98,0.73,6.65,0.98,978.94,36.24
3931440,0.0,0.04,1.05,0.73,6.04,0.67,978.97,36.21
3931478,0.01,0.03,1.06,0.49,5.62,0.73,978.93,36.21
3931516,-0.0,0.03,1.07,0.49,6.16,0.49,978.88,36.21
3931606,-0.01,0.04,1.09,0.73,6.16,0.43,978.86,36.17
3931644,-0.0,0.03,1.06,0.79,6.35,0.18,978.89,36.19
3931682,-0.01,0.04,1.09,0.85,6.29,0.12,978.88,36.21
3931720,-0.01,0.03,1.09,0.98,6.35,0.0,978.79,36.19
3931758,-0.01,0.03,1.07,0.98,6.23,-0.06,978.89,36.21
3931796,-0.01,0.04,1.08,0.98,6.1,0.0,978.91,36.22
3931834,-0.01,0.03,1.09,1.16,5.8,-0.06,978.93,36.22
3931884,-0.02,0.03,1.08,1.28,5.62,-0.12,978.89,36.22
3931922,-0.01,0.04,1.08,1.34,5.37,-0.24,978.88,36.21
3931960,-0.01,0.04,1.1,1.53,5.31,-0.18,978.88,36.21
3931998,-0.02,0.03,1.08,1.65,4.94,-0.24,978.9,36.22
3932036,-0.02,0.03,1.08,1.83,4.76,-0.18,978.9,36.22
3932074,-0.02,0.03,1.1,1.95,4.27,-0.24,978.83,36.22
3932112,-0.02,0.03,1.05,1.77,4.27,-0.18,978.9,36.23
3932150,-0.03,0.04,1.04,1.71,3.05,-0.18,978.91,36.23
3932188,-0.02,0.04,1.04,2.01,2.81,-0.18,978.82,36.23
3932226,-0.01,0.04,1.04,1.77,1.89,-0.24,978.83,36.22
3932276,-0.02,0.05,1.06,2.08,1.53,-0.12,978.8,36.22
3932314,-0.0,0.03,1.01,2.2,1.4,-0.31,978.78,36.23
3932352,-0.02,0.04,1.03,2.14,0.67,-0.24,978.8,36.22
3932390,-0.03,0.03,1.03,2.2,0.49,-0.18,978.77,36.23
3932428,-0.03,0.03,1.04,2.2,-0.31,-0.31,978.69,36.23
3932466,-0.04,0.04,1.06,2.26,0.37,-0.43,978.79,36.23
3932504,-0.04,0.03,1.05,2.08,0.73,-0.43,978.78,36.24
3932542,-0.02,0.04,1.09,2.14,1.34,-0.31,978.76,36.23
3932580,-0.05,0.04,1.07,2.14,2.26,-0.31,978.8,36.24
3932630,-0.05,0.04,1.07,1.95,3.17,-0.12,978.77,36.22
3932668,-0.06,0.04,1.04,2.44,3.3,-0.06,978.7,36.23
3932706,-0.05,0.04,1.04,2.32,3.91,0.0,978.78,36.23
3932744,-0.04,0.04,1.03,2.44,4.03,0.06,978.76,36.23
3932782,-0.04,0.05,1.04,2.62,3.97,0.49,978.73,36.23
3932820,-0.05,0.05,1.04,2.75,4.39,0.61,978.73,36.23
3932858,-0.05,0.05,1.04,2.99,4.09,0.73,978.65,36.22
3932896,-0.04,0.05,1.04,3.11,4.21,0.98,978.72,36.23
3932934,-0.04,0.05,1.02,3.3,4.15,1.04,978.69,36.24
3932972,-0.05,0.05,1.01,3.42,4.15,1.34,978.71,36.25
3933022,-0.04,0.04,0.94,3.6,4.76,1.46,978.72,36.22
3933060,-0.04,0.05,0.95,3.6,4.88,1.65,978.76,36.23
3933098,-0.04,0.04,0.89,3.3,5.37,1.77,978.69,36.23
3933136,-0.04,0.05,0.91,3.48,5.31,1.77,978.7,36.24
3933174,-0.04,0.04,0.88,3.3,5.92,2.14,978.77,36.24
3933212,-0.04,0.05,0.87,2.87,4.82,2.44,978.66,36.24
3933250,-0.05,0.05,0.87,2.56,5.07,2.5,978.76,36.24
3933288,-0.03,0.04,0.87,2.5,4.94,2.56,978.66,36.24
3933326,-0.03,0.05,0.91,2.32,4.58,2.87,978.72,36.25
3933364,-0.04,0.04,0.88,2.38,4.76,2.93,978.67,36.25
3933414,-0.03,0.05,0.94,2.26,4.39,3.11,978.63,36.23
3933452,-0.03,0.04,0.9,2.01,4.94,3.36,978.68,36.23
3933490,-0.05,0.05,0.92,2.01,4.27,3.3,978.7,36.25
3933528,-0.03,0.05,0.88,2.14,5.55,3.42,978.62,36.23
3933566,-0.02,0.04,0.94,2.01,5.13,3.42,978.59,36.23
3933604,-0.01,0.03,0.93,1.89,6.65,3.48,978.64,36.24
3933642,-0.02,0.03,0.91,1.95,6.53,3.6,978.59,36.22
3933680,-0.03,0.04,0.96,1.89,6.65,3.6,978.6,36.25
3933718,-0.02,0.03,0.94,1.89,6.77,3.6,978.59,36.26
3933756,-0.03,0.04,0.98,1.77,7.08,3.66,978.62,36.23
3933806,-0.02,0.03,0.97,1.83,6.59,3.66,978.62,36.24
3933844,-0.03,0.04,1.0,1.89,6.59,3.91,978.58,36.23
3933882,-0.02,0.03,0.99,1.71,6.1,3.91,978.54,36.23
3933920,-0.02,0.04,1.04,1.71,5.98,3.85,978.52,36.25
3933958,-0.02,0.03,1.03,1.77,6.35,3.91,978.51,36.24
3933996,-0.02,0.04,1.04,1.71,5.92,3.97,978.49,36.24
3934034,-0.02,0.04,1.06,1.89,5.98,3.91,978.45,36.23
3934072,-0.01,0.03,1.05,1.83,5.8,3.85,978.51,36.23
3934110,-0.02,0.04,1.06,1.89,6.04,3.85,978.44,36.23
3934148,-0.02,0.04,1.05,2.14,6.1,3.91,978.47,36.24
3934198,-0.03,0.05,1.08,2.32,5.74,3.91,978.52,36.23
3934236,-0.01,0.04,1.04,2.69,6.1,3.85,978.43,36.23
3934274,-0.01,0.05,1.05,2.93,5.68,3.66,978.47,36.23
3934312,-0.01,0.04,1.05,3.36,6.53,3.72,978.38,36.23
3934350,-0.01,0.04,1.0,3.78,6.1,3.6,978.48,36.25
3934388,-0.02,0.05,1.02,4.33,6.1,3.54,978.47,36.23
3934426,-0.01,0.04,0.97,4.46,6.35,3.36,978.47,36.25
3934464,-0.01,0.04,0.98,4.52,6.23,3.42,978.44,36.24
3934502,-0.01,0.04,0.94,4.52,6.9,3.42,978.43,36.24
3934578,-0.02,0.05,0.9,4.39,6.96,2.99,978.47,36.21
3934616,-0.01,0.04,0.88,4.15,6.77,3.05,978.47,36.23
3934654,-0.01,0.04,0.87,3.85,6.41,2.87,978.44,36.23
3934743,-0.0,0.04,0.86,2.93,6.16,2.75,978.41,36.19
3934781,0.0,0.03,0.86,2.62,6.35,2.62,978.41,36.21
3934819,-0.0,0.03,0.87,2.38,5.92,2.62,978.45,36.22
3934857,-0.01,0.03,0.89,1.89,5.62,2.38,978.43,36.22
3934895,-0.02,0.03,0.88,1.77,5.43,2.32,978.43,36.23
3934934,-0.01,0.03,0.91,1.53,4.76,2.26,978.38,36.23
3934971,-0.0,0.03,0.91,1.4,4.46,2.26,978.35,36.21
3935021,-0.0,0.02,0.93,1.22,3.97,2.01,978.35,36.21
3935059,-0.01,0.02,0.92,1.1,3.36,1.83,978.36,36.23
3935097,-0.01,0.02,0.94,1.22,2.81,1.71,978.3,36.23
3935135,-0.0,0.02,0.94,1.04,2.93,1.53,978.29,36.23
3935173,-0.01,0.02,0.96,0.92,2.69,1.4,978.33,36.24
3935211,-0.02,0.02,0.96,1.04,3.11,1.22,978.36,36.25
3935249,-0.02,0.02,0.96,0.85,3.17,1.16,978.23,36.23
3935287,-0.01,0.03,1.02,0.85,2.99,1.04,978.34,36.24
3935325,-0.0,0.02,1.0,0.67,3.36,0.67,978.25,36.24
3935363,-0.01,0.02,1.01,0.55,3.36,0.55,978.29,36.25
3935413,-0.02,0.03,1.02,0.85,3.36,0.43,978.3,36.23
3935451,-0.02,0.02,1.03,0.79,3.6,0.37,978.3,36.24
3935489,-0.01,0.03,1.05,0.85,3.72,0.18,978.28,36.24
3935527,-0.01,0.03,1.08,1.04,3.6,0.0,978.25,36.24
3935565,-0.03,0.04,1.07,0.98,3.72,-0.06,978.31,36.26
3935603,-0.02,0.04,1.08,1.22,4.15,-0.12,978.26,36.25
3935641,-0.03,0.04,1.07,1.04,4.46,-0.18,978.27,36.25
3935679,-0.03,0.04,1.07,0.98,4.76,-0.31,978.27,36.25
3935717,-0.02,0.04,1.1,0.79,4.15,-0.37,978.17,36.24
3935755,-0.03,0.04,1.1,0.79,4.46,-0.49,978.25,36.25
3935805,-0.02,0.05,1.09,0.67,3.91,-0.37,978.24,36.25
3935843,-0.03,0.05,1.1,0.37,4.03,-0.37,978.17,36.24
3935881,-0.03,0.04,1.11,0.55,3.72,-0.37,978.17,36.25
3935919,-0.03,0.04,1.12,0.67,3.91,-0.31,978.13,36.24
3935957,-0.04,0.06,1.13,0.79,3.66,-0.43,978.18,36.26
3935995,-0.03,0.05,1.13,1.1,3.72,-0.55,978.17,36.25
3936033,-0.02,0.05,1.12,1.34,3.36,-0.43,978.2,36.25
3936071,-0.04,0.05,1.12,1.46,3.11,-0.49,978.23,36.25
3936109,-0.03,0.05,1.1,1.89,3.17,-0.55,978.19,36.27
3936147,-0.04,0.05,1.13,2.2,2.32,-0.31,978.12,36.25
3936197,-0.05,0.05,1.14,2.56,3.17,-0.49,978.09,36.24
3936235,-0.05,0.05,1.12,2.81,4.88,-0.49,978.11,36.25
3936273,-0.03,0.07,1.17,3.05,3.78,-0.49,978.1,36.25
3936311,-0.07,0.07,1.21,3.6,5.49,-0.43,978.03,36.26
3936349,-0.05,0.06,1.18,3.6,6.9,-0.43,978.04,36.25
3936387,-0.04,0.07,1.3,3.78,5.0,-0.31,978.08,36.26
3936425,-0.05,0.05,1.25,4.21,5.74,-0.12,978.07,36.26
3936463,-0.06,0.04,1.22,4.21,6.23,-0.24,978.04,36.25
3936501,-0.04,0.06,1.17,4.52,8.0,-0.24,978.01,36.26
3936551,-0.09,0.07,1.14,4.94,6.84,0.31,978.02,36.25
3936589,-0.06,0.03,1.04,4.76,7.81,0.49,977.94,36.25
3936627,-0.06,0.03,1.0,4.64,5.0,0.43,978.02,36.24
3936665,-0.08,0.04,0.97,4.52,4.76,0.73,977.99,36.26
3936703,-0.04,0.03,0.89,4.33,2.75,1.22,978.01,36.25
3936741,-0.03,0.05,0.89,4.09,3.23,1.1,978.04,36.23
3936779,-0.04,0.03,0.8,3.97,0.85,1.28,978.02,36.26
3936817,-0.04,0.01,0.82,3.85,-0.31,1.53,978.03,36.25
3936855,-0.03,0.01,0.81,3.36,-0.55,1.46,978.02,36.25
3936893,-0.04,0.03,0.76,3.17,-0.61,1.34,977.93,36.26
3936943,-0.04,0.03,0.75,3.11,-1.28,1.46,977.94,36.25
3936981,-0.06,0.02,0.73,2.69,-1.53,1.46,977.96,36.25
3937019,-0.06,0.02,0.76,2.81,-1.28,1.53,977.99,36.25
3937057,-0.05,0.02,0.74,2.56,-1.04,1.77,978.04,36.24
3937095,-0.03,0.03,0.81,2.56,-1.1,1.59,978.0,36.26
3937133,-0.03,0.01,0.78,2.5,-0.43,1.65,977.92,36.26
3937171,-0.04,0.01,0.79,2.32,-0.31,1.83,977.98,36.26
3937209,-0.04,0.0,0.8,1.89,0.43,2.01,977.98,36.27
3937247,-0.04,0.02,0.81,1.71,-0.12,2.08,977.93,36.27
3937285,-0.06,0.02,0.84,1.34,0.73,2.08,977.9,36.26
3937335,-0.04,0.01,0.89,0.92,0.73,2.14,977.91,36.25
3937373,-0.04,0.01,0.96,0.61,1.71,2.32,977.81,36.24
3937411,-0.05,0.01,0.94,0.61,2.93,2.32,977.77,36.26
3937449,-0.04,0.02,1.01,0.67,2.56,2.56,977.83,36.25
3937487,-0.05,-0.0,0.99,0.79,4.09,2.56,977.82,36.25
3937525,-0.05,0.01,1.02,0.61,3.17,2.93,977.83,36.25
3937563,-0.05,0.02,1.03,0.73,4.15,2.99,977.86,36.27
3937601,-0.03,0.02,1.0,0.92,3.42,2.99,977.81,36.25
3937639,-0.03,0.02,1.11,1.04,4.09,3.11,977.75,36.25
3937677,-0.05,0.02,1.11,0.98,4.15,3.42,977.75,36.25
3937753,-0.04,0.02,1.14,1.22,3.42,3.54,977.77,36.22
3937791,-0.04,0.03,1.18,1.4,1.77,3.78,977.75,36.24
3937829,-0.03,0.02,1.15,1.89,2.44,3.66,977.75,36.24
3937919,-0.05,0.02,1.12,2.32,2.08,4.09,977.71,36.21
3937957,-0.03,0.01,1.06,2.26,2.32,4.39,977.76,36.21
3937995,-0.01,0.03,1.05,1.83,2.44,4.33,977.78,36.24
3938034,-0.03,0.02,0.96,1.83,4.82,4.21,977.79,36.24
3938072,-0.04,0.02,0.94,1.53,5.86,4.27,977.82,36.23
3938110,-0.01,0.03,0.89,1.53,7.14,4.33,977.76,36.24
3938159,-0.02,0.03,0.83,1.77,8.3,4.52,977.78,36.23
3938197,-0.03,0.03,0.87,1.46,8.85,4.39,977.75,36.23
3938236,-0.01,0.02,0.9,1.71,8.73,4.39,977.77,36.24
3938274,-0.02,0.03,0.94,1.59,7.69,4.33,977.69,36.23
3938312,-0.01,0.03,0.98,1.83,7.93,4.7,977.68,36.25
3938350,0.01,0.01,0.97,1.77,7.45,4.7,977.73,36.24
3938388,-0.01,0.03,0.99,1.71,6.16,4.58,977.7,36.25
3938426,-0.0,0.03,0.95,1.77,6.23,4.58,977.67,36.25
3938464,0.01,0.03,0.96,1.83,6.53,4.64,977.7,36.25
3938502,0.01,0.03,0.95,1.83,6.71,4.33,977.71,36.25
3938551,-0.01,0.02,0.97,2.2,6.16,4.39,977.66,36.23
3938589,0.02,0.02,0.96,2.2,5.62,4.33,977.64,36.24
3938628,0.02,0.02,0.93,2.14,5.0,4.03,977.64,36.26
3938665,0.01,0.03,0.91,2.01,4.33,3.97,977.65,36.24
3938704,0.03,0.02,0.94,2.14,4.33,3.78,977.65,36.25
3938742,0.01,0.01,0.92,1.95,4.39,3.72,977.57,36.25
3938780,0.02,0.02,0.97,2.01,3.48,3.48,977.55,36.24
3938818,0.0,0.01,0.91,2.01,3.3,3.11,977.54,36.24
3938856,0.01,0.01,0.92,1.95,3.36,2.75,977.61,36.25
3938894,0.02,0.02,0.93,2.14,4.88,2.5,977.64,36.26
3938943,0.03,0.01,0.81,2.08,5.98,2.44,977.66,36.24
3938981,0.02,0.02,0.86,2.62,4.76,1.65,977.63,36.26
3939020,0.01,-0.0,0.81,2.62,5.98,1.59,977.61,36.26
3939057,0.03,0.01,0.84,2.38,4.46,1.53,977.55,36.25
3939095,0.02,0.01,0.86,2.26,4.94,1.28,977.54,36.26
3939134,0.02,0.0,0.84,2.01,4.52,0.98,977.57,36.25
3939172,0.01,0.02,0.89,1.53,3.05,0.79,977.54,36.25
3939210,0.01,0.01,0.94,1.77,3.05,0.55,977.49,36.26
3939248,0.01,-0.01,0.93,1.04,2.69,0.43,977.46,36.24
3939286,0.0,0.02,0.99,1.04,1.77,0.06,977.52,36.26
3939335,0.0,0.01,0.96,0.61,1.95,0.0,977.47,36.23
3939373,0.0,0.01,0.99,0.0,1.28,-0.12,977.48,36.25
3939411,-0.0,0.01,1.02,0.06,1.04,-0.18,977.37,36.25
3939449,-0.0,0.01,1.03,-0.31,1.04,-0.31,977.44,36.26
3939488,-0.01,0.01,1.04,-0.49,1.34,-0.31,977.46,36.26
3939526,-0.0,0.02,1.09,-0.49,1.16,-0.37,977.43,36.25
3939564,-0.02,0.01,1.11,-0.49,1.1,-0.37,977.4,36.25
3939602,-0.02,0.02,1.15,-0.43,1.22,-0.37,977.44,36.26
3939640,-0.03,0.03,1.14,-0.24,1.65,-0.43,977.45,36.28
3939678,-0.02,0.03,1.16,-0.37,1.34,-0.43,977.45,36.27
3939728,-0.03,0.04,1.15,-0.12,1.59,-0.31,977.38,36.26
3939766,-0.02,0.03,1.17,0.0,1.83,-0.43,977.43,36.26
3939804,-0.03,0.03,1.15,0.31,1.89,-0.43,977.39,36.27
3939842,-0.03,0.04,1.13,0.61,1.59,-0.31,977.41,36.25
3939880,-0.03,0.03,1.14,0.79,2.26,-0.31,977.39,36.26
3939918,-0.03,0.03,1.13,0.67,2.08,-0.37,977.37,36.27
3939956,-0.02,0.04,1.14,0.85,2.08,-0.18,977.38,36.27
3939994,-0.02,0.04,1.14,1.04,2.26,-0.18,977.45,36.27
3940032,-0.04,0.05,1.15,1.83,1.59,-0.12,977.36,36.25
3940070,-0.02,0.03,1.13,1.77,1.71,0.12,977.34,36.26
3940120,-0.02,0.05,1.16,2.01,1.53,0.18,977.25,36.25
3940158,-0.02,0.04,1.14,2.01,0.37,0.24,977.23,36.26
3940196,-0.01,0.04,1.11,2.08,0.67,0.37,977.3,36.26
3940234,-0.01,0.04,1.09,1.89,0.06,0.31,977.3,36.26
3940272,0.01,0.05,1.16,2.08,-0.31,0.49,977.28,36.26
3940310,-0.03,0.04,1.1,1.95,0.37,0.55,977.32,36.27
3940348,-0.03,0.05,1.17,2.01,-0.61,0.61,977.25,36.27
3940386,-0.07,0.03,1.07,1.77,-0.37,0.43,977.32,36.28
3940424,-0.02,0.03,1.11,2.01,-0.85,0.55,977.3,36.28
3940474,-0.03,0.04,1.09,2.5,1.28,0.73,977.32,36.26
3940512,-0.04,0.05,1.01,2.62,0.24,0.73,977.29,36.26
3940550,-0.06,0.06,1.02,2.87,2.2,1.04,977.29,36.28
3940588,-0.05,0.04,0.99,3.05,1.95,1.22,977.3,36.26
3940626,-0.06,0.05,0.98,2.62,2.75,1.22,977.2,36.26
3940664,-0.06,0.04,0.96,2.99,4.09,1.34,977.29,36.27
3940702,-0.04,0.05,1.0,2.81,4.76,1.77,977.26,36.26
3940740,-0.02,0.05,0.95,2.99,6.29,1.89,977.25,36.27
3940778,-0.03,0.05,0.93,3.3,5.92,2.2,977.21,36.26
3940816,-0.04,0.04,0.93,3.54,5.8,2.44,977.22,36.27
3940892,-0.02,0.05,0.94,3.54,6.1,2.75,977.16,36.23
3940930,-0.03,0.03,0.85,3.72,6.53,2.62,977.22,36.25
3940968,-0.01,0.04,0.92,3.78,5.86,2.75,977.19,36.25
3941057,-0.03,0.05,0.87,4.03,6.65,2.87,977.18,36.23
3941095,-0.02,0.02,0.8,3.72,8.24,2.81,977.15,36.24
3941133,-0.0,0.03,0.77,3.66,6.35,2.69,977.16,36.24
3941171,-0.04,0.04,0.84,3.6,7.81,2.93,977.15,36.25
3941209,-0.02,0.01,0.76,3.05,8.42,3.23,977.12,36.25
3941247,-0.02,0.03,0.89,2.62,7.45,2.99,977.04,36.25
3941285,-0.05,0.02,0.86,2.32,8.61,3.42,977.07,36.25
3941335,-0.02,0.03,0.96,2.14,7.08,3.36,977.09,36.25
3941373,-0.01,0.01,0.88,1.83,8.18,3.6,977.03,36.25
3941411,-0.02,0.04,0.93,1.77,4.64,3.66,977.13,36.26
3941449,-0.02,0.03,0.95,2.01,6.1,3.66,977.07,36.25
3941487,-0.0,0.01,0.95,1.65,4.52,3.85,977.06,36.25
3941525,-0.04,0.03,1.01,1.53,3.54,3.85,977.02,36.26
3941563,-0.02,0.01,0.96,1.22,3.66,3.91,977.02,36.26
3941601,-0.01,0.03,1.08,0.98,2.81,3.91,977.03,36.25
3941639,-0.0,0.02,1.03,0.92,4.39,3.85,977.0,36.26
3941677,-0.01,0.02,1.0,0.85,3.66,3.78,976.97,36.26
3941727,-0.02,0.02,1.0,0.85,5.07,3.72,976.98,36.26
3941765,-0.01,0.02,0.99,0.85,3.66,3.54,977.0,36.27
3941803,-0.02,0.01,1.06,1.04,3.85,3.42,977.03,36.26
3941841,-0.02,0.01,1.01,1.28,4.33,3.6,976.98,36.26
3941879,-0.02,0.02,1.07,1.65,4.33,3.48,976.99,36.26
3941917,-0.01,0.02,1.0,1.77,5.0,3.36,976.99,36.27
3941955,-0.01,0.04,1.01,1.83,4.58,3.3,977.01,36.27
3941993,-0.0,0.01,0.97,1.83,4.7,3.05,976.98,36.26
3942031,-0.01,0.02,0.95,1.83,3.6,2.99,976.98,36.27
3942069,0.0,0.03,0.93,1.46,3.66,2.93,977.02,36.28
3942119,-0.01,0.03,0.93,1.83,3.23,2.93,976.91,36.27
3942157,0.0,0.02,0.93,1.53,3.17,2.93,976.91,36.25
3942195,-0.01,0.02,0.97,1.71,2.5,2.81,976.95,36.27
3942233,-0.02,0.02,0.94,1.71,2.32,2.62,976.9,36.26
3942271,-0.01,0.03,0.93,1.46,2.5,2.62,976.89,36.27
3942309,-0.0,0.03,0.95,1.65,3.05,2.26,977.0,36.28
3942347,-0.01,0.01,0.93,1.46,3.3,2.08,976.95,36.29
3942385,-0.01,0.04,0.98,1.77,1.65,2.26,976.87,36.27
3942423,-0.02,0.02,0.95,1.65,2.32,2.08,976.86,36.28
3942462,-0.02,0.04,0.96,1.59,2.99,1.95,976.82,36.27
3942511,-0.01,0.04,1.0,1.59,3.48,1.95,976.81,36.27
3942549,-0.02,0.04,0.97,1.71,3.54,1.83,976.89,36.27
3942587,-0.02,0.05,1.0,1.89,3.85,1.77,976.79,36.27
3942626,0.0,0.04,1.01,2.08,4.88,1.77,976.8,36.27
3942664,-0.02,0.04,1.0,2.2,5.07,1.83,976.8,36.28
3942702,-0.03,0.04,1.02,2.38,5.19,1.71,976.8,36.28
3942740,-0.01,0.04,1.04,2.32,5.07,1.89,976.78,36.27
3942778,0.0,0.05,1.06,2.38,4.58,1.53,976.74,36.27
3942816,0.01,0.05,1.08,2.08,4.88,1.46,976.65,36.27
3942866,0.01,0.05,1.11,1.95,4.88,1.28,976.67,36.26
3942904,-0.0,0.04,1.14,2.01,5.49,1.1,976.71,36.27
3942942,-0.02,0.06,1.13,2.14,5.43,1.28,976.69,36.28
3942980,-0.04,0.07,1.14,2.2,5.0,1.16,976.74,36.28
3943018,-0.04,0.06,1.12,2.38,5.8,1.22,976.76,36.27
3943056,-0.04,0.06,1.08,2.38,6.1,0.92,976.64,36.26
3943094,-0.03,0.07,1.1,2.75,5.92,1.22,976.64,36.27
3943132,-0.02,0.06,1.08,2.93,6.23,1.4,976.71,36.29
3943170,-0.04,0.07,1.05,3.05,6.77,1.28,976.68,36.28
3943208,-0.04,0.07,1.06,3.23,8.12,1.22,976.61,36.27
3943258,-0.04,0.07,1.05,3.54,8.18,1.4,976.61,36.27
3943296,-0.03,0.06,1.06,3.91,8.24,1.53,976.6,36.25
3943334,-0.02,0.08,1.03,4.33,7.93,1.59,976.62,36.26
3943372,-0.03,0.07,1.01,4.82,7.75,1.71,976.66,36.27
3943411,-0.01,0.07,0.97,4.88,7.39,1.83,976.7,36.27
3943449,-0.05,0.07,1.0,5.43,6.35,1.83,976.62,36.27
3943487,-0.02,0.05,0.93,5.68,6.29,2.08,976.6,36.27
3943525,-0.01,0.06,0.94,5.92,4.88,1.71,976.59,36.28
3943563,-0.01,0.05,0.89,6.41,5.74,1.65,976.6,36.27
3943601,0.0,0.07,0.89,6.71,3.97,1.77,976.64,36.28
3943650,-0.02,0.05,0.81,7.08,5.19,1.83,976.61,36.28
3943689,-0.03,0.05,0.81,7.26,4.15,1.89,976.61,36.28
3943727,-0.06,0.04,0.74,7.08,4.52,1.89,976.65,36.28
3943765,-0.01,0.04,0.7,7.32,4.15,1.89,976.6,36.27
3943803,-0.01,0.04,0.71,7.08,5.0,1.77,976.6,36.27
3943841,-0.01,0.03,0.6,6.96,5.55,1.65,976.65,36.28
3943879,-0.0,0.03,0.64,6.77,4.64,2.08,976.57,36.26
3943917,-0.01,0.02,0.58,6.04,5.68,1.71,976.6,36.27
3943955,-0.03,0.02,0.63,5.13,4.21,1.89,976.56,36.27
3943993,-0.02,0.01,0.6,3.85,5.43,1.65,976.55,36.27
3944069,-0.01,0.01,0.73,2.32,3.36,1.89,976.57,36.25
3944107,-0.0,-0.01,0.67,1.77,2.62,1.65,976.54,36.27
3944145,-0.03,0.02,0.78,1.34,2.87,1.71,976.45,36.27
3944234,-0.04,0.0,0.86,0.67,1.65,1.46,976.49,36.23
3944272,-0.01,-0.01,0.83,0.24,2.87,1.4,976.4,36.25
3944310,0.01,0.01,0.98,-0.18,1.22,1.28,976.43,36.25
3944348,-0.04,-0.01,0.93,0.37,2.56,1.4,976.46,36.26
3944386,-0.02,-0.01,0.96,0.43,-0.06,1.4,976.41,36.26
3944424,-0.05,0.0,0.97,0.98,0.24,1.53,976.48,36.25
3944462,-0.03,-0.01,0.89,1.4,-0.49,1.77,976.49,36.26
3944512,-0.03,-0.01,0.89,1.53,-2.01,1.59,976.47,36.25
3944550,-0.06,-0.01,0.85,1.89,-3.3,1.83,976.47,36.27
3944588,-0.01,-0.01,0.89,1.95,-2.81,1.89,976.5,36.27
3944626,-0.02,0.0,0.93,2.14,-4.39,1.83,976.48,36.26
3944664,-0.06,0.0,0.94,2.32,-3.17,1.95,976.42,36.26
3944702,-0.04,-0.01,0.94,2.38,-4.64,1.89,976.53,36.28
3944740,-0.04,0.0,1.05,2.69,-2.56,2.08,976.48,36.28
3944778,-0.06,-0.02,0.87,2.38,-1.16,2.26,976.5,36.26
3944816,-0.06,0.03,0.99,2.69,-2.01,2.2,976.52,36.26
3944866,-0.05,-0.01,0.86,2.44,1.04,2.32,976.49,36.27
3944904,-0.05,0.01,0.95,2.2,0.85,2.62,976.47,36.28
3944942,-0.06,-0.0,0.92,2.08,3.36,2.87,976.47,36.27
3944980,-0.07,0.01,0.92,1.89,3.54,2.99,976.47,36.27
3945018,-0.07,0.02,0.96,1.83,4.33,3.11,976.46,36.26
3945056,-0.04,0.01,0.94,1.71,4.76,3.48,976.43,36.27
3945094,-0.04,0.01,0.94,1.53,4.46,3.66,976.42,36.26
3945132,-0.04,0.01,0.97,1.4,4.64,3.91,976.43,36.27
3945170,-0.03,0.01,0.99,0.92,3.17,4.39,976.5,36.29
3945208,-0.04,0.01,1.08,0.73,2.75,4.82,976.44,36.26
3945258,-0.07,0.0,1.05,0.61,2.75,4.94,976.48,36.26
3945296,-0.03,0.01,1.08,0.37,2.81,5.13,976.54,36.28
3945334,-0.03,0.02,1.0,0.24,1.95,5.37,976.51,36.27
3945372,-0.01,0.03,1.03,0.06,2.08,5.55,976.5,36.28
3945410,-0.01,-0.0,0.99,0.06,3.97,5.8,976.47,36.29
3945448,-0.06,0.01,1.0,0.06,2.62,5.86,976.48,36.27
3945486,-0.04,0.0,1.01,-0.12,3.11,5.98,976.46,36.27
3945524,-0.03,0.01,1.03,-0.12,3.91,5.8,976.42,36.26
3945562,-0.0,0.01,1.08,0.06,5.74,5.98,976.47,36.28
3945600,0.01,0.0,1.08,0.18,6.47,6.04,976.4,36.26
3945650,0.0,0.01,1.08,0.43,7.14,6.04,976.45,36.26
3945688,0.0,0.01,1.05,0.18,8.79,6.16,976.47,36.28
3945726,0.0,0.02,1.09,0.12,7.14,5.98,976.46,36.27
3945764,-0.0,0.02,1.12,0.43,6.96,5.98,976.47,36.29
3945802,0.01,-0.0,1.06,0.31,7.2,5.8,976.4,36.27
3945840,0.0,0.01,1.11,0.31,5.86,5.8,976.44,36.28
3945878,0.02,0.01,1.09,0.24,6.29,5.92,976.42,36.28
3945916,0.01,0.01,1.09,0.06,6.04,5.74,976.41,36.28
3945954,0.03,0.01,1.1,-0.37,7.63,5.62,976.44,36.29
3945992,0.01,-0.0,1.11,-0.18,7.87,5.25,976.48,36.29
3946042,0.03,0.0,1.06,-0.31,7.75,5.0,976.42,36.26
3946080,0.04,0.01,1.08,-0.31,8.3,4.88,976.4,36.28
3946118,0.03,-0.0,1.01,-0.43,7.39,4.64,976.35,36.27
3946156,0.04,0.02,1.09,-0.67,7.45,4.33,976.39,36.28
3946194,0.01,0.0,1.03,-1.04,8.73,4.27,976.34,36.27
3946232,0.04,0.03,1.19,-1.4,6.84,3.97,976.36,36.28
3946270,0.04,0.02,1.2,-1.65,7.87,3.42,976.34,36.29
3946308,0.02,0.02,1.22,-1.71,5.62,3.36,976.29,36.28
3946346,0.05,0.03,1.3,-1.77,5.49,3.23,976.32,36.28
3946384,0.02,0.03,1.22,-1.46,5.19,2.69,976.38,36.29
3946433,0.03,0.03,1.27,-1.1,4.15,2.75,976.35,36.27
3946471,0.01,0.03,1.2,-0.73,3.54,2.2,976.33,36.28
3946509,0.02,0.04,1.29,-0.18,3.6,2.08,976.29,36.28
3946547,0.04,0.03,1.26,0.06,5.13,1.65,976.3,36.28
3946585,0.02,0.05,1.3,0.06,4.76,1.4,976.29,36.27
3946624,-0.0,0.03,1.34,0.31,5.37,1.16,976.27,36.29
3946662,0.01,0.04,1.34,0.49,4.94,0.98,976.26,36.29
3946700,0.02,0.06,1.44,0.92,4.82,0.73,976.2,36.28
3946738,0.03,0.03,1.33,0.98,5.62,0.55,976.24,36.29
3946776,-0.0,0.05,1.41,1.04,4.21,0.49,976.24,36.29
3946826,0.0,0.03,1.3,0.92,4.64,0.49,976.24,36.27
3946863,-0.02,0.05,1.32,0.85,3.54,0.55,976.22,36.27
3946902,-0.0,0.04,1.23,0.67,3.36,0.55,976.24,36.28
3946939,-0.01,0.04,1.28,0.49,1.95,0.61,976.23,36.27
3946978,0.0,0.04,1.21,0.0,1.83,0.49,976.15,36.29
3947015,-0.01,0.06,1.26,-0.12,1.34,0.31,976.18,36.28
3947053,-0.03,0.04,1.27,-0.24,1.53,0.79,976.11,36.28
3947091,-0.03,0.04,1.26,-0.43,1.22,0.67,976.09,36.28
3947129,-0.02,0.04,1.33,-0.55,2.2,0.55,976.15,36.29
3947205,-0.02,0.05,1.37,0.12,2.5,0.67,976.08,36.26
3947243,-0.05,0.04,1.28,0.12,3.78,0.61,976.14,36.27
3947281,-0.04,0.06,1.33,0.43,2.93,0.73,976.12,36.27
3947370,-0.01,0.06,1.23,0.98,5.19,0.61,976.15,36.25
3947408,-0.02,0.02,1.12,1.1,7.63,0.67,976.15,36.26
3947446,-0.04,0.03,1.09,1.04,5.8,0.73,976.15,36.25
3947484,-0.01,0.04,1.1,1.34,6.53,0.55,976.12,36.27
3947523,0.0,0.02,1.0,0.98,5.8,0.55,976.08,36.28
3947561,-0.04,0.03,1.01,0.79,4.33,0.79,976.08,36.27
3947599,-0.03,0.02,0.94,0.49,5.43,0.98,976.05,36.28
3947648,-0.03,0.05,1.13,0.67,2.75,0.85,975.99,36.25
3947686,-0.02,0.01,1.1,0.55,5.31,0.79,976.0,36.27
3947724,-0.03,0.02,1.19,0.37,5.31,0.79,975.97,36.28
3947763,-0.08,0.03,1.27,0.67,5.8,1.1,975.84,36.27
3947801,-0.03,0.04,1.33,0.92,5.25,1.04,975.79,36.29
3947839,-0.03,0.05,1.36,0.67,7.02,0.85,975.83,36.28
3947877,-0.04,0.04,1.34,1.16,8.18,1.22,975.84,36.27
3947915,-0.04,0.03,1.33,1.89,8.06,1.1,975.85,36.27
3947953,-0.04,0.03,1.25,2.44,7.26,1.34,975.92,36.27
3947991,-0.04,0.02,1.25,2.99,8.3,1.77,975.91,36.27
3948041,-0.05,0.03,1.0,2.44,5.92,1.77,975.85,36.27
3948079,-0.04,0.04,0.99,2.14,2.81,1.77,975.76,36.27
3948117,-0.03,0.01,0.91,1.1,1.95,2.44,975.8,36.28
3948155,-0.01,0.02,1.0,0.67,1.4,2.44,975.76,36.27
3948193,-0.03,0.0,0.99,0.06,2.81,2.5,975.74,36.27
3948231,-0.05,0.04,1.04,-0.24,0.73,2.56,975.69,36.28
3948269,-0.03,0.05,1.06,-0.18,2.2,2.56,975.76,36.28
3948307,-0.05,0.02,1.01,-0.18,2.26,2.5,975.74,36.27
3948345,-0.05,0.03,1.05,0.0,1.83,2.5,975.62,36.27
3948383,-0.02,0.02,1.0,-0.06,1.95,2.69,975.62,36.28
3948433,-0.02,0.04,1.1,0.18,1.95,2.62,975.6,36.27
3948471,-0.02,0.04,1.05,0.67,2.69,2.81,975.58,36.28
3948509,-0.02,0.04,1.14,1.1,1.65,2.75,975.52,36.28
3948547,-0.03,0.03,1.11,1.59,3.11,2.99,975.54,36.29
3948585,-0.01,0.04,1.12,2.01,2.38,2.56,975.51,36.3
3948623,-0.03,0.06,1.12,2.56,2.2,2.87,975.55,36.29
3948661,0.01,0.03,1.02,2.81,3.36,2.81,975.49,36.28
3948699,-0.01,0.05,1.05,3.54,2.69,2.56,975.52,36.29
3948737,-0.02,0.04,0.98,3.54,4.09,2.81,975.46,36.29
3948775,-0.0,0.04,0.96,4.03,2.81,2.93,975.42,36.3
3948825,0.0,0.03,0.89,4.09,4.15,2.56,975.43,36.28
3948863,-0.0,0.03,0.9,4.21,3.05,2.56,975.43,36.28
3948901,0.01,0.03,0.94,4.33,3.66,2.62,975.36,36.28
3948939,0.01,0.04,0.86,4.15,2.99,2.38,975.34,36.28
3948977,-0.03,0.06,0.93,4.15,3.3,2.26,975.28,36.29
3949015,-0.01,0.04,0.91,3.91,4.39,2.26,975.21,36.29
3949053,-0.03,0.05,1.02,3.78,2.2,2.01,975.25,36.3
3949091,-0.03,0.04,1.0,3.54,2.26,2.32,975.25,36.29
3949129,-0.01,0.05,1.08,3.78,1.77,2.2,975.17,36.29
3949167,-0.02,0.06,1.1,4.21,2.99,2.01,975.1,36.28
3949217,0.0,0.05,1.08,4.46,4.03,1.89,975.18,36.27
3949255,-0.0,0.06,1.05,4.88,5.62,1.83,975.16,36.28
3949293,-0.03,0.06,0.98,5.07,4.7,2.2,975.16,36.28
3949331,-0.05,0.04,0.89,5.43,7.57,1.89,975.15,36.28
3949369,-0.02,0.03,0.78,5.07,6.1,1.83,975.14,36.28
3949407,-0.01,0.06,0.76,4.88,5.68,2.08,975.18,36.29
3949445,-0.02,0.04,0.59,4.76,5.49,2.38,975.23,36.31
3949483,-0.03,0.05,0.56,4.76,4.88,2.44,975.08,36.28
3949521,0.02,0.03,0.57,4.88,5.62,2.2,975.11,36.3
3949559,-0.01,0.02,0.57,4.82,3.78,2.32,975.13,36.3
3949609,-0.01,0.04,0.54,4.58,3.54,2.5,975.12,36.28
3949647,-0.03,0.04,0.57,4.33,2.01,2.26,975.06,36.29
3949685,-0.0,0.04,0.61,3.6,1.4,2.56,975.09,36.28
3949723,0.02,0.02,0.57,3.3,0.55,2.32,974.99,36.28
3949761,0.0,0.02,0.66,3.17,0.24,2.2,974.96,36.29
3949799,0.0,0.03,0.61,2.87,0.79,2.38,974.85,36.27
3949837,-0.04,0.05,0.69,2.87,0.55,2.38,974.87,36.29
3949875,-0.01,0.02,0.78,2.62,0.98,2.5,974.84,36.29
3949913,-0.03,0.01,0.82,2.38,1.71,2.26,974.81,36.3
3949951,-0.02,0.02,0.94,2.81,4.21,2.32,974.83,36.29
3950001,0.01,0.03,0.94,3.05,6.1,2.08,974.83,36.28
3950039,-0.01,0.02,0.9,3.97,7.08,2.2,974.84,36.3
3950077,0.02,0.02,0.87,4.46,9.34,2.14,974.8,36.28
3950115,-0.0,0.02,0.78,4.58,12.33,2.14,974.82,36.29
3950153,-0.03,0.03,0.75,5.25,12.82,2.14,974.8,36.31
3950191,-0.03,0.02,0.73,5.31,12.08,2.38,974.79,36.3
3950229,0.01,0.01,0.69,5.0,12.21,2.32,974.81,36.3
3950267,0.01,0.03,0.71,5.13,11.72,2.38,974.69,36.29
3950305,0.04,0.02,0.67,4.94,10.19,2.5,974.72,36.29
3950381,0.04,0.02,0.66,4.64,9.34,2.38,974.75,36.29
3950419,0.03,0.01,0.66,4.09,8.54,2.2,974.69,36.28
3950457,0.03,0.02,0.68,3.91,7.57,2.2,974.7,36.27
3950619,0.03,0.03,0.71,2.69,5.98,1.16,974.7,36.22
3950657,0.02,0.04,0.72,2.75,5.8,1.1,974.63,36.23
3950695,0.03,0.03,0.71,2.81,4.94,1.04,974.66,36.25
3950733,0.03,0.03,0.75,2.75,4.09,0.67,974.65,36.25
3950771,0.01,0.02,0.74,2.99,4.09,0.61,974.64,36.26
3950809,0.02,0.03,0.77,3.11,3.36,0.43,974.62,36.25
3950847,0.03,0.03,0.83,3.42,3.11,0.37,974.52,36.23
3950897,0.01,0.02,0.75,3.3,2.56,0.24,974.53,36.25
3950935,0.0,0.03,0.79,3.6,2.69,0.0,974.65,36.26
3950973,0.02,0.02,0.77,3.54,3.11,-0.24,974.66,36.27
3951011,0.02,0.02,0.8,3.72,2.38,-0.18,974.64,36.28
3951049,0.04,0.02,0.81,3.66,2.93,-0.49,974.63,36.27
3951087,0.05,0.01,0.8,3.54,2.69,-0.61,974.56,36.27
3951125,0.03,0.02,0.8,3.48,3.23,-0.73,974.6,36.26
3951163,0.01,0.0,0.83,3.66,3.05,-0.79,974.53,36.27
3951201,0.02,0.01,0.8,2.69,3.78,-1.04,974.59,36.27
3951239,0.02,0.02,0.9,2.44,3.48,-1.4,974.56,36.27
3951289,0.0,0.01,0.9,2.26,3.66,-1.46,974.56,36.27
3951327,-0.01,0.01,0.94,1.71,2.81,-1.46,974.5,36.26
3951365,0.0,0.02,0.96,1.28,3.17,-1.46,974.51,36.26
3951403,0.01,0.02,1.02,0.85,2.44,-1.34,974.52,36.28
3951441,-0.01,0.0,1.04,0.61,2.01,-1.28,974.48,36.27
3951479,-0.02,0.0,1.04,0.31,3.3,-1.59,974.41,36.27
3951517,-0.01,0.03,1.1,0.43,3.17,-1.59,974.48,36.29
3951555,0.0,0.03,1.1,0.67,3.23,-1.59,974.44,36.28
3951593,-0.03,0.02,1.05,0.67,5.31,-1.77,974.53,36.28
3951631,-0.02,0.02,1.12,1.28,4.21,-1.65,974.58,36.29
3951681,-0.04,-0.01,0.99,1.77,5.49,-1.4,974.65,36.28
3951719,-0.05,0.04,0.88,2.08,5.13,-1.4,974.59,36.28
3951757,-0.07,0.05,0.83,2.32,6.16,-1.34,974.54,36.28
3951795,-0.03,0.03,0.84,2.44,5.43,-1.04,974.61,36.28
3951833,-0.03,0.02,0.85,1.89,8.48,-0.98,974.58,36.29
3951871,-0.04,0.02,0.85,1.71,7.75,-0.61,974.55,36.28
3951909,-0.07,0.04,0.88,1.77,9.22,-0.37,974.6,36.3
3951947,-0.06,0.06,0.86,1.46,9.95,-0.31,974.56,36.29
3951985,-0.05,0.06,1.0,2.14,8.97,-0.24,974.51,36.29
3952023,-0.06,0.03,0.98,2.32,10.07,0.0,974.48,36.29
3952073,-0.04,0.07,1.01,2.2,9.4,0.55,974.48,36.27
3952111,-0.03,0.06,0.98,2.44,10.93,0.79,974.51,36.28
3952149,-0.04,0.05,1.02,2.5,7.39,1.1,974.51,36.29
3952187,-0.05,0.04,1.02,2.38,10.25,1.34,974.47,36.29
3952225,-0.03,0.06,1.01,2.56,7.2,1.71,974.44,36.28
3952263,-0.04,0.08,1.1,2.87,8.73,1.89,974.49,36.3
3952301,-0.03,0.06,1.01,3.05,8.18,1.83,974.52,36.29
3952339,-0.04,0.07,1.13,3.05,8.12,2.08,974.37,36.29
3952377,-0.03,0.05,1.08,3.05,10.62,2.14,974.41,36.29
3952427,-0.05,0.08,1.15,3.23,10.25,2.44,974.4,36.28
3952465,-0.05,0.08,1.09,3.11,12.51,2.5,974.4,36.27
3952503,-0.04,0.08,1.13,3.11,14.04,2.38,974.37,36.29
3952541,-0.03,0.05,1.09,3.17,16.72,2.5,974.43,36.29
3952579,-0.01,0.04,1.04,3.05,15.01,2.62,974.45,36.29
3952617,-0.02,0.08,1.07,2.93,14.04,2.75,974.35,36.29
3952656,-0.03,0.07,0.92,2.56,14.34,2.93,974.39,36.3
3952694,-0.0,0.08,1.05,2.44,11.17,3.17,974.31,36.29
3952732,-0.01,0.04,0.99,2.32,11.05,2.99,974.4,36.29
3952770,0.0,0.04,1.03,1.95,9.95,2.99,974.48,36.3
3952820,0.01,0.06,1.06,2.26,7.14,3.05,974.43,36.28
3952858,0.01,0.06,1.03,2.08,4.64,3.05,974.39,36.29
3952896,0.01,0.05,0.97,1.89,3.78,3.23,974.4,36.3
3952934,0.0,0.05,0.96,1.65,2.08,2.75,974.41,36.3
3952972,-0.02,0.05,0.97,1.59,-15.32,2.62,974.31,36.3
3953010,0.01,0.03,0.97,1.89,0.12,2.5,974.36,36.3
3953048,0.01,0.03,0.94,2.14,1.83,2.2,974.41,36.3
3953086,0.03,0.04,0.94,2.14,1.95,2.08,974.37,36.29
3953124,-0.01,0.04,0.97,2.5,1.28,2.01,974.42,36.29
3953162,-0.05,0.04,0.99,3.05,0.37,1.77,974.39,36.3
3953212,0.03,0.04,0.96,2.62,3.23,0.92,974.3,36.3
3953250,-0.03,0.07,1.16,3.05,0.79,0.61,974.27,36.29
3953288,-0.01,0.02,1.07,2.93,4.52,0.73,974.21,36.29
3953326,-0.03,0.03,1.19,2.99,4.27,0.31,974.25,36.29
3953364,-0.03,0.05,1.18,3.3,5.74,0.18,974.21,36.3
3953402,-0.04,0.04,1.12,3.66,1.71,0.37,974.23,36.29
3953440,-0.02,0.03,1.16,3.91,1.89,0.37,974.3,36.3
3953478,-0.06,0.01,1.03,4.09,2.32,0.31,974.22,36.3
3953516,-0.03,0.04,1.11,4.21,-0.06,0.55,974.23,36.3
3953554,-0.02,0.02,1.01,4.21,-0.12,0.92,974.23,36.29
3953630,-0.06,0.01,0.95,4.15,-2.14,0.85,974.16,36.26
3953668,-0.05,-0.0,0.93,3.6,-4.09,0.92,974.14,36.27
3953706,-0.01,0.01,0.97,3.54,-4.58,0.79,974.16,36.27
3953795,-0.05,0.01,0.93,4.09,-3.85,1.22,974.16,36.25
3953833,-0.06,0.0,0.91,3.66,-3.85,1.1,974.16,36.28
3953871,-0.06,0.0,0.94,3.11,-2.75,1.28,974.17,36.26
3953909,-0.05,0.01,0.9,2.93,-2.32,1.34,974.15,36.27
3953948,-0.06,0.01,0.9,2.93,-3.48,1.34,974.19,36.27
3953986,-0.05,-0.01,0.81,2.56,-4.33,1.59,974.21,36.28
3954024,-0.04,0.0,0.79,2.26,-4.03,1.71,974.2,36.29
3954073,-0.04,-0.0,0.77,1.89,-3.97,1.89,974.19,36.28
3954111,-0.04,-0.0,0.76,1.71,-4.76,1.95,974.17,36.28
3954150,-0.09,-0.0,0.79,1.71,-5.43,2.32,974.17,36.29
3954188,-0.07,-0.02,0.77,1.28,-5.0,2.56,974.19,36.29
3954226,-0.07,-0.0,0.83,0.55,-5.86,2.75,974.11,36.28
3954264,-0.09,-0.0,0.84,-0.31,-5.62,2.75,974.12,36.28
3954302,-0.05,0.01,0.92,-1.1,-5.13,3.17,974.12,36.29
3954340,-0.03,-0.0,1.02,-1.65,-3.85,3.23,974.14,36.29
3954378,-0.08,0.0,1.0,-2.26,-3.66,3.6,974.07,36.29
3954428,-0.07,0.0,1.08,-2.44,-0.92,4.03,974.16,36.27
3954466,-0.06,0.0,1.12,-2.26,0.31,4.33,974.15,36.28
3954504,-0.04,0.02,1.2,-1.95,1.53,4.46,974.11,36.27
3954542,-0.04,0.01,1.23,-1.28,2.2,4.7,974.02,36.29
3954580,-0.04,-0.0,1.2,-0.31,2.5,5.07,974.06,36.28
3954618,-0.04,0.01,1.19,-0.06,3.17,5.31,974.06,36.29
3954656,-0.02,0.03,1.22,0.85,2.87,5.62,974.09,36.29
3954694,-0.04,-0.0,1.17,1.1,3.85,5.98,974.11,36.29
3954732,-0.02,-0.0,1.19,1.16,3.11,6.1,974.14,36.31
3954770,-0.02,-0.0,1.18,1.4,4.27,6.47,974.04,36.3
3954820,-0.01,0.01,1.21,1.34,5.55,6.71,974.11,36.28
3954858,0.0,0.01,1.2,1.4,5.74,6.59,974.05,36.29
3954896,0.0,0.02,1.28,1.65,5.13,6.77,974.05,36.29
3954934,0.02,-0.01,1.21,1.4,7.51,6.84,974.04,36.29
3954972,0.02,0.0,1.25,1.59,5.68,6.47,974.09,36.31
3955010,0.02,-0.0,1.26,1.95,7.26,6.53,974.05,36.29
3955048,0.04,-0.02,1.17,1.22,5.19,6.84,973.99,36.3
3955086,0.01,0.0,1.26,1.53,5.0,7.02,974.02,36.31
3955124,0.02,-0.03,1.09,1.59,5.07,6.47,974.05,36.31
3955162,0.01,0.01,1.19,1.1,1.95,6.71,973.96,36.29
3955212,0.04,-0.0,1.13,0.43,1.53,6.77,973.95,36.29
3955250,0.04,-0.01,1.21,-0.55,0.92,6.35,973.88,36.29
3955288,0.04,-0.02,1.14,-1.16,5.37,6.23,973.9,36.3
3955326,0.06,-0.01,1.21,-1.34,4.15,5.86,973.82,36.3
3955364,0.07,-0.02,1.21,-1.53,5.62,5.62,973.87,36.31
3955402,0.03,-0.02,1.13,-1.89,6.65,5.25,973.91,36.3
3955440,0.05,-0.02,1.04,-2.01,8.85,4.82,973.85,36.29
3955478,0.06,-0.02,1.0,-1.89,8.91,4.27,973.97,36.3
3955516,0.09,-0.01,0.92,-2.26,10.93,4.03,974.0,36.31
3955566,0.08,-0.01,0.8,-2.44,10.56,3.48,974.01,36.29
3955604,0.09,-0.0,0.93,-2.99,9.46,3.11,973.96,36.29
3955642,0.09,-0.02,0.9,-3.23,7.45,2.87,973.95,36.29
3955680,0.08,0.0,1.0,-3.54,5.8,2.5,973.88,36.29
3955718,0.07,-0.02,1.03,-3.6,5.92,1.95,973.78,36.3
3955756,0.09,-0.01,1.11,-3.85,3.78,1.71,973.75,36.29
3955794,0.1,0.02,1.26,-3.78,3.6,1.16,973.73,36.3
3955832,0.09,-0.01,1.2,-3.42,4.76,0.79,973.76,36.31
3955870,0.05,0.02,1.22,-2.93,4.15,0.49,973.72,36.3
3955908,0.07,0.02,1.31,-2.2,4.33,0.24,973.72,36.3
3955958,0.05,0.02,1.27,-1.46,3.85,-0.37,973.71,36.3
3955996,0.04,0.04,1.35,-1.1,4.03,-0.61,973.69,36.29
3956034,0.07,0.03,1.3,-0.98,4.52,-1.04,973.59,36.29
3956072,0.07,0.04,1.35,-0.61,2.56,-1.16,973.62,36.3
3956110,0.08,0.04,1.43,-0.67,3.72,-1.4,973.65,36.31
3956148,0.05,0.04,1.49,-0.61,1.77,-1.46,973.54,36.3
3956186,0.02,0.05,1.53,-0.31,2.75,-1.65,973.57,36.31
3956224,0.04,0.05,1.42,-0.31,3.54,-1.77,973.59,36.31
3956262,-0.01,0.08,1.49,-0.06,1.95,-1.83,973.59,36.31
3956300,0.01,0.06,1.45,0.43,2.44,-1.83,973.5,36.3
3956350,-0.05,0.07,1.42,0.49,4.09,-1.95,973.49,36.29
3956388,-0.01,0.08,1.45,0.43,3.72,-2.01,973.49,36.31
3956426,-0.03,0.07,1.41,0.43,4.64,-1.65,973.54,36.31
3956464,-0.02,0.08,1.33,0.0,6.65,-1.89,973.56,36.31
3956502,-0.04,0.09,1.34,0.18,8.12,-1.65,973.56,36.31
3956540,-0.02,0.06,1.31,0.49,9.09,-1.65,973.54,36.31
3956578,-0.03,0.06,1.23,0.49,9.46,-1.53,973.51,36.31
3956616,-0.01,0.09,1.26,0.73,9.09,-1.34,973.48,36.31
3956654,-0.02,0.06,1.13,0.92,9.83,-0.92,973.5,36.31
3956730,-0.02,0.07,1.14,1.46,9.28,-0.85,973.59,36.29
3956768,-0.0,0.04,1.06,1.95,8.97,-0.79,973.51,36.29
3956806,-0.0,0.06,1.08,2.38,6.71,-0.49,973.54,36.28
3956895,-0.0,0.07,1.07,3.23,5.55,-0.24,973.43,36.26
3956933,-0.01,0.05,0.99,3.36,3.91,0.06,973.46,36.27
3956971,-0.02,0.05,0.97,3.6,1.34,0.12,973.46,36.27
3957010,-0.0,0.04,0.9,4.03,2.69,-0.24,973.45,36.29
3957048,0.05,0.04,0.95,3.72,1.71,-0.06,973.4,36.3
3957086,0.02,0.04,0.94,3.97,2.81,0.0,973.37,36.29
3957124,-0.01,0.04,0.94,4.09,1.28,0.12,973.42,36.29
3957173,-0.03,0.04,0.91,4.52,2.87,-0.18,973.33,36.29
3957211,-0.02,0.03,0.91,4.7,2.08,0.0,973.28,36.27
3957249,-0.0,0.02,0.88,4.76,3.3,0.06,973.38,36.29
3957287,0.01,0.02,0.83,4.82,3.3,-0.12,973.31,36.29
3957325,-0.0,0.03,0.82,4.94,3.36,-0.12,973.23,36.28
3957363,-0.0,0.02,0.76,4.58,4.58,0.06,973.28,36.3
3957402,-0.01,0.03,0.82,4.33,3.91,0.06,973.28,36.3
3957440,-0.02,-0.0,0.75,3.78,4.88,0.06,973.17,36.29
3957478,-0.02,0.01,0.76,3.3,3.11,0.12,973.21,36.29
3957516,-0.01,0.02,0.78,2.99,3.48,0.24,973.22,36.31
3957565,-0.01,0.01,0.72,2.62,3.48,0.31,973.19,36.27
3957603,-0.02,0.02,0.76,3.05,3.48,0.24,973.16,36.29
3957642,0.01,-0.01,0.73,3.11,4.27,0.31,973.17,36.31
3957680,-0.01,0.0,0.64,2.44,2.87,0.18,973.12,36.29
3957718,-0.09,0.02,0.61,2.87,3.54,0.06,973.15,36.31
3957756,-0.04,0.0,0.55,2.26,4.33,0.49,973.18,36.3
3957794,-0.02,0.02,0.71,2.2,4.33,0.55,973.13,36.3
3957832,-0.06,0.0,0.64,2.56,5.13,0.61,973.15,36.3
3957870,-0.09,0.03,0.69,3.11,4.03,1.1,973.07,36.31
3957908,-0.06,0.02,0.74,3.3,7.63,1.1,973.08,36.32
3957958,-0.03,0.03,0.85,3.3,5.8,1.59,973.1,36.29
3957996,-0.05,0.02,0.69,3.17,9.22,2.08,973.07,36.29
3958034,-0.09,0.02,0.76,3.42,7.39,2.26,973.02,36.3
3958072,-0.01,0.03,0.84,3.48,9.7,2.14,972.99,36.31
3958110,-0.03,0.03,0.82,2.99,9.4,2.69,972.95,36.3
3958148,-0.05,0.01,0.83,3.23,9.28,3.23,972.9,36.32
3958186,-0.04,0.0,0.8,2.87,8.3,3.05,972.96,36.3
3958224,-0.06,0.03,0.87,2.69,8.54,3.42,972.9,36.31
3958262,-0.04,0.02,0.8,2.81,8.18,3.6,972.93,36.31
3958312,-0.03,0.03,0.89,2.93,7.26,3.91,972.83,36.3
3958350,-0.01,0.01,0.85,2.81,8.91,3.91,972.83,36.31
3958388,-0.03,0.02,0.86,2.87,8.54,4.15,972.83,36.31
3958426,-0.02,0.02,0.87,2.62,9.95,3.97,972.83,36.31
3958464,-0.01,0.02,0.88,2.38,10.62,3.85,972.75,36.31
3958502,-0.0,0.02,0.96,2.2,11.47,3.91,972.7,36.31
3958540,0.0,0.01,0.93,2.08,11.29,3.72,972.7,36.31
3958578,0.01,0.04,1.01,1.59,10.99,3.6,972.71,36.32
3958616,0.01,0.04,0.98,1.4,11.9,3.36,972.72,36.3
3958654,0.0,0.04,0.96,1.04,10.13,3.23,972.71,36.33
3958704,-0.01,0.02,0.94,0.06,10.19,3.11,972.67,36.31
3958742,0.01,0.04,0.97,-0.67,8.54,2.93,972.6,36.29
3958780,0.03,0.05,1.0,-1.28,8.18,2.75,972.56,36.31
3958818,0.02,0.04,1.01,-1.95,6.59,2.44,972.6,36.31
3958856,0.02,0.04,1.09,-2.44,6.59,2.38,972.55,36.31
3958894,0.04,0.03,1.09,-2.5,6.04,1.89,972.52,36.3
3958932,-0.01,0.07,1.16,-1.95,4.52,1.83,972.52,36.31
3958970,-0.01,0.06,1.21,-1.22,4.88,1.59,972.54,36.31
3959008,0.02,0.06,1.18,-1.04,3.97,1.22,972.53,36.33
3959046,0.0,0.06,1.26,0.18,2.62,0.85,972.47,36.33
3959096,-0.01,0.05,1.16,0.85,2.08,0.73,972.44,36.31
3959134,0.0,0.08,1.22,1.34,0.79,0.37,972.42,36.31
3959172,-0.03,0.07,1.15,1.65,0.31,0.43,972.42,36.31
3959210,-0.02,0.06,1.09,1.89,-1.28,0.18,972.44,36.33
3959248,-0.02,0.08,1.11,1.95,-1.34,0.0,972.4,36.31
3959286,-0.03,0.07,1.06,2.14,-1.34,0.0,972.38,36.31
3959324,-0.03,0.09,1.05,2.26,-2.14,0.12,972.41,36.31
3959362,-0.03,0.09,1.03,2.32,-2.2,0.0,972.42,36.32
3959400,-0.04,0.08,1.05,2.2,-2.62,0.0,972.36,36.3
3959438,-0.04,0.08,1.05,2.32,-2.62,0.12,972.35,36.31
3959488,-0.04,0.09,1.04,2.2,-2.56,0.18,972.39,36.31
3959526,-0.03,0.09,1.07,2.44,-2.38,0.18,972.27,36.3
3959564,-0.04,0.1,1.07,3.11,-1.83,0.24,972.32,36.3
3959602,-0.05,0.1,1.09,3.85,-1.28,0.18,972.35,36.32
3959640,-0.04,0.1,1.09,4.21,-0.37,0.31,972.25,36.31
3959678,-0.06,0.11,1.18,4.64,1.4,0.18,972.34,36.31
3959716,-0.05,0.09,1.13,4.82,2.99,0.18,972.23,36.32
3959754,-0.07,0.11,1.13,5.25,4.27,0.55,972.27,36.31
3959792,-0.06,0.11,1.13,5.31,6.23,0.79,972.28,36.3
3959830,-0.05,0.1,1.04,5.68,8.24,0.79,972.27,36.31
3959906,-0.06,0.11,0.97,5.98,7.51,1.59,972.32,36.29
3959944,-0.04,0.07,0.84,5.74,9.4,1.53,972.29,36.3
3959982,-0.02,0.11,0.88,5.86,7.2,1.71,972.26,36.29
3960071,-0.0,0.09,0.97,6.47,5.07,2.5,972.26,36.28
3960109,-0.02,0.09,1.03,6.77,3.23,2.44,972.28,36.27
3960147,-0.04,0.08,0.94,6.9,2.14,2.69,972.22,36.29
3960185,-0.02,0.1,0.9,6.84,2.26,2.32,972.3,36.3
3960224,-0.0,0.11,0.88,7.08,2.01,2.2,972.22,36.3
3960262,-0.0,0.09,0.85,7.45,1.22,2.5,972.23,36.29
3960311,-0.03,0.1,0.83,7.39,0.61,2.32,972.11,36.29
3960349,-0.06,0.09,0.86,7.2,2.75,2.08,972.14,36.29
3960387,-0.05,0.08,0.88,7.2,2.2,2.08,972.13,36.29
3960425,-0.03,0.07,0.82,6.53,3.85,2.2,972.06,36.29
3960463,-0.05,0.09,0.71,6.35,4.03,2.14,972.2,36.3
3960501,-0.02,0.11,0.68,6.59,4.94,2.14,972.18,36.29
3960539,-0.03,0.1,0.67,6.84,5.25,2.56,972.12,36.29
3960577,-0.02,0.07,0.62,6.71,4.46,2.5,972.11,36.3
3960615,-0.03,0.08,0.61,6.77,3.66,2.44,972.14,36.31
3960653,-0.04,0.08,0.59,6.84,3.78,2.62,972.11,36.31
3960703,-0.0,0.07,0.57,6.77,1.71,2.99,972.14,36.29
3960741,-0.02,0.06,0.6,6.9,0.79,2.99,972.04,36.31
3960779,-0.01,0.05,0.51,6.96,0.06,3.05,972.03,36.29
3960817,-0.04,0.08,0.49,7.14,-1.22,3.3,972.12,36.3
3960855,-0.05,0.07,0.41,7.26,-0.73,3.42,972.04,36.3
3960893,-0.01,0.06,0.39,7.26,-2.14,3.17,972.01,36.29
3960931,-0.02,0.08,0.43,7.08,-1.89,3.05,972.04,36.3
3960969,-0.02,0.06,0.38,6.53,-1.95,3.36,971.99,36.3
3961007,0.01,0.05,0.42,6.1,-2.56,3.17,972.01,36.3
3961045,-0.05,0.06,0.45,5.13,-3.42,3.17,972.03,36.3
3961095,-0.01,0.03,0.48,4.33,-3.17,3.72,971.9,36.29
3961133,0.0,0.02,0.53,3.05,-3.11,3.36,971.97,36.29
3961171,-0.02,0.03,0.6,2.08,-4.39,3.36,971.88,36.29
3961209,-0.01,0.04,0.65,1.22,-4.88,3.72,971.97,36.31
3961247,-0.01,0.04,0.74,0.79,-5.19,3.48,971.9,36.3
3961285,-0.0,0.03,0.78,0.43,-4.21,3.66,971.86,36.31
3961323,-0.02,0.03,0.88,0.85,-5.13,3.72,971.83,36.32
3961361,-0.03,0.04,0.92,1.16,-4.76,3.91,971.83,36.32
3961399,-0.02,0.02,0.89,1.46,-4.09,3.78,971.94,36.34
3961437,-0.03,0.04,0.91,2.08,-3.85,3.6,971.81,36.32
3961487,0.01,0.02,0.86,2.81,-2.81,3.78,971.92,36.31
3961525,-0.02,0.04,0.82,3.78,-2.56,3.48,971.86,36.31
3961563,0.01,0.04,0.81,4.03,-2.01,3.48,971.94,36.3
3961601,-0.02,0.04,0.79,4.21,-2.14,3.42,971.9,36.32
3961639,-0.02,0.04,0.77,3.97,-2.2,3.72,971.87,36.32
3961677,-0.03,0.04,0.78,3.48,-2.2,3.48,971.74,36.32
3961715,-0.03,0.05,0.79,2.81,-3.17,3.54,971.87,36.32
3961753,0.0,0.04,0.86,2.2,-4.09,3.42,971.81,36.32
3961791,-0.02,0.05,0.85,1.83,-5.31,3.54,971.89,36.31
3961841,0.03,0.03,0.95,1.89,-5.37,3.6,971.76,36.3
3961879,0.04,0.03,0.99,1.65,-6.65,3.54,971.79,36.31
3961917,0.01,0.05,1.03,1.4,-6.47,3.78,971.71,36.31
3961955,0.03,0.05,1.05,1.22,-7.02,3.72,971.79,36.3
3961993,0.02,0.04,1.18,1.4,-6.9,3.66,971.75,36.3
3962031,-0.0,0.03,1.09,1.1,-5.74,3.85,971.83,36.32
3962069,0.04,0.05,1.15,1.22,-3.05,3.6,971.79,36.32
3962107,0.02,0.05,1.05,1.1,-1.59,3.3,971.78,36.32
3962145,0.01,0.08,1.08,0.98,-1.1,3.66,971.85,36.33
3962183,-0.01,0.05,1.05,0.98,0.37,3.66,971.81,36.32
3962232,-0.01,0.05,1.04,1.34,3.23,3.66,971.85,36.31
3962270,-0.0,0.05,1.09,1.46,4.64,3.66,971.85,36.29
3962308,0.01,0.05,1.16,1.89,3.42,3.72,971.88,36.33
3962346,-0.0,0.05,1.12,2.32,6.16,3.72,971.88,36.33
3962385,0.01,0.06,1.1,2.5,7.26,3.97,971.9,36.33
3962422,0.03,0.08,1.11,2.99,7.39,3.78,971.95,36.33
3962461,-0.01,0.06,1.14,3.54,6.84,3.85,971.89,36.32
3962499,0.02,0.05,1.09,3.36,6.96,4.46,971.97,36.32
3962537,0.02,0.07,1.23,3.36,5.49,4.27,971.96,36.33
3962575,0.02,0.06,1.14,2.93,5.0,4.58,971.97,36.32
3962624,-0.01,0.04,1.24,3.23,2.08,5.07,971.95,36.31
3962662,0.03,0.03,1.11,3.05,2.08,4.94,972.0,36.31
3962700,0.03,0.06,1.17,2.62,-0.85,5.07,972.0,36.31
3962738,0.02,0.04,1.05,2.62,-0.43,5.0,972.01,36.31
3962776,0.01,0.02,0.99,2.14,-1.4,5.13,972.05,36.33
3962814,0.03,0.03,1.01,2.08,-1.4,4.82,972.04,36.33
3962852,-0.01,0.02,0.97,1.89,-1.46,4.88,972.06,36.33
3962890,-0.01,0.02,0.95,1.77,-0.98,4.76,972.03,36.33
3962928,-0.0,0.02,0.94,1.1,0.24,4.58,972.05,36.33
3962966,-0.04,0.04,0.98,1.04,1.89,4.64,972.07,36.31
3963042,-0.01,0.01,0.96,0.92,4.76,4.46,972.09,36.29
3963080,-0.01,0.03,1.03,1.04,6.84,4.52,972.06,36.31
3963118,0.01,0.01,0.99,1.34,7.87,5.0,972.11,36.32
3963207,-0.02,-0.01,0.99,2.2,10.8,5.07,972.1,36.27
3963245,0.02,0.03,1.1,2.69,8.3,5.43,972.14,36.29
3963283,0.01,0.02,1.05,2.99,10.86,5.43,972.12,36.31
3963321,-0.02,0.02,0.94,3.54,10.62,5.74,972.22,36.3
3963359,-0.0,0.03,0.99,4.09,10.13,5.68,972.17,36.3
3963397,0.01,0.01,0.82,4.03,9.34,5.92,972.1,36.3
3963435,-0.02,0.03,0.94,4.46,8.54,5.98,972.11,36.29
3963485,0.02,-0.01,0.75,4.09,11.72,5.98,972.19,36.29
3963523,0.0,0.03,0.83,4.39,7.93,5.8,972.14,36.3
3963561,0.01,0.02,0.74,4.21,9.95,5.8,972.15,36.3
3963599,0.04,0.02,0.78,4.03,7.32,5.8,972.15,36.29
3963637,0.03,0.02,0.84,3.72,8.54,5.55,972.07,36.31
3963675,0.02,-0.0,0.71,2.38,7.75,5.74,972.13,36.31
3963713,0.01,0.02,0.81,1.53,6.16,5.98,972.11,36.31
3963751,0.04,-0.0,0.7,0.43,8.06,5.43,972.09,36.31
3963789,0.04,0.02,0.87,-0.31,4.52,5.31,972.11,36.31
3963827,0.07,-0.0,0.85,-1.04,6.1,5.19,972.06,36.3
3963876,0.03,0.0,1.03,-0.98,3.48,5.0,972.08,36.31
3963914,0.04,-0.01,1.02,-1.1,4.39,4.88,972.09,36.33
3963952,0.04,0.02,1.16,-0.73,1.16,4.58,972.05,36.31
3963991,0.06,0.02,1.23,-0.43,2.32,4.33,972.06,36.31
3964029,0.05,-0.0,1.18,-0.49,1.22,3.78,972.05,36.31
3964066,0.02,0.01,1.28,0.12,0.12,3.66,971.99,36.31
3964104,0.04,-0.0,1.25,0.49,1.34,3.36,972.13,36.33
3964142,0.02,0.01,1.23,0.79,2.69,3.11,972.11,36.32
3964180,0.03,0.0,1.21,2.08,3.66,2.56,972.14,36.32
3964218,0.04,-0.01,1.15,3.11,4.76,2.08,972.15,36.32
3964268,0.04,0.0,1.1,4.15,3.42,1.89,972.16,36.29
3964306,-0.0,-0.01,0.98,4.88,4.94,1.65,972.2,36.32
3964344,0.0,-0.01,0.94,4.82,4.03,1.46,972.19,36.31
3964382,0.03,-0.02,0.96,4.52,3.54,1.53,972.23,36.32
3964420,0.01,-0.04,0.82,3.78,3.3,1.34,972.18,36.32
3964458,-0.01,-0.01,0.87,3.36,0.55,1.22,972.15,36.31
3964496,0.04,-0.03,0.88,2.56,1.65,0.92,972.14,36.33
3964534,0.05,-0.05,0.79,1.46,2.08,0.79,972.17,36.31
3964572,0.01,-0.02,0.87,0.55,1.28,0.61,972.11,36.32
3964622,-0.01,-0.06,0.83,-0.55,3.91,0.31,972.08,36.3
3964660,0.0,-0.03,0.95,-1.4,3.54,0.06,972.13,36.32
3964698,-0.0,-0.03,0.94,-1.65,5.86,0.18,972.12,36.31
3964736,-0.02,-0.04,0.98,-2.01,4.76,0.12,972.13,36.31
3964774,-0.02,-0.03,1.06,-2.26,5.68,0.18,972.09,36.32
3964812,-0.02,-0.03,1.1,-2.2,6.23,0.24,972.1,36.3
3964850,-0.04,-0.03,1.16,-2.01,5.62,0.55,972.15,36.32
3964888,-0.04,-0.03,1.2,-1.28,4.7,0.55,972.08,36.32
3964926,-0.05,-0.03,1.22,-1.04,4.33,0.73,972.05,36.32
3964964,-0.05,-0.02,1.31,-0.67,4.58,0.79,972.09,36.32
3965014,-0.02,-0.02,1.29,-0.67,5.0,1.34,972.06,36.31
3965052,-0.06,-0.03,1.29,-0.43,3.42,1.65,972.07,36.33
3965090,-0.04,-0.06,1.2,-0.43,3.6,1.71,972.14,36.31
3965128,-0.0,-0.03,1.14,-0.85,1.16,2.32,972.13,36.33
3965166,-0.05,-0.02,1.08,-0.79,-0.43,2.69,972.17,36.33
3965204,-0.05,-0.06,0.87,-1.1,-0.98,2.75,972.12,36.32
3965242,-0.01,-0.03,1.02,-1.46,-3.85,3.17,972.08,36.32
3965280,-0.01,-0.07,0.94,-2.38,-2.26,3.42,972.1,36.33
3965318,-0.03,-0.03,1.01,-2.99,-4.64,3.66,972.14,36.33
3965367,-0.05,-0.04,1.06,-3.42,-1.1,3.6,972.04,36.32
3965405,-0.05,-0.05,1.15,-4.21,-2.75,3.78,972.06,36.31
3965444,-0.06,-0.04,1.22,-3.85,-1.83,3.91,971.97,36.29
3965482,-0.01,-0.03,1.21,-3.6,-1.34,3.91,971.94,36.31
3965520,-0.01,-0.03,1.3,-3.91,0.31,3.78,971.91,36.32
3965558,-0.06,-0.03,1.38,-3.85,0.55,4.33,971.95,36.33
3965596,-0.07,-0.03,1.5,-3.91,1.04,4.64,971.86,36.33
3965634,-0.04,-0.05,1.45,-4.39,4.58,4.52,971.88,36.32
3965672,-0.04,0.01,1.6,-4.27,1.71,4.88,971.9,36.33
3965710,0.0,-0.02,1.59,-3.85,3.91,5.0,971.87,36.33
3965760,-0.05,0.02,1.64,-4.09,2.44,5.43,971.96,36.32
3965798,-0.04,-0.02,1.65,-3.23,5.0,5.43,972.0,36.32
3965836,-0.02,-0.04,1.49,-3.36,3.36,5.43,972.02,36.32
3965874,-0.07,0.02,1.51,-3.05,4.64,5.74,972.01,36.31
3965912,0.0,0.0,1.4,-2.69,4.58,5.37,971.97,36.31
3965950,0.0,-0.01,1.36,-2.87,7.45,4.94,972.02,36.33
3965988,0.01,-0.01,1.33,-2.08,8.12,5.0,972.06,36.32
3966026,0.02,-0.04,1.31,-1.89,8.85,4.94,972.0,36.32
3966064,-0.04,-0.03,1.2,-2.32,10.62,5.0,972.06,36.31
3966139,0.03,-0.02,1.31,-1.46,11.11,4.58,972.0,36.29
3966177,-0.02,-0.03,1.15,-1.89,10.5,4.21,972.04,36.31
3966215,0.04,0.0,1.26,-1.65,10.25,4.58,971.99,36.31
3966305,0.02,0.0,1.16,-2.2,10.62,4.27,971.98,36.29
3966343,0.01,-0.02,1.11,-2.2,11.6,4.03,971.95,36.29
3966381,0.01,-0.0,1.19,-2.99,9.83,3.97,971.92,36.31
3966419,0.03,0.0,1.27,-3.42,8.85,4.03,971.85,36.31
3966457,0.03,0.0,1.3,-4.21,7.87,3.85,971.77,36.32
3966495,0.02,0.03,1.35,-5.0,7.39,3.97,971.86,36.3
3966533,0.02,0.04,1.47,-5.31,5.62,4.03,971.72,36.31
3966583,0.01,0.04,1.5,-5.49,3.48,4.03,971.79,36.31
3966621,0.01,0.06,1.62,-5.37,2.32,3.91,971.7,36.29
3966659,0.03,0.06,1.56,-5.0,3.48,3.66,971.62,36.3
3966697,-0.01,0.07,1.67,-4.33,3.3,3.66,971.63,36.31
3966735,0.01,0.06,1.6,-3.48,5.43,3.48,971.68,36.31
3966773,-0.02,0.06,1.64,-2.56,5.98,3.42,971.64,36.31
3966811,0.01,0.07,1.64,-1.77,7.51,3.23,971.64,36.32
3966849,-0.0,0.08,1.61,-1.16,6.84,3.11,971.66,36.31
3966887,-0.01,0.08,1.6,-0.49,7.57,3.23,971.75,36.3
3966925,-0.0,0.07,1.5,0.49,8.97,3.05,971.69,36.32
3966975,-0.01,0.08,1.42,1.16,9.09,3.42,971.65,36.3
3967013,-0.02,0.07,1.29,1.71,9.34,3.42,971.72,36.32
3967051,0.0,0.07,1.23,2.14,9.83,3.05,971.7,36.33
3967089,-0.02,0.06,1.18,2.44,10.74,3.17,971.65,36.32
3967127,0.0,0.06,1.13,3.05,11.9,2.99,971.72,36.32
3967165,0.02,0.08,1.09,3.36,12.27,3.11,971.75,36.33
3967203,0.0,0.07,1.09,3.54,12.21,2.81,971.64,36.33
3967241,0.01,0.05,1.02,3.48,12.21,2.93,971.56,36.31
3967279,0.0,0.07,1.07,3.23,10.25,3.05,971.58,36.33
3967317,0.01,0.06,1.11,2.99,9.58,3.3,971.51,36.33
3967367,0.01,0.06,1.06,2.62,7.26,3.17,971.43,36.3
3967405,0.01,0.07,1.14,2.93,5.92,2.87,971.44,36.31
3967443,0.02,0.05,1.11,2.69,3.05,3.3,971.41,36.3
3967481,-0.01,0.04,1.07,2.5,2.38,3.23,971.34,36.3
3967519,-0.0,0.06,1.1,2.5,1.04,2.99,971.37,36.31
3967557,-0.0,0.06,1.1,2.56,0.37,3.23,971.39,36.33
3967595,-0.0,0.05,1.05,2.81,0.37,3.17,971.33,36.32
3967633,-0.0,0.05,1.04,2.69,-0.12,3.11,971.27,36.33
3967671,0.01,0.05,1.02,3.05,0.31,2.81,971.27,36.32
3967709,-0.0,0.04,0.99,3.05,-0.92,2.87,971.29,36.33
3967759,0.02,0.04,1.02,3.78,-1.22,2.5,971.28,36.3
3967797,-0.0,0.03,0.97,3.78,-1.04,2.32,971.28,36.32
3967835,0.0,0.03,0.94,4.27,-0.98,2.56,971.19,36.31
3967873,-0.02,0.03,0.91,4.88,-0.61,1.95,971.28,36.31
3967911,-0.03,0.03,0.82,5.25,-0.31,1.89,971.27,36.32
3967949,-0.04,0.04,0.76,5.62,0.37,2.01,971.21,36.32
3967987,-0.02,0.02,0.71,5.55,0.43,2.2,971.18,36.31
3968025,-0.03,0.03,0.67,6.04,-0.67,2.14,971.18,36.32
3968063,-0.04,0.03,0.69,6.29,-0.31,2.14,971.17,36.31
3968113,-0.04,0.02,0.57,5.55,-0.73,2.44,971.15,36.31
3968151,-0.02,0.04,0.6,5.49,-2.14,2.32,971.12,36.31
3968189,-0.03,0.02,0.5,5.0,-1.46,2.5,971.1,36.32
3968227,-0.01,0.02,0.56,4.09,-2.75,2.81,971.0,36.32
3968265,-0.03,0.01,0.59,3.05,-1.95,3.11,971.01,36.33
3968303,-0.04,0.01,0.6,1.71,-2.69,3.23,970.91,36.32
3968341,-0.04,0.01,0.74,0.85,-3.17,3.48,970.86,36.32
3968379,-0.04,-0.0,0.75,-0.31,-1.46,3.3,970.87,36.32
3968417,-0.05,0.02,0.89,-0.55,-2.32,3.78,970.8,36.31
3968455,-0.03,0.0,0.87,-1.04,0.61,4.15,970.8,36.33
3968505,-0.06,0.03,1.01,-0.73,0.61,4.27,970.72,36.31
3968543,-0.06,0.01,0.97,-0.73,3.42,4.58,970.76,36.32
3968581,-0.02,0.03,1.1,-0.49,3.54,4.52,970.75,36.32
3968619,-0.05,0.01,1.01,0.43,6.04,4.39,970.74,36.33
3968657,-0.01,0.02,0.94,0.49,7.08,4.76,970.74,36.32
3968695,0.01,0.03,0.99,1.1,9.46,4.52,970.79,36.33
3968733,-0.03,0.01,0.79,1.53,11.23,4.39,970.82,36.32
3968771,-0.03,0.04,0.89,2.08,8.67,5.0,970.78,36.32
3968809,0.03,0.01,0.71,1.77,12.39,4.64,970.73,36.34
3968847,0.01,0.03,0.82,1.59,8.54,4.58,970.68,36.33
3968896,0.03,0.03,0.77,1.46,10.19,4.76,970.59,36.31
3968934,0.01,0.04,0.88,1.34,7.63,4.52,970.56,36.33
3968973,0.03,0.02,0.94,0.98,9.28,4.27,970.62,36.34
3969011,0.03,0.04,0.96,0.98,8.06,4.33,970.58,36.33
3969049,0.01,0.05,1.07,1.34,8.54,4.27,970.49,36.32
3969086,0.05,0.03,1.03,1.22,7.39,3.91,970.47,36.32
3969124,0.03,0.05,1.14,1.34,6.04,3.66,970.39,36.31
3969163,0.02,0.04,1.02,1.4,6.1,3.91,970.47,36.32
3969201,0.02,0.05,1.06,1.95,5.31,3.72,970.48,36.34
3969239,0.02,0.06,1.03,2.38,5.19,3.48,970.52,36.33
3969314,0.03,0.06,1.08,3.11,4.09,3.54,970.47,36.3
3969352,0.03,0.06,1.13,3.6,1.65,3.48,970.38,36.3
3969391,-0.01,0.05,1.09,3.6,1.59,3.6,970.43,36.32
3969480,0.02,0.07,0.99,3.48,1.53,3.42,970.39,36.28
3969518,0.01,0.07,0.94,3.3,0.49,2.99,970.38,36.29
3969556,-0.0,0.08,1.0,3.3,1.16,3.36,970.3,36.31
3969594,0.02,0.05,0.95,3.36,1.22,3.05,970.26,36.3
3969632,-0.0,0.07,0.98,3.3,1.28,2.69,970.22,36.31
3969670,0.0,0.08,0.95,2.87,0.92,3.05,970.25,36.31
3969708,0.01,0.07,0.99,3.05,0.49,2.93,970.26,36.32
3969758,0.0,0.07,1.02,3.54,0.24,2.87,970.32,36.31
3969796,0.02,0.06,1.01,4.21,-1.34,2.87,970.28,36.31
3969834,0.01,0.08,0.95,4.7,-1.46,2.87,970.28,36.31
3969872,0.01,0.09,0.89,5.43,-2.81,2.93,970.35,36.32
3969910,-0.0,0.06,0.8,5.8,-3.42,3.11,970.32,36.31
3969948,-0.04,0.07,0.72,6.04,-4.21,3.3,970.3,36.31
3969986,-0.04,0.07,0.66,7.08,-4.88,3.11,970.33,36.33
3970024,-0.0,0.08,0.57,7.69,-4.82,3.05,970.33,36.32
3970062,-0.01,0.09,0.5,8.12,-3.78,3.36,970.33,36.33
3970112,-0.02,0.07,0.51,8.97,-2.32,3.6,970.22,36.3
3970150,-0.06,0.06,0.46,8.67,-1.28,3.78,970.22,36.32
3970188,-0.07,0.09,0.53,8.67,-0.49,4.09,970.2,36.32
3970226,-0.05,0.05,0.44,7.39,2.56,4.09,970.2,36.32
3970264,-0.05,0.06,0.54,6.47,3.05,4.33,970.15,36.32
3970302,-0.03,0.05,0.58,5.37,5.55,4.64,970.08,36.31
3970340,-0.03,0.05,0.59,4.7,5.62,5.0,970.1,36.32
3970378,-0.03,0.06,0.72,4.15,6.47,5.31,970.1,36.32
3970416,-0.03,0.04,0.7,3.91,8.48,5.19,970.13,36.33
3970454,-0.03,0.05,0.8,4.27,7.87,5.62,970.06,36.33
3970504,-0.01,0.02,0.78,4.82,8.42,6.1,970.15,36.32
3970542,-0.02,0.04,0.78,4.94,7.08,6.16,970.1,36.33
3970580,-0.01,0.04,0.77,5.25,6.53,6.47,970.13,36.32
3970618,-0.01,0.01,0.71,5.31,5.92,6.71,970.11,36.31
3970656,-0.05,0.03,0.77,5.62,3.42,6.96,970.01,36.31
3970694,-0.0,0.01,0.68,5.62,3.91,6.96,970.1,36.33
3970732,-0.03,0.01,0.67,5.0,2.56,7.32,970.05,36.33
3970770,-0.02,0.0,0.61,4.7,2.69,7.51,970.07,36.34
3970808,-0.03,-0.0,0.61,4.09,1.34,7.57,970.02,36.33
3970846,-0.03,0.01,0.55,3.66,2.44,7.63,970.0,36.33
3970896,-0.04,0.01,0.57,2.32,0.92,8.0,970.02,36.32
3970934,-0.06,-0.02,0.54,1.1,1.59,8.12,969.99,36.33
3970972,-0.03,-0.02,0.62,-0.12,0.79,8.18,969.94,36.33
3971010,-0.04,-0.01,0.76,-1.22,1.59,8.18,969.93,36.33
3971048,-0.02,-0.01,0.76,-2.44,2.2,8.61,969.87,36.32
3971086,-0.01,0.0,0.95,-2.5,2.56,8.61,969.83,36.32
3971124,-0.04,-0.01,0.95,-2.56,5.07,8.48,969.78,36.32
3971162,-0.05,0.01,1.02,-2.01,3.72,8.91,969.88,36.33
3971200,-0.04,0.01,1.03,-1.34,4.76,8.85,969.92,36.34
3971238,-0.02,-0.01,1.01,-1.16,7.14,8.97,969.86,36.33
3971288,-0.01,0.0,1.06,-0.37,7.87,8.97,969.89,36.33
3971326,-0.01,-0.0,1.03,0.24,9.22,9.28,969.91,36.33
3971364,0.01,-0.0,1.01,0.12,9.34,9.28,969.91,36.33
3971402,0.01,0.01,1.04,0.37,8.79,9.16,969.9,36.33
3971440,0.01,0.01,0.98,0.43,7.45,9.52,969.81,36.33
3971478,0.01,0.02,0.95,0.37,5.37,9.46,969.81,36.33
3971516,0.01,0.01,0.97,0.18,4.52,9.58,969.87,36.33
3971554,0.02,0.0,0.94,-0.06,4.03,9.52,969.85,36.32
3971592,0.03,0.0,1.02,0.12,1.46,9.46,969.8,36.34
3971630,0.03,0.02,1.06,-0.43,0.12,9.34,969.74,36.34
3971680,0.05,0.02,1.11,-0.49,0.98,9.16,969.73,36.33
3971718,0.05,0.04,1.22,-0.92,0.31,9.03,969.66,36.32
3971756,0.02,0.03,1.2,-0.85,1.22,8.73,969.67,36.33
3971794,0.03,0.04,1.22,-1.22,1.04,8.61,969.73,36.34
3971832,0.07,0.05,1.3,-1.16,0.67,8.36,969.72,36.34
3971870,0.01,0.04,1.24,-1.04,-0.43,8.0,969.79,36.34
3971908,0.04,0.05,1.34,-0.79,-1.22,7.93,969.65,36.33
3971946,0.03,0.03,1.3,-0.67,-0.31,7.51,969.7,36.34
3971984,0.05,0.06,1.38,-0.49,-1.46,7.32,969.65,36.33
3972034,0.03,0.04,1.31,0.31,-0.67,7.14,969.69,36.33
3972072,0.0,0.06,1.32,0.49,-0.73,6.77,969.74,36.34
3972110,0.04,0.05,1.34,1.16,-0.06,6.53,969.67,36.33
3972148,0.01,0.04,1.29,1.65,0.49,6.23,969.71,36.34
3972186,0.03,0.05,1.27,1.95,2.5,6.04,969.69,36.33
3972224,0.02,0.04,1.25,2.56,3.91,5.86,969.72,36.35
3972262,0.04,0.04,1.15,2.99,3.36,5.86,969.76,36.34
3972300,0.03,0.04,1.09,3.36,5.25,5.8,969.8,36.34
3972338,0.02,0.04,0.98,3.48,7.87,5.49,969.81,36.34
3972376,0.02,0.04,0.97,3.66,7.39,5.25,969.77,36.33
3972453,0.03,0.02,0.84,2.81,7.63,5.07,969.79,36.31
3972491,0.03,0.04,0.85,2.56,8.12,4.88,969.79,36.32
3972529,0.02,0.03,0.8,2.08,8.18,4.7,969.77,36.33
3972619,0.05,0.0,0.88,0.55,7.63,4.64,969.74,36.28
3972657,0.01,0.02,0.89,0.12,8.61,4.46,969.81,36.31
3972695,0.03,0.01,0.85,-0.24,7.08,4.33,969.79,36.32
3972733,0.01,0.02,0.94,-0.37,6.71,4.27,969.79,36.31
3972771,0.03,-0.02,0.83,-0.79,6.84,4.15,969.79,36.31
3972809,0.02,0.01,0.88,-1.1,4.46,4.21,969.77,36.31
3972847,0.01,0.01,0.92,-0.79,4.88,3.85,969.68,36.32
3972897,0.02,-0.0,0.97,-1.04,4.58,3.85,969.73,36.3
3972935,0.02,0.01,1.03,-1.28,4.82,3.66,969.73,36.32
3972973,-0.0,-0.0,1.01,-1.16,4.52,3.72,969.7,36.31
3973011,0.02,0.02,1.09,-1.1,4.76,3.6,969.68,36.33
3973049,0.02,0.01,1.06,-0.98,5.07,3.54,969.73,36.33
3973087,-0.0,0.01,1.1,-0.55,4.21,3.54,969.69,36.32
3973125,-0.0,0.02,1.11,-0.12,4.33,3.48,969.69,36.35
3973163,0.01,0.01,1.15,0.67,4.27,3.54,969.67,36.32
3973201,-0.01,0.02,1.15,1.34,3.72,3.78,969.67,36.33
3973239,-0.02,0.03,1.13,1.71,3.91,3.97,969.67,36.34
3973289,-0.01,0.01,1.13,2.69,4.39,3.97,969.69,36.32
3973327,-0.01,0.02,1.1,3.11,4.03,4.03,969.66,36.33
3973365,0.01,0.02,1.08,3.3,3.72,4.21,969.63,36.34
3973403,-0.01,0.02,0.96,3.3,3.54,4.27,969.67,36.33
3973441,-0.02,0.02,0.95,3.17,3.42,4.27,969.66,36.34
3973479,-0.02,0.02,0.93,2.69,3.36,4.52,969.63,36.33
3973517,-0.02,0.02,0.94,2.2,3.17,4.52,969.71,36.34
3973555,-0.01,0.02,0.97,1.83,2.75,4.76,969.64,36.34
3973593,-0.01,0.03,0.94,1.4,2.93,4.88,969.73,36.33
3973631,-0.02,0.02,0.96,1.22,2.69,5.13,969.62,36.34
3973681,-0.01,0.03,0.97,0.79,2.14,5.19,969.65,36.32
3973719,-0.0,0.02,0.97,0.55,1.71,5.31,969.59,36.33
3973757,-0.0,0.03,1.01,0.49,1.34,5.55,969.7,36.34
3973795,0.01,0.03,1.05,0.79,1.77,5.74,969.57,36.33
3973833,-0.01,0.03,1.01,0.79,1.34,5.86,969.66,36.34
3973871,-0.0,0.03,1.03,1.04,1.4,6.04,969.69,36.35
3973909,-0.01,0.03,1.06,1.22,1.34,6.04,969.57,36.33
3973947,-0.01,0.02,1.04,1.77,1.89,6.1,969.57,36.34
3973985,-0.01,0.03,1.05,1.59,2.56,6.16,969.57,36.35
3974023,0.01,0.03,1.06,1.53,3.54,6.41,969.58,36.34
3974073,0.0,0.02,1.1,1.46,4.33,6.47,969.53,36.33
3974111,0.01,0.03,1.12,1.28,4.76,6.71,969.57,36.34
3974149,0.01,0.03,1.09,1.46,5.07,6.71,969.49,36.32
3974187,0.02,0.03,1.09,1.1,4.46,6.71,969.54,36.33
3974225,0.0,0.02,1.07,1.16,5.0,6.77,969.56,36.34
3974263,0.01,0.02,1.03,1.1,4.82,6.9,969.57,36.33
3974301,0.01,0.02,1.02,1.04,5.13,6.84,969.51,36.34
3974339,0.02,0.02,1.02,0.79,5.37,6.77,969.51,36.33
3974377,0.02,0.01,1.02,0.61,4.46,6.77,969.48,36.32
3974415,0.02,0.01,1.01,-0.06,5.07,6.84,969.51,36.35
3974465,0.02,0.01,1.02,-0.79,4.94,6.84,969.53,36.34
3974503,0.01,0.01,1.03,-1.4,5.55,6.84,969.49,36.34
3974541,0.01,0.01,1.04,-1.53,5.13,6.77,969.51,36.35
3974579,0.02,0.01,1.1,-1.95,5.49,6.77,969.49,36.35
3974617,0.02,0.01,1.16,-2.08,5.25,6.71,969.48,36.34
3974655,0.01,0.01,1.19,-1.83,5.31,6.77,969.46,36.34
3974693,0.02,0.02,1.16,-1.89,5.68,6.71,969.44,36.35
3974731,0.01,0.03,1.2,-1.46,5.13,6.71,969.45,36.33
3974769,0.03,0.02,1.18,-1.4,5.55,6.59,969.38,36.35
3974807,0.02,0.01,1.15,-1.16,5.74,6.65,969.54,36.36
3974856,0.01,0.02,1.17,-1.16,5.43,6.59,969.46,36.33
3974894,0.0,0.02,1.18,-1.1,5.74,6.47,969.33,36.33
3974932,0.02,0.04,1.28,-0.98,5.8,6.23,969.37,36.34
3974971,0.0,0.05,1.31,-1.4,7.08,6.16,969.33,36.34
3975009,0.02,0.02,1.36,-1.53,10.38,6.1,969.31,36.34
3975047,0.04,0.02,1.48,-1.83,8.79,6.1,969.32,36.35
3975085,0.01,0.04,1.53,-2.08,7.63,6.29,969.31,36.33
3975123,-0.01,0.04,1.4,-1.83,7.39,6.53,969.34,36.34
3975161,0.0,0.07,1.34,-1.95,7.32,6.47,969.46,36.35
3975211,0.05,0.04,1.26,-1.59,8.67,6.29,969.4,36.33
3975249,0.03,0.04,1.26,-0.37,6.47,6.35,969.41,36.35
3975287,0.05,0.03,1.07,-0.18,9.83,5.98,969.39,36.34
3975325,0.02,0.06,1.05,0.0,8.54,6.04,969.32,36.34
3975363,0.04,0.04,1.12,0.37,8.97,5.86,969.38,36.35
3975401,0.05,0.04,1.14,0.12,8.36,5.49,969.27,36.34
3975439,0.01,0.06,1.27,0.43,9.22,5.62,969.27,36.34
3975477,0.03,0.05,1.24,0.55,10.38,5.25,969.26,36.34
3975515,0.04,0.07,1.39,0.49,10.19,5.25,969.23,36.35
3975553,0.01,0.04,1.35,0.55,11.96,5.31,969.24,36.35
3975629,0.02,0.08,1.44,0.92,13.18,4.88,969.15,36.31
3975667,0.02,0.06,1.41,1.1,10.99,5.07,969.17,36.33
3975705,-0.01,0.08,1.41,1.1,9.52,5.19,969.19,36.33
3975794,0.04,0.04,1.37,1.22,8.85,5.19,969.19,36.3
3975832,-0.01,0.09,1.35,1.1,7.14,5.31,969.14,36.32
3975870,0.02,0.04,1.28,1.89,8.91,5.13,969.07,36.31
3975909,0.07,0.03,1.19,1.53,6.53,5.0,969.18,36.32
3975947,0.02,0.05,1.3,1.77,6.23,4.94,969.13,36.33
3975985,0.04,0.02,1.07,1.71,6.41,4.82,969.1,36.33
3976023,0.02,0.09,1.18,1.71,5.07,4.27,969.11,36.34
3976072,0.05,0.03,1.08,1.89,6.47,4.21,969.06,36.33
3976110,0.05,0.04,1.18,2.01,4.03,3.91,969.06,36.33
3976148,0.03,0.01,1.1,1.89,7.14,3.6,969.03,36.34
3976186,0.05,0.03,1.17,1.46,4.94,3.42,968.97,36.33
3976225,0.06,0.04,1.22,1.46,5.86,3.17,969.01,36.34
3976263,0.03,0.02,1.06,1.1,5.25,2.87,968.96,36.34
3976301,0.03,0.03,1.2,1.4,5.55,2.44,968.95,36.34
3976339,0.05,0.0,1.06,1.28,6.9,2.14,968.99,36.35
3976377,0.04,0.05,1.17,1.83,4.76,2.01,968.98,36.34
3976415,0.05,0.03,1.11,2.38,8.3,1.59,968.99,36.34
3976465,0.05,0.03,1.12,3.11,6.65,1.22,968.94,36.33
3976503,0.03,0.02,1.05,4.03,8.61,1.16,968.95,36.34
3976541,0.02,0.03,1.04,4.33,7.45,0.98,968.93,36.34
3976579,-0.02,0.03,1.02,4.64,9.16,0.98,968.92,36.34
3976617,0.0,0.03,0.96,5.19,8.73,0.92,968.91,36.33
3976655,-0.0,0.03,0.92,5.0,6.1,0.79,968.94,36.35
3976693,0.02,0.03,0.85,5.31,6.59,0.79,968.88,36.33
3976731,0.01,0.03,0.85,5.98,4.82,0.85,968.87,36.34
3976769,0.01,0.02,0.82,5.68,4.03,0.98,968.84,36.35
3976807,-0.0,0.01,0.8,5.74,2.14,0.92,968.86,36.34
3976857,-0.0,0.02,0.81,5.74,0.67,0.92,968.82,36.33
3976895,0.01,0.01,0.81,5.74,-1.1,1.16,968.78,36.33
3976933,-0.01,0.02,0.76,5.43,-0.67,1.16,968.7,36.34
3976971,-0.02,0.01,0.74,5.43,-0.06,0.98,968.69,36.35
3977009,-0.01,0.01,0.72,4.94,-0.24,1.1,968.73,36.35
3977047,-0.04,0.01,0.77,4.7,-1.53,1.34,968.68,36.34
3977085,-0.06,-0.0,0.71,4.27,-0.12,1.4,968.67,36.36
3977123,-0.05,0.01,0.77,3.85,-0.55,1.46,968.64,36.35
3977161,-0.05,-0.0,0.77,3.36,1.89,1.46,968.57,36.35
3977199,-0.06,-0.01,0.77,3.72,-0.18,1.71,968.61,36.34
3977249,-0.06,0.0,0.61,3.42,3.17,2.2,968.52,36.34
3977287,-0.04,0.03,0.62,3.3,3.66,2.26,968.51,36.34
3977325,-0.09,0.0,0.58,3.42,3.97,2.81,968.47,36.35
3977363,-0.08,-0.01,0.51,2.5,3.54,2.93,968.45,36.33
3977401,-0.06,-0.01,0.65,2.69,4.39,3.23,968.5,36.35
3977439,-0.02,-0.03,0.56,2.26,5.92,3.11,968.49,36.34
3977477,-0.02,0.01,0.72,2.2,3.66,3.85,968.51,36.35
3977515,-0.04,-0.03,0.61,1.89,7.2,4.03,968.49,36.35
3977553,-0.07,-0.01,0.7,1.16,4.64,4.33,968.38,36.34
3977591,-0.07,-0.02,0.78,0.92,6.04,4.52,968.39,36.34
3977641,-0.01,-0.02,0.74,-0.61,2.75,4.7,968.45,36.34
3977679,-0.02,-0.02,0.76,-1.71,2.69,4.82,968.41,36.34
3977717,-0.0,-0.03,0.77,-2.56,1.4,4.82,968.46,36.35
3977755,-0.03,-0.03,0.85,-3.78,0.31,5.07,968.39,36.35
3977793,-0.0,-0.04,0.81,-5.37,-2.26,5.25,968.33,36.35
3977831,-0.01,-0.01,1.01,-5.98,-3.72,5.0,968.26,36.36
3977869,0.04,-0.03,0.99,-7.14,-6.53,4.88,968.11,36.35
3977907,0.03,-0.0,1.19,-7.51,-9.28,4.94,968.1,36.34
3977945,0.03,-0.01,1.26,-7.32,-9.09,4.88,968.14,36.37
3977995,0.01,0.0,1.44,-6.35,-10.93,4.46,968.07,36.34
3978033,0.01,-0.01,1.5,-5.19,-10.19,4.27,968.01,36.34
3978071,0.01,-0.0,1.46,-4.27,-11.66,3.72,968.04,36.34
3978109,-0.0,0.01,1.44,-3.42,-10.68,3.36,968.06,36.35
3978147,0.01,0.02,1.4,-2.5,-10.86,2.99,968.06,36.35
3978185,0.0,0.03,1.4,-1.95,-10.25,2.62,968.02,36.34
3978223,-0.01,0.02,1.35,-1.22,-8.61,2.5,968.02,36.35
3978261,-0.0,0.01,1.29,-1.04,-6.35,2.38,968.03,36.34
3978299,-0.01,0.04,1.4,-0.67,-4.7,2.14,968.05,36.37
3978337,-0.04,0.02,1.32,-0.37,-2.62,2.08,967.98,36.35
3978387,-0.01,0.04,1.36,-0.37,-1.83,2.14,968.01,36.34
3978425,-0.01,0.06,1.45,-0.43,-2.08,2.2,967.95,36.35
3978463,-0.02,0.06,1.41,-0.79,-1.89,2.69,967.92,36.35
3978501,-0.01,0.07,1.47,-1.16,-2.5,3.11,967.84,36.35
3978539,-0.03,0.06,1.46,-1.34,-2.56,3.36,967.82,36.35
3978577,-0.03,0.05,1.47,-1.71,-3.85,3.78,967.8,36.35
3978615,-0.03,0.09,1.5,-1.65,-5.13,4.09,967.78,36.35
3978653,-0.03,0.07,1.4,-1.34,-4.03,4.52,967.77,36.36
3978691,-0.02,0.09,1.38,-1.65,-3.54,4.88,967.76,36.35
3978767,-0.04,0.06,1.31,-0.67,-2.87,5.49,967.81,36.34
3978805,-0.06,0.08,1.28,-0.79,-2.2,5.55,967.75,36.34
3978843,-0.05,0.08,1.27,-0.43,-0.49,6.23,967.79,36.35
3978932,-0.05,0.05,1.15,0.37,4.27,7.14,967.79,36.3
3978970,-0.04,0.08,1.12,0.73,5.8,7.63,967.91,36.33
3979008,-0.05,0.07,1.04,1.65,7.26,8.3,967.87,36.33
3979046,-0.0,0.06,0.97,2.14,8.61,8.67,967.84,36.34
3979085,-0.0,0.06,1.03,2.5,9.46,8.79,967.86,36.33
3979122,-0.02,0.05,0.94,2.62,9.89,9.4,967.83,36.34
3979160,-0.01,0.05,0.93,2.99,8.91,9.64,967.78,36.33
3979210,0.02,0.05,0.94,3.23,10.25,9.64,967.78,36.34
3979248,0.04,0.05,0.98,3.17,9.22,9.77,967.74,36.33
3979286,0.03,0.05,0.93,2.81,9.95,9.95,967.66,36.33
3979324,-0.02,0.06,0.95,2.87,11.78,10.13,967.67,36.33
3979363,-0.0,0.03,0.91,2.5,10.68,10.31,967.7,36.37
3979401,-0.01,0.05,0.94,1.53,8.91,10.5,967.59,36.34
3979439,-0.02,0.05,0.97,0.98,9.16,10.56,967.55,36.34
3979477,0.04,0.03,0.93,0.06,8.48,10.5,967.63,36.34
3979515,0.06,0.05,1.04,-0.24,8.06,10.31,967.56,36.34
3979553,0.03,0.03,1.01,0.0,7.45,10.74,967.59,36.33
3979603,0.03,0.04,1.07,0.55,6.23,10.99,967.57,36.34
3979641,0.03,0.04,1.09,1.34,6.77,10.44,967.57,36.35
3979679,0.02,0.03,1.04,1.46,6.41,10.31,967.55,36.35
3979717,0.02,0.04,1.06,2.14,5.92,10.31,967.59,36.33
3979755,0.02,0.03,0.96,2.81,6.04,10.01,967.58,36.35
3979793,0.05,0.04,0.91,3.17,6.16,9.58,967.55,36.35
3979831,0.03,0.02,0.86,3.17,6.1,9.7,967.48,36.34
3979869,0.04,0.02,0.83,2.81,6.35,9.46,967.52,36.36
3979907,0.03,0.03,0.86,2.93,7.93,9.03,967.49,36.35
3979957,0.04,0.03,0.84,2.81,8.36,8.91,967.44,36.35
3979995,0.02,0.03,0.84,2.81,8.3,8.54,967.41,36.36
3980033,0.04,0.02,0.8,2.62,10.8,8.3,967.37,36.33
3980071,0.04,0.03,0.85,2.38,10.44,8.06,967.34,36.35
3980109,0.05,0.03,0.87,2.26,12.7,8.0,967.34,36.34
3980147,0.04,0.01,0.9,1.95,11.96,7.93,967.27,36.33
3980185,0.03,0.03,0.91,1.53,11.72,7.69,967.29,36.35
3980223,0.07,0.03,1.03,1.46,11.84,7.45,967.28,36.34
3980261,0.04,0.01,0.99,1.4,10.31,6.96,967.29,36.35
3980299,0.05,0.03,1.01,1.1,8.3,7.08,967.25,36.36
3980349,0.05,0.03,0.99,1.1,5.13,6.71,967.31,36.33
3980387,0.05,0.03,0.97,0.92,3.66,6.47,967.28,36.35
3980425,0.05,0.03,0.98,0.61,1.59,6.16,967.32,36.35
3980463,0.05,0.03,1.07,0.79,-0.37,6.29,967.23,36.34
3980501,0.05,0.02,1.05,0.79,-0.18,5.68,967.2,36.35
3980539,0.03,0.04,1.1,0.79,-1.65,5.37,967.15,36.35
3980577,0.02,0.04,1.08,0.79,-1.22,5.43,967.14,36.35
3980615,0.04,0.04,1.08,0.73,-1.95,5.07,967.14,36.36
3980653,0.0,0.03,1.06,0.79,-0.67,4.88,967.11,36.35
3980691,0.02,0.05,1.05,1.34,-1.16,4.64,967.16,36.35
3980741,-0.0,0.04,1.06,2.32,2.56,4.52,967.17,36.34
3980779,-0.01,0.05,1.0,3.78,3.05,4.39,967.21,36.34
3980817,-0.02,0.06,0.97,5.31,6.84,4.46,967.23,36.34
3980855,-0.0,0.05,0.83,6.1,6.77,4.46,967.15,36.37
3980893,0.0,0.07,0.82,6.53,7.26,4.27,967.16,36.37
3980931,-0.02,0.06,0.76,6.9,9.34,4.52,967.0,36.35
3980969,-0.01,0.05,0.81,6.84,8.79,4.58,967.08,36.35
3981007,0.01,0.04,0.74,5.98,8.18,4.58,967.08,36.35
3981045,0.0,0.06,0.74,5.13,7.39,4.94,967.04,36.35
3981083,0.0,0.04,0.78,4.39,7.26,4.88,967.06,36.35
3981133,-0.01,0.03,0.7,3.17,7.45,4.64,967.07,36.33
3981171,-0.0,0.04,0.84,3.11,7.57,4.88,967.0,36.35
3981209,0.02,0.02,0.8,2.81,8.54,4.52,967.06,36.35
3981247,0.02,0.05,0.89,3.05,6.53,4.52,966.95,36.34
3981285,0.04,0.05,1.04,3.05,5.31,4.7,966.92,36.34
3981323,-0.04,0.02,1.03,3.3,4.76,4.82,966.89,36.34
3981361,-0.01,0.02,1.0,3.11,8.91,4.64,966.9,36.36
3981399,0.02,0.03,1.17,3.3,8.67,4.27,966.86,36.36
3981437,-0.0,-0.0,1.05,3.05,9.46,4.58,966.87,36.36
3981475,-0.02,0.01,1.02,2.56,9.77,4.64,966.77,36.35
3981525,0.04,0.01,1.04,2.93,13.31,4.21,966.85,36.34
3981563,0.01,0.01,0.96,2.5,11.17,4.52,966.86,36.35
3981601,-0.03,0.03,1.07,2.75,9.09,4.88,966.81,36.35
3981639,0.0,-0.02,1.01,2.75,10.5,4.58,966.88,36.36
3981677,0.02,0.01,0.97,2.5,9.77,4.64,966.8,36.34
3981715,0.0,0.02,1.02,2.87,9.09,4.76,966.88,36.35
3981753,-0.02,-0.03,0.77,2.44,11.47,4.58,966.79,36.35
3981791,0.01,0.01,0.76,2.2,12.08,4.39,966.81,36.37
3981829,0.02,0.01,0.74,2.38,13.18,4.39,966.91,36.37
3981867,-0.01,-0.0,0.61,2.5,10.99,4.52,966.91,36.35
3981942,0.01,-0.01,0.67,3.91,12.94,4.27,966.97,36.33
3981980,0.01,-0.01,0.56,3.85,12.45,4.21,966.93,36.35
3982018,0.03,0.02,0.56,4.39,11.11,4.15,966.93,36.35
3982108,0.01,0.01,0.5,3.97,12.27,4.03,966.86,36.3
3982146,-0.0,-0.0,0.49,3.97,11.6,4.09,966.84,36.33
3982184,-0.0,-0.01,0.54,4.03,9.22,3.72,966.85,36.33
3982222,0.0,-0.01,0.6,4.09,8.79,3.66,966.81,36.33
3982260,0.01,-0.03,0.56,3.48,9.22,3.72,966.81,36.33
3982298,0.02,-0.02,0.63,3.05,7.32,3.42,966.81,36.35
3982336,-0.0,-0.01,0.63,2.62,8.54,3.11,966.81,36.34
3982386,-0.01,-0.02,0.69,2.44,7.45,3.23,966.78,36.32
3982424,-0.01,-0.02,0.71,1.95,6.71,3.05,966.69,36.33
3982462,-0.01,-0.03,0.77,1.89,6.53,3.11,966.76,36.34
3982500,0.02,-0.04,0.83,1.65,6.77,2.75,966.7,36.34
3982538,0.01,-0.03,0.88,1.16,6.35,2.44,966.67,36.36
3982576,-0.02,-0.02,0.91,0.98,5.07,2.32,966.63,36.34
3982614,0.01,-0.03,0.98,0.31,2.69,2.69,966.58,36.36
3982652,-0.02,-0.03,1.02,-0.18,3.17,2.5,966.55,36.35
3982690,-0.03,-0.03,1.03,-0.85,0.37,2.5,966.63,36.35
3982740,-0.04,-0.03,1.07,-1.1,-0.92,2.62,966.56,36.33
3982778,-0.01,-0.03,1.05,-0.98,-2.08,2.44,966.61,36.35
3982816,-0.01,-0.03,1.04,-1.04,-1.65,2.62,966.6,36.35
3982854,-0.05,-0.02,1.01,-0.85,-1.89,2.69,966.57,36.36
3982892,-0.04,-0.03,1.07,-0.55,-2.32,2.44,966.63,36.35
3982930,-0.07,-0.05,0.98,-0.37,-1.16,2.62,966.69,36.37
3982968,-0.06,-0.04,1.0,-0.18,-0.49,2.75,966.58,36.36
3983006,-0.03,-0.04,0.99,-0.06,1.1,2.2,966.57,36.36
3983044,-0.03,-0.02,0.99,-0.49,2.44,2.26,966.58,36.35
3983082,-0.06,-0.03,1.06,-0.43,2.75,2.56,966.5,36.36
3983132,-0.06,-0.06,1.08,-1.04,5.07,2.38,966.53,36.35
3983170,-0.06,-0.04,1.15,-1.59,5.07,2.75,966.51,36.35
3983208,-0.03,-0.03,1.17,-2.01,5.31,2.75,966.51,36.36
3983246,-0.06,-0.03,1.2,-2.14,5.49,2.69,966.57,36.36
3983284,-0.06,-0.04,1.19,-2.14,6.77,2.93,966.59,36.36
3983322,-0.02,-0.03,1.24,-2.26,6.47,2.93,966.43,36.35
3983360,-0.03,-0.04,1.24,-2.32,7.02,3.17,966.52,36.37
3983398,-0.04,-0.02,1.26,-2.32,6.35,3.3,966.53,36.36
3983436,-0.05,-0.02,1.28,-2.5,6.65,3.42,966.48,36.35
3983486,-0.04,-0.03,1.28,-2.5,6.59,3.6,966.42,36.35
3983524,-0.03,-0.03,1.22,-2.99,6.84,3.66,966.49,36.36
3983562,-0.03,-0.02,1.24,-2.87,6.53,3.72,966.51,36.36
3983600,-0.02,-0.02,1.2,-3.17,7.51,3.72,966.52,36.35
3983638,-0.03,-0.02,1.17,-3.42,6.96,3.66,966.5,36.36
3983676,-0.02,-0.02,1.2,-3.54,6.04,3.6,966.56,36.35
3983714,-0.02,-0.03,1.11,-3.78,5.62,3.6,966.44,36.37
3983752,-0.0,-0.01,1.13,-4.21,4.82,3.54,966.46,36.35
3983790,-0.02,0.0,1.11,-3.97,4.7,3.66,966.52,36.36
3983828,-0.04,-0.0,1.1,-3.85,3.72,3.78,966.49,36.38
3983878,-0.03,-0.0,1.19,-3.54,4.94,3.6,966.38,36.35
3983916,-0.02,0.02,1.26,-2.69,5.37,3.66,966.41,36.36
3983954,-0.03,0.03,1.32,-2.08,6.16,3.78,966.42,36.35
3983992,-0.01,0.02,1.33,-1.59,8.06,3.78,966.48,36.36
3984030,-0.02,0.04,1.44,-0.92,8.97,3.85,966.33,36.37
3984068,-0.02,0.05,1.45,-0.12,10.19,3.78,966.3,36.35
3984106,-0.05,0.06,1.46,0.43,10.19,3.85,966.31,36.36
3984144,-0.01,0.07,1.44,0.85,11.23,4.09,966.28,36.36
3984182,0.01,0.08,1.48,0.73,10.07,3.91,966.23,36.38
3984232,-0.02,0.07,1.52,1.16,10.68,4.21,966.23,36.36
3984270,-0.02,0.06,1.52,1.28,11.17,4.39,966.29,36.37
3984308,-0.0,0.08,1.52,1.34,11.47,4.39,966.2,36.35
3984346,-0.0,0.09,1.48,1.65,11.23,4.52,966.21,36.36
3984384,-0.02,0.1,1.4,1.71,11.78,4.46,966.18,36.35
3984422,-0.01,0.1,1.36,2.01,11.29,4.58,966.21,36.36
3984460,-0.01,0.08,1.43,2.56,10.93,4.52,966.2,36.36
3984498,-0.01,0.07,1.4,3.3,12.02,4.82,966.13,36.36
3984536,-0.02,0.11,1.43,3.85,10.5,4.7,966.19,36.37
3984574,-0.01,0.1,1.51,5.13,10.62,4.88,966.22,36.37
3984624,-0.01,0.08,1.36,5.19,8.67,5.0,966.2,36.35
3984662,-0.04,0.12,1.36,5.62,8.97,5.07,966.18,36.36
3984700,-0.02,0.08,1.21,6.1,8.67,4.94,966.25,36.37
3984738,-0.01,0.09,1.17,6.1,6.53,5.13,966.17,36.35
3984776,-0.0,0.09,1.12,6.35,5.92,5.25,966.2,36.35
3984814,-0.02,0.07,1.01,6.65,5.0,5.13,966.23,36.37
3984852,-0.05,0.07,0.98,6.65,3.97,5.13,966.25,36.37
3984890,-0.05,0.07,0.93,6.84,3.48,5.25,966.15,36.37
3984928,-0.03,0.06,0.86,6.41,3.72,5.19,966.14,36.37
3984966,-0.03,0.08,0.83,6.04,2.93,5.0,966.18,36.36
3985042,-0.02,0.06,0.75,5.98,2.62,5.19,966.13,36.33
3985080,-0.06,0.04,0.63,5.92,2.93,5.37,966.1,36.35
3985118,-0.02,0.04,0.58,5.37,2.5,5.49,966.09,36.35
3985207,-0.04,0.04,0.54,5.13,2.93,5.55,966.03,36.32
3985245,-0.02,0.03,0.72,5.8,4.7,5.55,966.06,36.32
3985283,-0.05,0.0,0.57,5.43,6.16,5.74,966.08,36.34
3985321,-0.03,0.03,0.58,5.37,7.45,5.92,966.08,36.34
3985359,-0.02,0.03,0.45,5.43,10.13,5.8,966.09,36.34
3985397,-0.04,0.01,0.39,6.1,8.73,5.8,966.13,36.35
3985435,0.01,0.01,0.24,5.19,10.19,5.62,966.18,36.34
3985485,0.01,0.02,0.28,6.29,7.08,5.86,966.14,36.35
3985523,0.07,-0.04,0.13,5.13,8.3,5.37,966.14,36.34
3985561,0.03,-0.0,0.22,4.7,3.6,5.49,966.08,36.34
3985599,0.03,-0.04,0.3,3.97,2.75,5.43,966.0,36.35
3985637,0.06,-0.06,0.25,2.32,0.79,4.88,965.96,36.35
3985675,0.05,-0.03,0.47,0.92,-0.92,4.33,965.94,36.35
3985713,0.01,-0.06,0.41,0.61,14.95,4.46,965.92,36.36
3985751,0.04,-0.05,0.49,-1.4,-1.46,4.21,965.88,36.35
3985789,0.04,-0.04,0.62,-1.53,-0.31,3.54,965.92,36.37
3985839,0.01,-0.07,0.71,-2.2,-0.98,3.36,965.81,36.35
3985877,0.01,-0.06,0.87,-2.56,0.98,3.05,965.76,36.34
3985915,0.01,-0.07,0.89,-2.01,1.04,2.5,965.85,36.35
3985953,0.02,-0.05,1.11,-1.59,-0.92,2.56,965.76,36.35
3985991,0.02,-0.08,1.0,-0.85,1.95,2.2,965.83,36.34
3986029,-0.02,-0.06,1.07,-0.18,0.49,1.89,965.82,36.36
3986067,0.02,-0.06,1.12,0.31,1.53,1.83,965.71,36.36
3986105,0.02,-0.06,1.03,-0.06,0.85,1.65,965.72,36.35
3986143,-0.02,-0.04,1.09,0.06,1.1,1.16,965.74,36.36
3986181,0.01,-0.07,1.1,-0.06,1.71,1.1,965.67,36.36
3986231,0.01,-0.04,1.19,-0.24,1.28,0.92,965.7,36.34
3986269,-0.0,-0.04,1.21,-0.24,1.95,0.73,965.68,36.36
3986307,-0.02,-0.04,1.23,-0.06,2.81,0.79,965.66,36.36
3986345,-0.01,-0.03,1.2,0.55,4.03,0.49,965.73,36.36
3986383,-0.0,-0.02,1.2,0.85,5.0,0.18,965.78,36.37
3986421,0.0,-0.02,1.18,1.4,4.82,0.24,965.75,36.36
3986459,-0.01,-0.03,1.16,1.65,5.8,0.43,965.7,36.36
3986497,0.0,-0.02,1.16,1.65,5.68,0.18,965.73,36.36
3986535,-0.0,0.0,1.14,1.89,5.07,0.24,965.71,36.37
3986573,-0.01,0.0,1.09,1.95,5.13,0.18,965.77,36.36
3986623,-0.01,0.02,1.09,2.08,5.31,0.37,965.66,36.35
3986661,-0.01,0.01,1.01,2.2,5.68,0.06,965.74,36.35
3986699,-0.02,0.03,1.03,2.38,5.07,0.12,965.71,36.36
3986737,-0.01,0.03,1.02,2.5,5.92,0.24,965.72,36.36
3986775,-0.02,0.04,0.97,2.5,5.86,0.18,965.74,36.35
3986813,-0.03,0.05,0.98,2.56,6.1,0.31,965.76,36.37
3986851,-0.01,0.05,0.95,2.44,6.41,0.37,965.69,36.36
3986889,-0.01,0.07,0.96,2.44,6.23,0.55,965.73,36.36
3986927,-0.02,0.07,0.97,2.62,6.53,0.79,965.77,36.37
3986965,-0.02,0.07,0.99,2.69,5.86,1.16,965.69,36.36
3987014,-0.02,0.07,0.98,2.75,5.74,1.28,965.72,36.34
3987052,-0.02,0.08,0.99,2.93,5.86,1.28,965.7,36.36
3987090,-0.02,0.09,0.97,2.75,5.74,1.65,965.69,36.35
3987128,-0.02,0.09,0.97,2.81,4.94,1.83,965.73,36.35
3987166,-0.03,0.08,0.96,2.87,5.43,2.08,965.74,36.37
3987204,-0.03,0.09,0.97,2.75,5.37,2.2,965.69,36.35
3987242,-0.02,0.09,0.97,2.81,5.55,2.08,965.71,36.37
3987280,-0.0,0.08,0.96,2.87,5.31,2.38,965.68,36.36
3987319,-0.02,0.09,0.96,2.81,5.49,2.62,965.74,36.37
3987368,-0.02,0.08,0.95,3.11,5.31,2.69,965.73,36.35
3987406,-0.01,0.08,0.96,3.54,5.07,2.62,965.68,36.36
3987444,-0.02,0.08,0.96,4.52,5.62,2.62,965.68,36.35
3987482,-0.0,0.07,0.91,4.94,5.74,2.87,965.7,36.36
3987520,-0.0,0.07,0.94,5.55,4.7,2.93,965.72,36.36
3987558,0.0,0.06,0.83,5.62,5.31,2.99,965.74,36.37
3987596,0.0,0.06,0.83,5.8,4.15,2.87,965.79,36.38
3987634,-0.02,0.05,0.8,6.23,4.88,2.75,965.75,36.37
3987672,-0.01,0.04,0.73,6.04,4.46,2.87,965.78,36.38
3987710,-0.0,0.05,0.74,6.04,4.82,2.81,965.69,36.37
3987760,-0.01,0.03,0.64,5.74,5.92,2.75,965.74,36.35
3987798,0.01,0.04,0.69,5.92,5.55,2.81,965.77,36.37
3987836,0.0,0.02,0.65,5.68,5.92,2.75,965.79,36.37
3987874,-0.0,0.01,0.62,5.25,5.19,2.75,965.76,36.39
3987912,-0.01,0.01,0.6,5.0,5.62,2.5,965.74,36.37
3987950,0.02,-0.01,0.61,4.27,5.31,2.62,965.74,36.36
3987988,-0.0,-0.0,0.67,3.23,3.54,2.62,965.7,36.37
3988026,-0.0,-0.02,0.67,2.5,3.11,2.75,965.66,36.38
3988064,-0.0,-0.02,0.71,1.89,2.62,2.56,965.68,36.39
3988102,0.0,-0.03,0.78,1.16,2.32,2.44,965.71,36.38
3988177,-0.01,-0.05,0.87,0.55,1.83,2.56,965.64,36.35
3988215,-0.01,-0.05,0.91,0.37,1.89,2.38,965.6,36.36
3988253,-0.01,-0.05,0.95,0.31,1.4,2.5,965.65,36.37
3988343,-0.01,-0.06,1.04,0.31,0.67,2.2,965.58,36.33
3988381,-0.01,-0.06,1.08,0.37,0.37,2.38,965.57,36.34
3988419,-0.01,-0.06,1.11,0.55,-0.55,2.32,965.57,36.35
3988457,-0.0,-0.06,1.13,0.92,0.24,1.95,965.54,36.34
3988495,0.0,-0.05,1.14,1.28,-0.12,2.2,965.57,36.35
3988533,-0.01,-0.06,1.12,0.98,0.0,2.08,965.59,36.36
3988571,-0.02,-0.05,1.13,1.28,-0.37,1.89,965.58,36.37
3988621,-0.02,-0.05,1.15,1.4,0.73,1.95,965.59,36.36
3988659,-0.02,-0.05,1.15,1.4,1.28,2.01,965.59,36.36
3988697,-0.01,-0.05,1.17,2.26,1.89,1.95,965.61,36.35
3988735,-0.01,-0.05,1.14,2.87,3.23,2.01,965.58,36.35
3988773,-0.03,-0.04,1.15,3.97,4.64,1.83,965.65,36.35
3988811,-0.02,-0.04,1.07,4.82,7.08,1.95,965.69,36.36
3988849,-0.01,-0.04,1.01,5.86,7.45,2.01,965.69,36.36
3988887,-0.01,-0.03,1.0,6.71,8.3,1.83,965.66,36.36
3988925,-0.0,-0.04,0.91,7.57,9.64,1.77,965.65,36.36
3988974,0.0,-0.03,0.86,7.26,9.83,1.89,965.69,36.35
3989012,-0.01,-0.03,0.84,7.14,9.52,1.77,965.69,36.36
3989051,-0.02,-0.02,0.8,6.65,10.44,1.71,965.73,36.37
3989089,-0.01,-0.03,0.78,6.35,10.62,1.77,965.7,36.36
3989127,-0.01,-0.01,0.76,5.49,10.5,1.89,965.71,36.36
3989165,-0.01,-0.01,0.76,4.88,11.47,1.77,965.72,36.36
3989203,0.01,-0.02,0.78,3.85,11.47,2.01,965.72,36.37
3989241,0.01,-0.01,0.8,3.11,10.01,1.77,965.77,36.37
3989279,-0.01,0.01,0.85,2.38,8.91,1.95,965.69,36.36
3989317,-0.0,-0.0,0.83,2.01,8.18,1.77,965.68,36.37
3989366,0.0,0.01,0.85,1.4,7.26,1.53,965.75,36.35
3989404,-0.01,0.01,0.87,0.98,6.35,1.53,965.75,36.36
3989442,-0.02,0.01,0.9,0.79,5.86,1.77,965.69,36.37
3989480,-0.01,0.01,0.92,0.49,5.8,1.83,965.71,36.37
3989518,-0.01,0.03,0.96,0.49,5.25,1.65,965.67,36.37
3989556,-0.02,0.02,0.92,0.24,5.74,1.77,965.71,36.38
3989595,-0.02,0.02,0.96,0.31,4.7,1.83,965.74,36.38
3989633,-0.01,0.02,0.94,0.24,5.19,1.71,965.72,36.38
3989671,0.0,0.03,1.0,0.24,3.11,1.89,965.69,36.37
3989708,-0.01,0.02,1.06,0.24,3.36,1.95,965.68,36.37
3989758,-0.02,0.02,1.06,0.37,2.99,1.89,965.69,36.36
3989796,0.0,0.03,1.13,0.92,3.23,2.14,965.73,36.37
3989834,0.0,0.01,1.05,0.92,2.87,1.95,965.7,36.37
3989872,-0.02,0.02,1.03,1.1,2.14,1.95,965.68,36.37
3989910,-0.0,0.01,1.06,1.53,3.36,1.77,965.66,36.36
3989948,0.03,0.0,1.04,1.77,3.48,1.65,965.75,36.37
3989986,-0.0,0.02,1.08,2.01,3.11,1.71,965.74,36.37
3990024,-0.02,0.01,1.02,2.44,3.66,1.4,965.78,36.38
3990062,-0.0,0.0,1.05,3.11,5.13,1.28,965.8,36.38
3990100,-0.01,0.01,1.03,4.15,5.55,1.22,965.75,36.36
3990150,-0.02,0.01,0.99,5.49,5.8,1.28,965.78,36.36
3990188,0.01,-0.0,0.92,6.1,6.23,1.22,965.81,36.36
3990226,0.01,0.0,0.88,6.9,6.59,0.92,965.77,36.37
3990264,-0.01,-0.01,0.79,7.14,7.08,0.73,965.82,36.37
3990302,0.0,-0.02,0.77,7.26,6.65,0.85,965.8,36.36
3990340,0.01,-0.02,0.71,7.14,6.65,0.73,965.85,36.37
3990378,0.01,-0.01,0.72,6.84,6.47,0.43,965.82,36.37
3990416,0.03,-0.02,0.67,6.65,6.53,0.43,965.86,36.4
3990454,-0.0,-0.03,0.7,6.41,6.84,0.49,965.89,36.39
3990492,-0.0,-0.03,0.68,6.47,6.59,0.18,965.88,36.38
3990542,-0.03,-0.02,0.65,6.23,6.9,0.0,965.91,36.35
3990580,-0.02,-0.03,0.62,5.98,7.32,0.06,965.94,36.37
3990618,0.01,-0.03,0.63,5.62,7.39,-0.24,965.9,36.36
3990656,-0.02,-0.04,0.58,5.19,7.75,-0.31,965.92,36.38
3990694,-0.0,-0.04,0.53,4.52,8.24,-0.24,965.93,36.37
3990732,0.0,-0.03,0.6,3.85,7.69,-0.37,965.91,36.37
3990770,0.01,-0.04,0.66,2.81,6.77,-0.43,965.8,36.38
3990808,-0.0,-0.06,0.67,1.4,5.68,-0.31,965.79,36.38
3990846,0.02,-0.06,0.78,-0.61,3.85,-0.49,965.71,36.38
3990895,0.02,-0.06,0.94,-2.75,2.14,-0.31,965.69,36.37
3990933,-0.0,-0.05,1.04,-3.78,0.98,-0.37,965.66,36.37
3990971,-0.01,-0.05,1.12,-4.33,0.06,-0.43,965.75,36.39
3991009,-0.02,-0.05,1.21,-5.0,-0.67,-0.37,965.69,36.37
3991048,-0.0,-0.05,1.26,-4.7,-0.79,-0.31,965.78,36.37
3991086,-0.04,-0.05,1.28,-4.09,-0.18,-0.31,965.7,36.38
3991124,-0.03,-0.04,1.33,-2.62,1.65,-0.55,965.7,36.37
3991162,-0.04,-0.05,1.26,-1.71,2.62,-0.49,965.81,36.38
3991200,-0.06,-0.04,1.26,-0.24,4.21,-0.49,965.85,36.38
3991275,-0.04,-0.05,1.21,1.59,7.32,-0.31,965.81,36.34
3991313,-0.04,-0.05,1.18,1.83,8.54,-0.24,965.77,36.36
3991352,-0.03,-0.05,1.14,1.77,9.95,-0.12,965.78,36.36
3991441,-0.04,-0.06,1.12,1.46,10.74,0.43,965.77,36.34
3991479,-0.03,-0.04,1.14,1.04,10.56,0.73,965.86,36.35
3991517,-0.02,-0.05,1.07,0.73,12.15,0.79,965.84,36.35
3991555,-0.02,-0.04,1.13,0.37,10.38,0.92,965.94,36.36
3991593,-0.03,-0.05,1.12,0.43,11.29,1.22,965.88,36.36
3991631,-0.01,-0.05,1.12,-0.37,8.91,1.4,965.92,36.35
3991669,-0.03,-0.05,1.16,-1.04,8.3,1.59,965.85,36.35
3991719,-0.02,-0.03,1.16,-1.59,6.16,1.77,965.86,36.34
3991757,-0.02,-0.03,1.25,-1.95,5.8,1.71,965.82,36.35
3991795,-0.01,-0.04,1.22,-1.95,5.25,1.46,965.86,36.36
3991833,-0.03,-0.03,1.31,-2.01,5.43,1.77,965.85,36.37
3991871,-0.02,-0.03,1.31,-1.95,6.04,1.83,965.85,36.37
3991909,-0.01,-0.02,1.39,-2.14,6.23,1.89,965.74,36.35
3991947,-0.01,-0.01,1.38,-1.89,5.37,1.77,965.77,36.37
3991985,-0.02,-0.0,1.39,-1.89,4.15,2.14,965.79,36.36
3992023,-0.02,-0.02,1.41,-1.16,5.0,2.08,965.92,36.37
3992073,-0.01,-0.01,1.33,-0.24,4.94,2.01,965.89,36.35
3992111,-0.02,0.01,1.29,0.61,6.16,2.08,965.93,36.37
3992149,-0.02,0.0,1.19,1.59,7.26,2.08,965.93,36.37
3992187,-0.02,0.02,1.2,1.89,7.26,2.14,965.93,36.38
3992225,-0.01,-0.01,1.16,2.2,7.93,2.2,965.9,36.36
3992263,-0.04,-0.0,1.15,2.26,7.02,2.14,965.94,36.37
3992301,-0.01,0.02,1.13,2.2,7.87,2.2,965.92,36.37
3992339,-0.01,0.02,1.15,2.32,7.32,2.32,965.91,36.38
3992377,-0.0,0.02,1.14,2.44,8.42,2.26,965.94,36.38
3992415,-0.01,0.02,1.08,2.44,8.36,2.38,965.92,36.38
3992465,-0.01,0.02,1.11,2.32,8.61,2.32,965.93,36.37
3992503,-0.0,0.02,1.08,2.08,7.14,2.26,965.91,36.38
3992541,-0.01,0.03,1.1,1.83,6.65,2.32,965.95,36.39
3992579,0.01,0.03,1.08,1.59,5.62,2.26,965.92,36.36
3992617,0.0,0.02,1.1,1.59,4.7,2.14,965.86,36.37
3992655,-0.0,0.04,1.08,1.4,3.54,1.95,965.87,36.36
3992693,0.01,0.03,1.11,1.1,2.62,2.08,965.85,36.37
3992731,0.01,0.03,1.11,0.85,2.38,1.83,965.85,36.38
3992769,-0.02,0.03,1.11,0.98,1.16,1.77,965.87,36.37
3992807,-0.02,0.02,1.13,0.61,0.31,1.65,965.81,36.37
3992856,-0.01,0.02,1.14,0.79,-0.24,1.4,965.84,36.37
3992894,-0.02,0.02,1.13,0.92,-0.43,1.34,965.82,36.37
3992932,-0.02,0.02,1.1,1.22,0.0,1.22,965.84,36.38
3992970,-0.02,0.02,1.1,1.59,0.24,1.04,965.83,36.37
3993008,-0.02,0.02,1.12,1.95,0.61,0.98,965.79,36.38
3993047,-0.02,0.02,1.13,2.44,0.85,1.16,965.79,36.38
3993085,-0.03,0.02,1.1,2.93,1.16,0.85,965.77,36.38
3993123,-0.03,0.01,1.05,3.36,1.28,0.73,965.82,36.37
3993161,-0.02,0.01,1.04,3.6,1.53,0.79,965.82,36.38
3993199,-0.0,0.01,0.96,4.03,1.28,0.67,965.9,36.38
3993248,-0.03,0.01,0.93,4.21,1.77,0.55,965.86,36.37
3993286,-0.01,0.0,0.91,4.46,1.4,0.49,965.91,36.37
3993324,-0.01,-0.0,0.88,4.39,1.77,0.31,965.92,36.38
3993362,-0.02,-0.0,0.86,4.64,1.04,0.43,965.84,36.37
3993400,-0.02,-0.01,0.83,4.39,0.92,0.31,965.85,36.37
3993438,-0.02,-0.01,0.84,4.33,0.92,0.0,965.8,36.39
3993476,-0.03,-0.01,0.82,4.03,0.73,0.0,965.86,36.38
3993514,-0.02,-0.01,0.8,3.54,0.67,0.06,965.81,36.37
3993552,-0.03,-0.01,0.84,2.99,0.85,-0.12,965.83,36.38
3993590,-0.02,-0.02,0.83,2.69,1.65,-0.12,965.81,36.39
3993640,-0.02,-0.01,0.88,2.81,0.92,-0.06,965.86,36.37
3993678,-0.03,-0.03,0.84,2.32,1.53,0.0,965.79,36.38
3993716,-0.04,-0.01,0.88,2.5,0.79,-0.24,965.82,36.38
3993754,-0.05,-0.02,0.86,2.08,1.59,0.06,965.77,36.38
3993792,-0.04,-0.02,0.86,2.08,1.34,-0.12,965.71,36.37
3993830,-0.04,-0.02,0.89,1.89,2.01,0.12,965.75,36.37
3993868,-0.05,-0.01,0.9,1.89,2.87,-0.12,965.75,36.37
3993906,-0.02,-0.03,0.92,2.01,4.09,0.12,965.79,36.38
3993944,-0.02,-0.01,0.99,2.38,3.48,0.24,965.84,36.37
3993994,-0.06,-0.02,0.95,3.3,5.13,0.61,965.78,36.36
3994032,-0.04,-0.01,0.93,4.03,4.58,0.61,965.83,36.37
3994070,-0.04,-0.01,0.93,4.46,4.76,0.49,965.76,36.38
3994108,0.0,-0.01,0.89,4.7,4.03,0.79,965.82,36.39
3994146,-0.0,-0.02,0.87,4.7,3.97,0.79,965.79,36.38
3994184,-0.03,-0.02,0.84,4.15,4.03,0.98,965.8,36.38
3994222,-0.03,-0.02,0.83,3.97,3.97,1.1,965.8,36.37
3994260,-0.02,-0.02,0.84,3.42,3.85,0.98,965.78,36.37
3994298,-0.05,-0.01,0.87,3.05,3.6,1.1,965.71,36.37
3994336,-0.02,-0.03,0.8,2.56,4.58,1.1,965.73,36.37
3994413,-0.03,-0.01,0.87,2.14,4.7,1.04,965.73,36.35
3994451,-0.02,-0.02,0.89,1.59,4.46,1.22,965.68,36.36
3994489,-0.05,-0.01,0.92,1.46,4.58,1.28,965.73,36.35
3994578,-0.03,-0.01,0.93,1.59,6.35,1.28,965.73,36.34
3994617,-0.01,-0.01,0.93,1.53,7.39,1.34,965.78,36.36
3994655,-0.04,-0.01,0.94,1.34,7.81,1.71,965.74,36.36
3994693,-0.04,-0.01,0.94,1.53,8.97,1.65,965.73,36.35
3994731,-0.02,-0.02,1.03,1.71,10.31,1.77,965.72,36.36
3994769,-0.01,-0.02,1.01,1.77,9.52,1.77,965.71,36.36
3994807,-0.04,-0.01,1.04,2.14,8.85,1.95,965.73,36.36
3994857,-0.02,-0.02,1.0,2.44,8.48,2.08,965.78,36.35
3994895,0.0,-0.01,1.03,2.62,5.8,1.89,965.7,36.36
3994933,-0.0,-0.01,0.96,2.62,4.52,2.01,965.75,36.36
3994971,-0.0,-0.01,0.94,2.56,2.93,2.08,965.76,36.37
3995009,-0.01,-0.02,0.96,2.69,2.56,1.89,965.72,36.37
3995047,-0.01,-0.02,0.97,2.69,0.85,1.71,965.74,36.37
3995085,-0.02,-0.01,0.95,2.38,0.12,1.83,965.69,36.37
3995123,-0.01,-0.0,0.94,2.38,-0.55,1.53,965.61,36.37
3995161,-0.02,-0.01,0.93,2.01,-0.37,1.4,965.68,36.38
3995211,-0.02,-0.01,0.95,1.77,-0.92,1.34,965.69,36.37
3995249,-0.03,-0.01,0.94,1.59,-0.61,1.1,965.66,36.37
