timestamp,acc_x,acc_y,acc_z,rot_x,rot_y,rot_z,qfe,temp
4637518,-0.05,-0.04,1.42,-4.46,-1.89,8.36,866.39,32.2
4637556,-0.05,-0.07,1.29,-3.78,-1.22,8.36,866.43,32.22
4637594,-0.03,-0.07,1.24,-4.21,-1.59,8.36,866.46,32.22
4637632,-0.04,-0.06,1.23,-3.48,-0.98,8.3,866.45,32.21
4637670,0.0,-0.07,1.23,-2.87,-0.55,8.06,866.49,32.23
4637708,-0.01,-0.07,1.23,-2.32,-0.67,7.87,866.48,32.22
4637747,-0.03,-0.07,1.2,-1.83,-0.73,7.75,866.47,32.23
4637785,-0.02,-0.09,1.19,-1.4,0.85,7.69,866.43,32.23
4637823,-0.01,-0.08,1.13,-1.4,-0.18,7.26,866.38,32.23
4637861,-0.02,-0.06,1.18,-1.34,-0.85,7.26,866.39,32.23
4637911,-0.01,-0.08,1.06,-1.16,0.06,7.14,866.37,32.21
4637949,-0.02,-0.06,1.23,-1.1,-1.1,7.14,866.41,32.23
4637987,0.0,-0.08,1.18,-1.22,-0.61,7.02,866.37,32.23
4638025,-0.02,-0.05,1.33,-1.34,-3.05,6.77,866.36,32.21
4638063,-0.04,-0.08,1.29,-1.34,-0.98,6.71,866.42,32.23
4638102,0.0,-0.07,1.34,-1.59,-1.71,6.41,866.35,32.24
4638140,0.0,-0.06,1.38,-1.71,-1.83,6.29,866.42,32.24
4638178,-0.01,-0.06,1.35,-1.71,-2.14,6.23,866.39,32.25
4638216,-0.01,-0.05,1.42,-1.71,-1.34,6.1,866.33,32.22
4638266,-0.03,-0.07,1.37,-1.65,-1.65,5.98,866.34,32.21
4638304,-0.04,-0.06,1.39,-1.71,-2.81,5.98,866.31,32.22
4638342,-0.04,-0.06,1.27,-1.4,-2.01,5.8,866.38,32.22
4638380,0.0,-0.06,1.27,-1.46,-2.38,5.8,866.28,32.23
4638419,-0.03,-0.06,1.18,-1.22,-2.26,5.92,866.33,32.24
4638457,-0.06,-0.07,1.2,-1.04,-2.2,5.86,866.31,32.24
4638495,-0.03,-0.07,1.19,-1.1,-1.95,5.8,866.36,32.26
4638533,-0.04,-0.07,1.21,-1.04,-2.93,5.68,866.25,32.24
4638571,-0.03,-0.08,1.16,-1.16,-1.4,5.68,866.3,32.25
4638647,-0.01,-0.08,1.13,-0.92,0.43,5.55,866.27,32.22
4638685,-0.02,-0.07,1.13,-1.04,-0.92,5.92,866.27,32.22
4638723,-0.03,-0.07,1.15,-1.22,-0.06,5.8,866.3,32.24
4638813,-0.01,-0.09,1.12,-1.4,-0.24,5.55,866.25,32.21
4638851,-0.03,-0.09,1.07,-1.46,-0.06,5.55,866.23,32.22
4638889,-0.02,-0.09,1.05,-1.59,0.0,5.25,866.27,32.22
4638927,-0.03,-0.07,1.11,-1.34,0.24,5.55,866.31,32.24
4638965,-0.01,-0.09,1.09,-1.53,-0.37,5.37,866.23,32.25
4639003,-0.05,-0.09,1.05,-1.95,0.85,5.43,866.25,32.24
4639041,-0.03,-0.07,1.16,-1.95,0.31,5.55,866.19,32.23
4639091,-0.01,-0.07,1.14,-2.14,-0.67,5.8,866.18,32.23
4639129,-0.06,-0.07,1.21,-2.2,-1.04,6.16,866.19,32.25
4639168,-0.04,-0.07,1.19,-2.14,0.0,5.86,866.15,32.24
4639206,-0.04,-0.06,1.24,-2.01,-0.37,5.92,866.19,32.24
4639244,-0.05,-0.07,1.23,-1.59,-0.73,6.1,866.15,32.25
4639282,-0.05,-0.08,1.19,-1.71,-0.37,6.16,866.13,32.25
4639320,-0.05,-0.07,1.18,-1.89,0.79,5.98,866.14,32.25
4639358,-0.01,-0.07,1.17,-1.65,0.98,6.29,866.11,32.25
4639396,-0.02,-0.05,1.16,-1.77,0.06,6.23,866.11,32.25
4639446,-0.04,-0.06,1.13,-1.77,1.53,6.29,866.14,32.24
4639484,-0.03,-0.07,1.18,-1.59,1.71,6.16,866.11,32.24
4639523,-0.03,-0.08,1.18,-1.59,2.08,6.16,866.11,32.24
4639561,-0.05,-0.08,1.16,-1.59,1.1,6.29,866.07,32.23
4639599,-0.04,-0.06,1.2,-1.53,2.26,6.1,866.07,32.22
4639637,-0.01,-0.07,1.16,-1.71,1.53,6.29,866.11,32.24
4639675,-0.03,-0.05,1.19,-1.53,1.34,6.35,866.02,32.23
4639713,-0.05,-0.09,1.1,-1.59,1.89,6.23,866.08,32.24
4639751,-0.05,-0.07,1.17,-1.59,1.46,6.29,866.05,32.24
4639790,-0.03,-0.07,1.15,-1.53,2.38,6.47,866.09,32.24
4639839,-0.05,-0.06,1.18,-1.53,1.59,6.47,866.05,32.23
4639878,-0.05,-0.07,1.12,-1.46,3.11,6.53,866.07,32.23
4639916,-0.03,-0.07,1.14,-1.46,2.62,6.35,866.08,32.23
4639954,-0.02,-0.07,1.14,-1.53,2.62,6.59,866.02,32.23
4639992,-0.04,-0.06,1.12,-1.53,3.11,6.77,865.97,32.23
4640030,-0.03,-0.06,1.13,-1.59,3.6,6.59,866.05,32.23
4640068,-0.05,-0.06,1.14,-1.46,3.91,6.53,865.97,32.22
4640106,-0.05,-0.06,1.17,-1.59,4.21,6.59,865.94,32.22
4640145,-0.04,-0.07,1.11,-1.53,5.25,6.47,866.02,32.22
4640195,-0.03,-0.05,1.13,-1.4,5.74,6.29,865.95,32.22
4640233,-0.02,-0.06,1.11,-1.65,5.07,6.41,865.98,32.22
4640271,-0.04,-0.06,1.16,-1.46,4.94,6.35,865.99,32.21
4640309,-0.04,-0.06,1.16,-1.22,5.43,6.47,865.94,32.22
4640347,-0.04,-0.06,1.16,-1.22,4.88,6.47,865.94,32.21
4640385,-0.04,-0.06,1.19,-0.98,4.52,6.47,865.94,32.21
4640423,-0.04,-0.06,1.15,-0.92,4.33,6.47,865.91,32.22
4640462,-0.02,-0.05,1.17,-0.79,4.09,6.41,865.89,32.23
4640500,-0.03,-0.06,1.14,-0.55,4.82,6.59,865.89,32.23
4640538,-0.04,-0.06,1.12,-0.43,4.27,6.41,865.87,32.23
4640588,-0.05,-0.06,1.1,-0.18,4.52,6.65,865.87,32.21
4640626,-0.05,-0.06,1.1,-0.06,3.97,6.59,865.87,32.21
4640664,-0.03,-0.07,1.07,0.06,3.6,6.71,865.86,32.22
4640702,-0.03,-0.06,1.05,0.31,3.36,6.77,865.93,32.21
4640740,-0.03,-0.07,1.02,0.37,2.75,6.84,865.86,32.22
4640779,-0.03,-0.06,1.01,0.24,2.14,6.65,865.85,32.22
4640817,-0.05,-0.07,0.99,0.12,2.01,6.84,865.84,32.22
4640855,-0.04,-0.07,0.98,-0.12,1.53,6.77,865.79,32.22
4640893,-0.04,-0.07,1.02,-0.31,0.49,6.71,865.77,32.21
4640943,-0.03,-0.07,0.99,-0.37,0.49,6.96,865.75,32.21
4640981,-0.03,-0.07,0.99,-0.55,0.0,7.08,865.71,32.21
4641019,-0.03,-0.07,0.99,-0.49,0.37,6.9,865.74,32.22
4641057,-0.04,-0.07,0.96,-0.67,0.43,6.84,865.71,32.22
4641095,-0.04,-0.07,0.97,-0.79,-0.24,6.9,865.76,32.21
4641134,-0.04,-0.08,0.97,-0.98,0.31,6.71,865.73,32.2
4641172,-0.04,-0.07,0.97,-1.22,0.55,6.65,865.65,32.2
4641210,-0.05,-0.07,1.01,-1.4,0.92,6.65,865.7,32.21
4641248,-0.04,-0.07,1.01,-1.34,1.28,6.59,865.75,32.21
4641286,-0.04,-0.06,1.04,-1.4,2.32,6.35,865.69,32.21
4641336,-0.03,-0.07,1.03,-1.53,2.56,6.41,865.68,32.2
4641374,-0.02,-0.06,1.07,-1.59,2.5,6.23,865.68,32.2
4641412,-0.03,-0.06,1.07,-1.46,2.81,6.16,865.64,32.2
4641451,-0.02,-0.06,1.09,-1.34,2.56,6.29,865.64,32.19
4641489,-0.03,-0.06,1.07,-1.28,2.69,6.29,865.63,32.21
4641527,-0.03,-0.06,1.07,-1.34,2.56,6.04,865.66,32.2
4641565,-0.03,-0.06,1.08,-0.98,2.81,5.98,865.66,32.21
4641604,-0.02,-0.07,1.07,-1.1,2.69,5.92,865.65,32.21
4641642,-0.04,-0.06,1.08,-0.98,2.69,5.8,865.62,32.21
4641718,-0.04,-0.06,1.09,-0.92,2.99,5.92,865.57,32.18
4641756,-0.03,-0.06,1.09,-1.04,2.75,5.74,865.56,32.2
4641794,-0.04,-0.05,1.11,-0.92,2.81,5.8,865.58,32.21
4641883,-0.04,-0.06,1.11,-0.79,3.36,5.68,865.52,32.17
4641922,-0.04,-0.06,1.07,-0.67,3.36,5.74,865.61,32.18
4641960,-0.05,-0.06,1.09,-0.67,3.3,5.8,865.51,32.19
4641998,-0.04,-0.07,1.05,-0.49,3.97,5.74,865.54,32.18
4642036,-0.04,-0.06,1.07,-0.37,3.85,5.74,865.52,32.19
4642074,-0.04,-0.06,1.05,-0.43,3.85,5.8,865.51,32.2
4642112,-0.04,-0.06,1.03,-0.49,4.09,5.8,865.5,32.2
4642162,-0.05,-0.06,1.06,-0.37,4.15,5.8,865.49,32.18
4642200,-0.05,-0.06,1.04,-0.37,3.91,5.98,865.49,32.2
4642238,-0.05,-0.06,1.06,-0.37,3.54,6.04,865.49,32.22
4642277,-0.05,-0.06,1.05,-0.49,3.97,5.86,865.45,32.22
4642315,-0.04,-0.06,1.05,-0.43,3.72,5.86,865.48,32.2
4642353,-0.05,-0.07,1.05,-0.06,4.09,5.98,865.43,32.22
4642391,-0.06,-0.06,1.04,-0.31,4.15,6.04,865.45,32.21
4642429,-0.06,-0.06,1.04,-0.18,4.09,6.1,865.46,32.22
4642467,-0.06,-0.06,1.02,-0.24,4.09,6.1,865.42,32.2
4642517,-0.05,-0.05,1.03,0.12,4.21,6.35,865.42,32.2
4642555,-0.05,-0.06,1.01,0.06,4.21,6.35,865.41,32.2
4642593,-0.05,-0.06,1.02,0.18,4.33,6.53,865.43,32.2
4642632,-0.06,-0.06,1.0,0.31,4.64,6.53,865.38,32.2
4642670,-0.07,-0.07,0.98,0.55,5.0,6.59,865.42,32.19
4642708,-0.05,-0.06,0.97,0.49,4.88,6.59,865.38,32.18
4642746,-0.07,-0.05,0.96,0.43,4.76,6.71,865.35,32.18
4642784,-0.06,-0.07,0.92,0.61,5.31,6.84,865.36,32.19
4642822,-0.06,-0.06,0.96,0.31,5.55,6.77,865.34,32.19
4642861,-0.06,-0.07,0.96,0.37,5.98,6.96,865.34,32.2
4642910,-0.07,-0.06,0.96,0.18,5.86,7.2,865.34,32.18
4642948,-0.08,-0.05,0.98,0.18,6.53,7.14,865.29,32.19
4642987,-0.05,-0.07,0.99,0.37,6.47,7.14,865.29,32.19
4643025,-0.06,-0.06,0.99,0.37,5.98,7.57,865.3,32.19
4643063,-0.08,-0.06,0.96,0.67,5.92,7.69,865.33,32.18
4643101,-0.08,-0.06,0.9,0.79,5.55,7.87,865.35,32.19
4643139,-0.08,-0.05,0.9,0.92,4.88,8.0,865.31,32.19
4643177,-0.08,-0.05,0.88,1.04,5.13,8.3,865.29,32.18
4643216,-0.06,-0.06,0.92,0.79,4.7,8.36,865.29,32.18
4643265,-0.08,-0.06,0.94,0.73,5.0,8.48,865.27,32.18
4643304,-0.06,-0.05,0.96,0.85,5.31,8.61,865.25,32.19
4643342,-0.08,-0.05,0.96,0.85,5.98,8.73,865.3,32.18
4643380,-0.07,-0.06,0.97,0.92,6.41,8.85,865.29,32.18
4643418,-0.07,-0.06,0.91,0.92,5.92,8.97,865.22,32.17
4643456,-0.08,-0.05,0.94,0.79,5.31,9.22,865.26,32.18
4643495,-0.06,-0.06,0.89,0.67,6.47,9.7,865.29,32.19
4643533,-0.06,-0.05,0.93,0.61,6.04,9.46,865.24,32.18
4643571,-0.06,-0.06,0.93,0.55,5.49,9.77,865.24,32.17
4643609,-0.06,-0.06,0.97,0.61,4.82,9.77,865.25,32.16
4643659,-0.06,-0.06,0.96,0.85,5.19,9.95,865.21,32.16
4643697,-0.05,-0.05,0.96,0.98,5.07,10.07,865.26,32.16
4643735,-0.06,-0.05,0.97,0.79,4.88,10.07,865.25,32.17
4643773,-0.07,-0.07,0.92,0.61,4.52,10.13,865.22,32.16
4643812,-0.05,-0.05,0.99,1.04,4.58,10.25,865.29,32.16
4643850,-0.05,-0.06,0.94,0.79,5.25,10.19,865.22,32.16
4643888,-0.07,-0.05,0.97,1.1,4.27,10.25,865.24,32.16
4643926,-0.05,-0.06,0.97,1.28,4.82,10.44,865.32,32.16
4643964,-0.04,-0.06,0.98,1.46,4.15,10.38,865.25,32.15
4644002,-0.06,-0.06,0.96,1.89,4.39,10.38,865.35,32.17
4644052,-0.06,-0.06,0.95,2.32,4.94,10.38,865.29,32.15
4644090,-0.05,-0.06,0.95,2.5,5.0,10.44,865.27,32.16
4644128,-0.04,-0.06,0.96,2.75,5.43,10.31,865.29,32.15
4644167,-0.05,-0.06,0.91,2.99,5.98,10.38,865.26,32.14
4644205,-0.06,-0.05,0.9,2.99,5.49,10.25,865.33,32.15
4644243,-0.04,-0.06,0.93,3.3,5.25,10.38,865.31,32.17
4644281,-0.03,-0.07,0.87,3.17,5.37,10.44,865.35,32.17
4644319,-0.06,-0.06,0.9,3.3,5.31,10.44,865.32,32.16
4644358,-0.04,-0.07,0.88,3.54,5.55,10.44,865.32,32.16
4644407,-0.04,-0.06,0.86,3.6,4.21,10.56,865.34,32.16
4644445,-0.04,-0.07,0.85,3.66,5.25,10.5,865.32,32.16
4644484,-0.04,-0.07,0.82,3.78,4.7,10.5,865.33,32.16
4644522,-0.04,-0.05,0.84,3.85,4.15,10.44,865.31,32.16
4644560,-0.03,-0.08,0.78,4.03,4.7,10.62,865.37,32.16
4644598,-0.03,-0.07,0.8,3.85,4.39,10.38,865.34,32.17
4644636,-0.04,-0.06,0.78,3.91,4.46,10.62,865.33,32.16
4644674,-0.02,-0.08,0.77,3.66,4.46,10.74,865.33,32.16
4644713,-0.02,-0.07,0.79,3.36,4.88,10.5,865.35,32.17
4644751,-0.03,-0.07,0.79,3.05,4.88,10.38,865.34,32.17
4644827,-0.03,-0.07,0.8,2.44,5.49,10.13,865.33,32.14
4644865,-0.04,-0.07,0.83,2.38,5.43,10.07,865.33,32.14
4644903,-0.04,-0.07,0.82,2.38,5.8,10.13,865.35,32.14
4644992,-0.03,-0.07,0.84,2.44,4.82,9.83,865.37,32.12
4645031,-0.01,-0.07,0.85,2.08,5.74,9.83,865.42,32.12
4645069,-0.02,-0.08,0.82,1.89,5.98,9.64,865.44,32.13
4645107,-0.04,-0.07,0.87,1.83,5.31,9.64,865.39,32.14
4645145,-0.03,-0.08,0.85,1.59,5.55,9.58,865.37,32.12
4645183,-0.02,-0.07,0.87,1.34,5.37,9.4,865.45,32.12
4645233,-0.01,-0.07,0.87,1.28,5.49,9.22,865.46,32.12
4645271,-0.02,-0.07,0.89,1.28,5.19,9.09,865.46,32.14
4645309,-0.01,-0.07,0.92,1.1,5.68,9.16,865.48,32.14
4645348,-0.03,-0.07,0.94,0.79,5.55,8.91,865.5,32.14
4645386,-0.04,-0.07,0.95,0.67,6.16,8.79,865.51,32.14
4645424,-0.03,-0.07,0.98,0.79,5.98,8.73,865.52,32.14
4645462,-0.01,-0.08,0.95,0.73,7.26,8.54,865.52,32.14
4645500,-0.03,-0.07,0.97,0.79,7.39,8.48,865.5,32.14
4645538,-0.03,-0.07,0.98,1.16,8.3,8.48,865.53,32.16
4645577,-0.01,-0.08,0.97,1.22,9.52,8.18,865.49,32.15
4645626,-0.01,-0.08,1.01,1.71,10.25,8.12,865.56,32.14
4645665,-0.02,-0.08,0.95,1.59,10.01,8.3,865.54,32.16
4645703,-0.03,-0.07,1.03,1.71,9.77,7.93,865.51,32.14
4645741,-0.01,-0.08,0.98,1.83,10.8,7.87,865.56,32.14
4645779,0.01,-0.06,1.04,1.71,8.3,7.93,865.63,32.15
4645817,-0.01,-0.08,1.0,1.77,8.42,7.93,865.67,32.15
4645855,-0.0,-0.08,1.02,1.46,6.77,7.81,865.61,32.14
4645894,0.0,-0.07,1.06,1.53,5.86,7.75,865.67,32.15
4645932,-0.01,-0.07,1.03,1.22,4.46,7.75,865.7,32.16
4645981,0.0,-0.08,1.03,1.16,4.33,7.39,865.68,32.12
4646020,-0.0,-0.08,1.01,1.1,3.48,7.32,865.68,32.14
4646058,-0.0,-0.08,1.04,1.1,2.5,7.26,865.73,32.14
4646096,-0.01,-0.08,1.01,0.61,2.5,7.08,865.78,32.16
4646134,-0.01,-0.07,1.05,0.79,2.62,6.9,865.75,32.14
4646172,-0.0,-0.08,1.03,0.67,2.87,6.59,865.72,32.14
4646210,-0.02,-0.08,1.04,0.61,2.14,6.35,865.82,32.15
4646248,-0.02,-0.08,1.02,0.61,3.17,6.16,865.74,32.14
4646287,-0.01,-0.07,1.03,0.73,3.6,6.04,865.78,32.15
4646325,-0.0,-0.08,1.05,1.28,4.46,5.68,865.82,32.16
4646375,-0.01,-0.08,1.03,1.46,5.37,5.49,865.77,32.14
4646413,-0.01,-0.08,1.02,1.59,6.59,5.31,865.86,32.14
4646451,-0.01,-0.09,1.0,1.65,7.2,5.07,865.91,32.16
4646489,-0.01,-0.08,1.01,1.65,7.02,5.0,865.85,32.14
4646527,-0.01,-0.08,1.0,1.71,7.93,4.64,865.84,32.14
4646565,-0.01,-0.08,1.0,1.59,8.24,4.58,865.87,32.12
4646604,-0.01,-0.08,1.01,1.65,8.3,4.46,865.86,32.15
4646642,0.0,-0.09,0.99,1.53,7.81,4.27,865.96,32.15
4646680,-0.03,-0.09,0.96,1.34,8.3,4.15,865.93,32.16
4646718,-0.01,-0.08,0.97,1.46,8.12,4.27,865.91,32.15
4646768,-0.02,-0.08,0.99,1.34,7.32,4.03,865.97,32.14
4646806,-0.01,-0.08,0.99,1.1,7.14,3.97,865.96,32.14
4646844,-0.02,-0.09,0.97,0.92,7.26,3.91,865.99,32.14
4646882,-0.03,-0.09,1.01,0.73,6.77,3.85,866.03,32.13
4646920,-0.03,-0.09,1.03,1.1,6.16,3.91,866.0,32.13
4646959,-0.03,-0.08,1.05,0.85,6.04,3.66,866.03,32.13
4646997,-0.03,-0.08,1.14,1.34,6.1,3.48,866.03,32.13
4647035,-0.02,-0.08,1.13,1.46,7.14,3.48,866.06,32.14
4647073,-0.03,-0.08,1.13,1.34,6.77,3.3,866.05,32.13
4647111,-0.04,-0.07,1.14,1.89,7.69,3.48,866.11,32.13
4647161,-0.03,-0.08,1.13,1.77,7.69,3.23,866.16,32.11
4647199,-0.04,-0.07,1.1,1.59,7.87,3.17,866.1,32.12
4647238,-0.03,-0.07,1.12,1.71,7.87,3.17,866.15,32.11
4647276,-0.02,-0.08,1.17,1.4,8.0,3.11,866.12,32.13
4647314,-0.04,-0.08,1.16,1.83,8.36,3.3,866.16,32.13
4647352,-0.04,-0.08,1.16,2.01,7.63,3.05,866.15,32.12
4647390,-0.04,-0.08,1.12,2.2,7.57,3.05,866.19,32.12
4647428,-0.05,-0.07,1.12,2.32,7.14,2.99,866.2,32.13
4647466,-0.05,-0.08,1.06,3.05,7.51,3.23,866.2,32.12
4647516,-0.05,-0.07,1.02,2.87,7.08,3.17,866.2,32.12
4647554,-0.03,-0.08,1.01,3.17,6.35,3.17,866.23,32.12
4647593,-0.04,-0.09,1.0,3.17,5.98,3.05,866.27,32.12
4647631,-0.03,-0.09,0.96,2.93,6.84,3.05,866.21,32.13
4647669,-0.05,-0.08,0.97,2.75,5.62,3.17,866.27,32.14
4647707,-0.05,-0.09,0.96,2.44,5.49,3.17,866.27,32.13
4647745,-0.05,-0.09,0.96,2.01,5.25,3.11,866.26,32.13
4647783,-0.05,-0.08,0.99,1.77,4.82,3.17,866.29,32.15
4647821,-0.04,-0.09,0.98,1.71,4.21,3.42,866.26,32.14
4647860,-0.05,-0.09,0.99,1.53,3.54,3.42,866.25,32.13
4647935,-0.05,-0.08,0.99,1.04,2.81,3.66,866.27,32.12
4647973,-0.08,-0.09,0.96,0.85,2.75,3.91,866.35,32.14
4648012,-0.07,-0.08,1.0,0.61,3.11,3.97,866.3,32.12
4648101,-0.06,-0.08,0.98,0.61,2.75,4.21,866.42,32.1
4648139,-0.08,-0.09,0.92,0.61,3.6,4.27,866.35,32.1
4648177,-0.09,-0.08,0.97,0.43,3.66,4.46,866.42,32.13
4648215,-0.07,-0.08,1.0,0.55,4.39,4.58,866.35,32.13
4648254,-0.08,-0.09,1.0,0.12,4.64,4.82,866.41,32.12
4648292,-0.08,-0.08,1.01,0.12,4.64,4.7,866.35,32.12
4648341,-0.05,-0.08,1.05,0.24,5.8,4.88,866.44,32.11
4648380,-0.07,-0.08,1.07,0.43,5.07,5.07,866.43,32.11
4648418,-0.08,-0.09,1.08,0.79,5.31,5.31,866.45,32.11
4648456,-0.05,-0.09,1.02,0.85,5.62,5.13,866.47,32.13
4648494,-0.06,-0.09,1.03,0.92,5.13,5.19,866.54,32.1
4648532,-0.06,-0.09,0.96,1.34,4.33,5.49,866.54,32.11
4648570,-0.05,-0.1,0.98,1.1,4.09,5.55,866.55,32.11
4648608,-0.05,-0.1,0.94,1.16,4.46,5.62,866.57,32.11
4648646,-0.05,-0.09,0.93,1.04,3.66,5.74,866.55,32.12
4648685,-0.06,-0.08,0.97,0.85,3.36,5.55,866.59,32.12
4648734,-0.05,-0.1,0.98,0.61,3.91,5.68,866.55,32.1
4648772,-0.06,-0.08,1.03,0.73,4.09,5.74,866.54,32.12
4648811,-0.05,-0.09,1.02,0.92,3.85,5.86,866.58,32.11
4648849,-0.06,-0.09,1.04,0.85,3.6,5.86,866.6,32.11
4648887,-0.05,-0.09,1.05,0.85,4.21,5.8,866.59,32.11
4648925,-0.03,-0.1,1.06,0.73,4.09,5.86,866.71,32.11
4648963,-0.02,-0.09,1.08,0.67,3.72,5.74,866.63,32.1
4649001,-0.04,-0.09,1.09,0.79,4.03,5.92,866.65,32.11
4649039,-0.04,-0.09,1.14,0.92,3.3,5.86,866.68,32.11
4649077,-0.02,-0.1,1.18,0.67,3.11,5.49,866.72,32.1
4649127,-0.03,-0.08,1.22,0.85,2.56,5.92,866.73,32.09
4649165,-0.03,-0.09,1.25,1.22,2.62,5.74,866.71,32.1
4649204,-0.02,-0.11,1.19,1.34,3.36,5.43,866.77,32.09
4649242,-0.02,-0.1,1.14,1.65,3.23,5.49,866.78,32.09
4649280,-0.02,-0.1,1.16,1.89,4.21,5.25,866.78,32.11
4649318,-0.04,-0.12,1.1,2.38,3.11,5.13,866.8,32.1
4649356,-0.03,-0.1,1.0,2.01,3.48,4.88,866.87,32.09
4649394,-0.04,-0.1,0.98,1.77,2.5,5.19,866.82,32.09
4649433,-0.03,-0.11,1.0,1.59,2.81,4.88,866.9,32.1
4649482,-0.03,-0.1,0.91,0.92,2.2,4.7,866.9,32.09
4649521,-0.03,-0.11,0.9,1.34,2.87,4.7,866.84,32.09
4649559,-0.03,-0.11,0.81,0.55,0.67,4.76,866.9,32.1
4649597,-0.03,-0.1,0.85,0.18,1.83,4.64,866.85,32.11
4649635,-0.05,-0.11,0.78,0.31,1.83,4.33,866.87,32.1
4649673,-0.06,-0.09,0.81,0.31,0.18,4.7,866.88,32.11
4649711,-0.02,-0.11,0.8,0.24,-0.31,4.64,866.91,32.11
4649749,-0.05,-0.1,0.84,-0.12,-0.31,4.39,866.94,32.12
4649787,-0.05,-0.11,0.83,0.12,0.0,4.7,866.91,32.12
4649826,-0.03,-0.11,0.88,0.0,-0.61,4.76,866.97,32.12
4649875,-0.04,-0.1,0.94,-0.06,0.24,4.58,866.96,32.11
4649914,-0.06,-0.1,1.0,-0.31,-0.18,4.76,866.98,32.11
4649952,-0.06,-0.12,1.03,-0.37,-0.12,4.7,866.88,32.12
4649990,-0.03,-0.1,1.08,-0.79,0.55,4.58,866.99,32.11
4650028,-0.04,-0.09,1.16,-0.55,0.92,4.76,867.03,32.11
4650066,-0.0,-0.1,1.2,-0.55,2.2,4.82,867.05,32.11
4650104,-0.04,-0.11,1.23,0.18,4.39,4.7,867.08,32.1
4650142,-0.02,-0.11,1.18,0.67,5.92,4.46,867.06,32.09
4650181,-0.01,-0.1,1.18,0.79,6.53,4.33,867.15,32.09
4650219,-0.03,-0.1,1.15,1.46,6.16,4.39,867.12,32.09
4650269,-0.03,-0.09,1.21,2.01,5.86,4.27,867.09,32.08
4650307,-0.03,-0.11,1.11,2.5,5.98,4.15,867.15,32.08
4650345,-0.05,-0.11,1.06,2.5,5.07,4.03,867.08,32.08
4650383,-0.02,-0.1,1.06,2.81,6.16,3.85,867.17,32.09
4650421,-0.01,-0.11,1.06,2.81,5.98,3.48,867.19,32.09
4650459,-0.04,-0.11,0.97,2.56,6.77,3.54,867.23,32.09
4650498,-0.06,-0.1,0.92,2.75,5.0,3.48,867.18,32.1
4650536,-0.05,-0.09,0.96,2.93,6.41,3.54,867.14,32.1
4650574,-0.02,-0.12,0.93,2.69,4.58,3.6,867.2,32.11
4650624,-0.03,-0.11,0.94,2.08,6.16,3.48,867.19,32.09
4650662,-0.03,-0.11,0.85,2.2,4.64,3.54,867.2,32.09
4650700,-0.05,-0.12,0.9,2.2,4.7,3.6,867.23,32.1
4650738,-0.05,-0.12,0.79,1.65,5.31,3.85,867.2,32.09
4650776,-0.06,-0.09,0.83,1.28,3.42,3.97,867.26,32.1
4650814,-0.08,-0.11,0.81,1.53,4.58,3.91,867.22,32.09
4650852,-0.05,-0.11,0.92,0.79,1.83,3.78,867.2,32.09
4650891,-0.04,-0.11,0.97,0.43,4.94,3.72,867.21,32.09
4650929,-0.04,-0.12,0.94,0.06,6.84,3.91,867.23,32.09
4650967,-0.02,-0.1,1.08,-0.06,8.06,4.09,867.31,32.11
4651043,-0.09,-0.13,1.08,0.79,8.67,4.15,867.32,32.06
4651081,-0.03,-0.11,1.1,0.49,7.39,4.03,867.34,32.07
4651119,-0.02,-0.11,1.12,0.43,6.77,3.85,867.37,32.08
4651208,-0.04,-0.1,1.1,-0.06,6.77,4.21,867.37,32.03
4651247,-0.03,-0.13,0.98,0.0,7.02,4.09,867.38,32.05
4651285,-0.05,-0.1,1.0,-0.37,6.29,3.97,867.47,32.09
4651323,-0.05,-0.11,1.0,-0.24,7.32,3.97,867.42,32.07
4651361,-0.02,-0.12,1.09,-0.73,3.36,4.27,867.43,32.08
4651399,0.01,-0.12,1.15,-0.85,4.82,4.15,867.43,32.07
4651449,-0.03,-0.09,1.11,-0.73,2.01,4.21,867.46,32.05
4651487,-0.01,-0.1,1.18,-0.37,0.79,4.46,867.47,32.06
4651526,-0.04,-0.15,1.09,-0.24,2.93,4.15,867.48,32.07
4651564,-0.06,-0.1,1.22,-0.12,2.14,3.97,867.48,32.06
4651602,-0.03,-0.1,1.24,0.37,3.72,4.09,867.48,32.06
4651640,-0.05,-0.12,1.1,0.12,1.53,4.09,867.53,32.06
4651678,-0.05,-0.1,1.26,0.73,4.64,3.97,867.49,32.06
4651716,-0.01,-0.15,1.15,2.26,6.23,3.66,867.53,32.07
4651754,-0.01,-0.12,1.18,2.5,6.1,3.48,867.57,32.08
4651793,-0.05,-0.09,1.04,3.11,5.92,3.72,867.58,32.07
4651842,-0.05,-0.11,0.9,3.6,6.96,3.6,867.58,32.06
4651881,-0.05,-0.12,0.89,3.6,5.86,3.3,867.63,32.06
4651919,-0.02,-0.1,0.82,3.91,7.57,3.23,867.57,32.07
4651957,-0.02,-0.11,0.7,3.42,9.4,3.48,867.66,32.06
4651995,-0.02,-0.11,0.74,2.81,7.57,3.42,867.53,32.06
4652033,-0.04,-0.12,0.67,1.77,9.16,3.11,867.65,32.06
4652071,-0.07,-0.13,0.61,1.28,7.87,3.48,867.54,32.07
4652110,0.06,-0.11,0.83,0.73,7.08,3.05,867.63,32.07
4652148,-0.02,-0.13,0.74,0.55,6.35,2.99,867.58,32.07
4652186,-0.05,-0.1,0.79,0.43,6.04,3.48,867.68,32.08
4652236,0.0,-0.14,0.78,0.43,7.51,2.87,867.64,32.06
4652274,-0.04,-0.11,0.83,0.61,7.26,3.05,867.73,32.08
4652312,0.0,-0.11,0.74,0.98,7.81,2.93,867.71,32.06
4652350,-0.01,-0.09,0.83,0.79,7.51,2.81,867.73,32.05
4652388,0.04,-0.12,0.87,0.06,5.98,2.87,867.76,32.05
4652427,0.02,-0.12,1.04,0.0,3.11,2.38,867.74,32.06
4652465,-0.02,-0.13,1.04,-0.18,4.52,2.5,867.78,32.07
4652503,-0.01,-0.12,1.13,-0.31,3.3,2.56,867.75,32.05
4652541,-0.02,-0.1,1.26,-0.18,2.38,2.32,867.84,32.07
4652591,-0.04,-0.12,1.28,0.37,1.95,2.56,867.82,32.05
4652629,-0.01,-0.12,1.28,0.79,3.17,2.14,867.81,32.05
4652667,-0.01,-0.1,1.28,1.46,2.75,1.95,867.84,32.05
4652705,-0.0,-0.12,1.28,2.14,3.3,2.01,867.88,32.08
4652743,-0.01,-0.12,1.24,2.44,3.48,1.89,867.86,32.06
4652781,-0.02,-0.11,1.23,2.93,4.64,1.65,867.87,32.06
4652820,-0.01,-0.13,1.11,3.3,4.27,1.59,867.84,32.07
4652858,-0.02,-0.11,1.16,3.48,2.75,1.4,867.86,32.06
4652896,-0.0,-0.12,1.11,3.42,3.91,1.28,867.86,32.06
4652934,0.03,-0.11,1.1,2.99,3.48,0.98,867.86,32.05
4652984,-0.0,-0.13,1.25,3.23,3.6,0.85,867.86,32.05
4653022,0.02,-0.13,1.28,2.99,2.38,0.79,867.88,32.05
4653060,-0.05,-0.11,1.39,3.17,2.26,0.79,867.84,32.03
4653098,-0.0,-0.14,1.28,2.75,3.72,0.73,867.93,32.05
4653136,-0.01,-0.12,1.33,2.93,3.11,0.31,867.88,32.07
4653175,-0.01,-0.12,1.17,2.87,3.91,0.24,867.94,32.07
4653213,-0.0,-0.1,1.14,2.32,4.03,0.37,867.9,32.06
4653251,-0.01,-0.13,1.07,2.2,7.08,0.06,867.92,32.06
4653289,-0.03,-0.13,1.03,1.53,5.62,0.0,867.93,32.07
4653327,-0.01,-0.12,1.04,1.53,7.39,-0.18,867.96,32.07
4653377,0.03,-0.13,0.94,0.85,7.75,-0.37,867.97,32.06
4653415,-0.01,-0.11,0.94,0.49,7.81,-0.37,867.98,32.07
4653453,0.05,-0.15,1.02,0.61,7.02,-0.67,867.98,32.06
4653491,0.02,-0.14,0.98,-0.12,7.26,-0.55,867.94,32.05
4653530,-0.0,-0.12,0.95,-0.73,6.65,-0.73,868.0,32.06
4653568,0.04,-0.12,1.08,-0.12,6.29,-1.1,868.01,32.06
4653606,0.02,-0.13,1.03,-0.49,5.25,-1.22,867.99,32.05
4653644,0.01,-0.11,1.1,-0.67,2.62,-1.16,867.97,32.05
4653682,0.01,-0.13,1.08,-0.79,5.19,-1.53,867.99,32.05
4653732,0.05,-0.12,1.18,-0.79,4.64,-1.83,868.0,32.03
4653770,-0.03,-0.12,1.1,-0.37,5.19,-2.01,868.0,32.04
4653808,0.01,-0.13,1.13,-0.06,5.13,-2.38,868.07,32.05
4653846,0.01,-0.12,1.11,-0.18,6.41,-2.44,868.04,32.03
4653884,-0.02,-0.11,1.13,-0.43,6.47,-2.56,868.09,32.04
4653922,-0.01,-0.12,1.14,-0.31,6.41,-2.87,868.07,32.05
4653961,0.0,-0.12,1.14,-0.67,5.07,-3.05,868.08,32.05
4653999,-0.05,-0.11,1.19,-0.79,5.31,-2.93,868.07,32.05
4654037,-0.05,-0.12,1.15,-0.98,3.78,-2.93,868.08,32.05
4654075,-0.03,-0.12,1.21,-0.92,3.66,-3.05,868.14,32.06
4654151,-0.07,-0.11,1.19,-0.67,4.39,-2.87,868.14,32.03
4654189,-0.06,-0.11,1.2,-0.43,4.21,-2.62,868.09,32.03
4654227,-0.05,-0.11,1.28,-0.18,4.7,-2.99,868.14,32.03
4654317,-0.04,-0.11,1.26,0.49,6.23,-2.26,868.18,32.02
4654355,-0.08,-0.11,1.2,1.34,5.62,-2.44,868.18,32.0
4654393,-0.09,-0.1,1.19,1.95,5.25,-1.95,868.07,32.01
4654431,-0.08,-0.11,1.16,2.32,6.29,-1.83,868.13,32.01
4654469,-0.05,-0.12,1.14,2.44,7.32,-1.77,868.23,32.03
4654507,-0.1,-0.11,1.12,2.62,5.31,-1.4,868.13,32.02
4654557,-0.1,-0.13,1.09,2.62,7.51,-0.98,868.13,32.02
4654595,-0.07,-0.11,1.14,2.5,7.69,-1.04,868.07,32.02
4654633,-0.09,-0.09,1.13,2.14,7.2,-0.55,868.11,32.02
4654672,-0.09,-0.12,1.12,2.44,7.87,-0.43,868.09,32.02
4654710,-0.07,-0.1,1.18,2.26,7.87,-0.37,868.11,32.01
4654748,-0.07,-0.11,1.15,2.14,7.08,0.06,868.1,32.02
4654786,-0.07,-0.1,1.15,2.08,5.25,0.37,868.11,32.01
4654824,-0.06,-0.11,1.15,2.26,5.55,0.37,868.16,32.02
4654862,-0.07,-0.13,1.05,2.38,3.85,0.49,868.2,32.02
4654900,-0.07,-0.1,1.06,2.44,2.69,0.85,868.14,32.02
4654950,-0.09,-0.11,0.95,2.5,2.44,1.1,868.13,32.02
4654988,-0.09,-0.11,0.96,1.95,2.62,1.1,868.12,32.0
4655026,-0.07,-0.12,0.92,1.83,3.97,1.16,868.16,32.01
4655065,-0.09,-0.11,0.9,1.95,4.39,1.28,868.16,32.01
4655103,-0.08,-0.11,0.88,1.77,4.94,1.34,868.14,32.01
4655141,-0.06,-0.1,0.89,1.59,5.62,1.59,868.22,32.0
4655179,-0.07,-0.12,0.89,1.34,6.65,1.59,868.08,32.0
4655217,-0.09,-0.11,0.93,1.53,5.31,2.01,868.08,32.0
4655255,-0.09,-0.11,0.96,1.16,5.31,2.01,868.17,32.0
4655305,-0.06,-0.11,0.94,1.28,5.37,2.26,868.13,31.99
4655343,-0.07,-0.12,1.01,1.77,4.46,2.32,868.12,31.98
4655381,-0.08,-0.12,0.92,1.28,5.25,2.62,868.07,31.98
4655419,-0.03,-0.1,1.03,1.16,5.86,2.81,868.11,31.99
4655457,-0.08,-0.12,1.02,1.83,4.52,2.81,868.1,31.99
4655496,-0.08,-0.11,1.14,1.59,2.93,2.87,868.17,32.0
4655534,-0.04,-0.13,1.13,1.4,5.55,2.87,868.12,31.99
4655572,-0.05,-0.11,1.15,1.46,5.92,2.62,868.2,32.0
4655610,-0.07,-0.11,1.21,1.95,5.07,2.87,868.14,32.01
4655648,-0.06,-0.13,1.09,1.83,4.94,2.93,868.17,32.01
4655698,-0.09,-0.12,1.1,2.5,6.35,2.99,868.1,31.99
4655736,-0.08,-0.11,1.01,2.26,6.59,2.99,868.14,32.01
4655774,-0.08,-0.1,1.03,2.14,6.29,3.11,868.11,32.01
4655812,-0.06,-0.13,0.99,1.95,5.92,2.99,868.09,32.01
4655850,-0.07,-0.1,1.01,1.89,5.13,3.3,868.13,32.0
4655889,-0.06,-0.12,1.03,1.71,6.29,3.23,868.07,31.99
4655927,-0.08,-0.13,0.98,1.1,5.98,3.3,868.2,32.01
4655965,-0.06,-0.11,1.07,1.1,5.92,3.36,868.12,32.01
4656003,-0.07,-0.12,1.04,0.24,5.68,3.6,868.1,32.0
4656041,-0.07,-0.12,1.13,0.24,5.98,3.48,868.13,32.01
4656091,-0.05,-0.13,1.14,0.0,6.16,3.54,868.07,32.0
4656129,-0.06,-0.12,1.22,-0.24,5.68,3.36,868.1,31.99
4656167,-0.03,-0.12,1.22,-0.55,6.53,3.72,868.07,31.99
4656205,-0.06,-0.11,1.25,-0.55,7.14,3.72,868.17,32.01
4656243,-0.05,-0.11,1.25,-0.49,7.32,3.6,868.09,32.0
4656282,-0.05,-0.11,1.31,-0.18,6.1,3.54,868.13,32.0
4656320,-0.04,-0.12,1.32,0.06,5.07,3.54,868.09,32.0
4656358,-0.04,-0.13,1.32,0.49,4.76,3.54,868.1,32.01
4656396,-0.05,-0.12,1.32,0.85,4.7,3.42,868.12,32.0
4656446,-0.05,-0.12,1.29,1.34,5.13,3.48,868.17,32.0
4656484,-0.07,-0.12,1.27,1.59,6.23,3.6,868.05,31.98
4656522,-0.03,-0.12,1.25,1.65,5.68,3.54,868.1,31.99
4656560,-0.04,-0.12,1.27,1.83,5.13,3.42,868.09,32.0
4656599,-0.07,-0.12,1.18,2.2,5.07,3.36,868.11,31.99
4656637,-0.03,-0.13,1.13,2.38,3.6,3.36,868.1,32.0
4656675,-0.03,-0.13,1.05,2.44,3.11,3.3,868.11,31.99
4656713,-0.06,-0.13,0.91,2.87,2.32,3.3,868.09,31.98
4656751,-0.03,-0.11,0.91,3.05,1.16,3.3,868.15,31.98
4656789,-0.05,-0.14,0.8,3.05,2.26,3.36,868.08,31.98
4656839,-0.04,-0.13,0.76,2.5,1.89,3.36,868.05,31.97
4656877,-0.06,-0.13,0.72,2.56,1.46,3.23,868.06,31.98
4656915,-0.03,-0.13,0.83,1.95,0.98,3.11,868.01,31.99
4656953,-0.02,-0.13,0.78,1.22,1.89,2.69,868.07,32.0
4656991,-0.04,-0.11,0.87,1.16,0.18,3.05,867.98,31.99
4657030,-0.01,-0.14,0.85,0.92,1.28,2.81,868.0,32.0
4657068,-0.03,-0.13,0.84,0.31,0.85,2.62,868.04,31.99
4657106,-0.06,-0.12,0.85,0.73,1.71,2.75,867.99,32.01
4657144,-0.02,-0.14,0.83,0.85,1.16,2.44,867.99,32.0
4657221,-0.03,-0.11,0.9,0.67,2.93,2.2,867.98,31.97
4657259,-0.01,-0.13,0.96,1.04,3.6,1.95,867.98,31.99
4657297,-0.04,-0.13,0.98,0.92,3.17,1.77,867.92,31.98
4657387,-0.02,-0.12,0.95,0.92,4.03,1.65,867.97,31.94
4657425,-0.05,-0.12,0.89,1.04,2.99,1.34,867.92,31.94
4657463,-0.06,-0.12,0.81,1.53,3.05,1.22,867.97,31.97
4657501,-0.02,-0.12,0.78,1.59,2.75,1.1,867.96,31.96
4657540,-0.04,-0.11,0.75,1.4,2.87,1.16,868.01,31.96
4657578,-0.04,-0.12,0.68,1.34,2.69,1.22,867.97,31.98
4657616,-0.03,-0.12,0.74,1.1,2.32,0.98,867.97,31.98
4657666,-0.0,-0.14,0.67,1.04,2.32,0.98,868.0,31.96
4657704,-0.02,-0.1,0.84,0.85,0.73,0.79,867.92,31.96
4657742,-0.06,-0.13,0.79,0.79,2.75,0.79,867.89,31.94
4657780,-0.03,-0.12,0.85,0.43,0.85,0.67,867.96,31.96
4657818,-0.03,-0.12,0.91,0.67,2.01,0.73,867.89,31.96
4657857,-0.06,-0.13,0.91,0.85,1.28,0.67,867.9,31.96
4657895,-0.04,-0.12,0.91,0.55,2.32,0.55,867.83,31.95
4657933,-0.04,-0.11,0.92,0.31,2.5,0.43,867.89,31.96
4657971,-0.07,-0.11,1.0,0.43,2.14,0.73,867.92,31.96
4658009,-0.06,-0.14,0.98,0.49,2.56,0.85,867.89,31.97
4658059,-0.06,-0.12,1.06,1.04,2.75,0.49,867.9,31.96
4658097,-0.05,-0.13,1.02,0.85,3.36,0.79,867.89,31.96
4658136,-0.05,-0.11,1.0,0.79,2.62,0.73,867.89,31.96
4658174,-0.07,-0.11,0.99,1.22,3.85,0.55,867.86,31.97
4658212,-0.05,-0.13,0.97,1.22,3.05,0.92,867.88,31.97
4658250,-0.03,-0.12,1.0,0.73,3.72,0.79,867.84,31.96
4658288,-0.05,-0.11,1.02,1.16,4.52,0.67,867.87,31.98
4658326,-0.05,-0.12,1.07,0.98,4.64,0.73,867.9,31.99
4658364,-0.05,-0.13,1.03,0.92,5.0,0.85,867.88,31.99
4658414,-0.06,-0.11,1.04,1.1,5.07,0.61,867.86,31.98
4658452,-0.05,-0.12,1.03,1.34,6.41,0.73,867.88,31.99
4658490,-0.04,-0.13,1.01,1.4,5.98,0.73,867.89,31.98
4658529,-0.06,-0.12,1.03,1.59,5.62,0.85,867.85,31.98
4658567,-0.05,-0.13,0.99,0.98,5.49,1.1,867.83,31.98
4658605,-0.05,-0.11,1.04,1.16,5.68,1.16,867.81,31.99
4658643,-0.06,-0.12,1.02,1.28,5.55,0.85,867.84,31.98
4658681,-0.06,-0.11,1.02,1.34,4.15,1.04,867.86,32.0
4658719,-0.07,-0.11,1.04,1.28,4.52,1.16,867.86,32.0
4658757,-0.04,-0.12,1.02,1.34,5.25,1.1,867.88,32.0
4658807,-0.06,-0.11,1.03,1.16,4.94,1.22,867.78,31.98
4658845,-0.07,-0.15,0.98,1.1,5.0,1.4,867.88,31.99
4658883,-0.08,-0.11,1.02,0.98,3.66,1.34,867.89,32.0
4658922,-0.05,-0.11,1.01,1.04,3.91,1.53,867.81,31.99
4658960,-0.05,-0.11,1.02,0.85,3.54,1.65,867.85,32.0
4658998,-0.05,-0.12,1.05,0.98,3.54,2.01,867.84,31.99
4659036,-0.07,-0.12,0.99,1.34,3.05,1.83,867.82,31.99
4659074,-0.06,-0.11,1.03,1.4,2.81,1.95,867.82,31.99
4659112,-0.08,-0.12,1.0,1.4,3.97,2.14,867.81,31.99
4659150,-0.06,-0.12,1.0,1.16,3.05,2.08,867.83,31.98
4659200,-0.07,-0.12,0.97,1.4,3.97,2.08,867.78,31.98
4659238,-0.06,-0.13,0.97,1.22,3.17,2.2,867.82,31.97
4659276,-0.03,-0.11,0.99,1.34,3.91,2.32,867.82,31.99
4659315,-0.06,-0.13,0.93,1.34,3.23,2.44,867.83,31.98
4659353,-0.07,-0.11,0.95,1.59,2.5,2.5,867.83,31.99
4659391,-0.04,-0.12,0.88,1.53,2.69,2.2,867.84,31.99
4659429,-0.07,-0.1,0.89,1.4,2.81,2.32,867.75,31.99
4659467,-0.07,-0.13,0.81,1.4,4.46,2.62,867.73,31.97
4659505,-0.08,-0.11,0.84,1.04,3.66,2.62,867.75,31.98
4659555,-0.04,-0.11,0.94,0.92,5.43,2.87,867.79,31.96
4659593,-0.05,-0.11,0.96,0.67,4.58,2.93,867.74,31.96
4659631,-0.08,-0.11,0.99,0.73,5.19,2.81,867.7,31.96
4659670,-0.05,-0.12,1.05,0.79,3.78,2.99,867.67,31.96
4659708,-0.05,-0.11,1.13,0.61,3.17,3.05,867.75,31.98
4659746,-0.06,-0.12,1.11,0.73,3.72,3.05,867.76,31.96
4659784,-0.05,-0.14,1.11,0.73,4.33,3.36,867.71,31.96
4659822,-0.04,-0.12,1.16,0.61,2.75,3.05,867.71,31.97
4659860,-0.06,-0.11,1.17,1.1,2.26,3.42,867.72,31.94
4659899,-0.04,-0.13,1.11,1.28,2.87,3.36,867.77,31.96
4659948,-0.04,-0.11,1.11,1.83,2.44,3.17,867.74,31.95
4659987,-0.06,-0.11,1.06,2.14,1.34,3.3,867.68,31.96
4660025,-0.03,-0.11,1.06,1.77,1.89,3.23,867.72,31.97
4660063,-0.02,-0.12,1.1,2.5,2.93,3.11,867.76,31.98
4660101,-0.04,-0.13,1.1,2.26,2.38,2.93,867.73,31.97
4660139,-0.03,-0.12,1.08,2.08,3.54,2.99,867.74,31.96
4660177,-0.03,-0.12,1.07,2.08,2.99,2.93,867.72,31.97
4660216,-0.03,-0.13,1.0,2.26,3.66,2.56,867.72,31.97
4660254,-0.01,-0.12,0.93,1.83,3.23,2.69,867.73,31.97
4660292,-0.02,-0.11,0.95,2.08,2.81,2.32,867.72,31.96
4660368,-0.01,-0.11,0.93,1.46,3.54,2.14,867.67,31.93
4660406,-0.03,-0.12,1.02,1.77,2.69,1.83,867.68,31.93
4660444,-0.03,-0.13,1.06,1.59,2.62,1.83,867.64,31.94
4660534,-0.02,-0.11,1.15,1.59,4.09,1.4,867.71,31.91
4660572,-0.02,-0.12,1.07,1.53,4.39,1.34,867.71,31.94
4660610,-0.04,-0.11,1.11,2.08,4.46,1.1,867.69,31.95
4660648,-0.03,-0.13,1.05,2.2,4.94,1.1,867.64,31.94
4660686,-0.02,-0.11,1.11,1.95,4.09,1.1,867.74,31.95
4660725,-0.03,-0.11,1.06,2.08,5.62,0.92,867.64,31.95
4660774,-0.01,-0.12,1.09,1.95,5.13,0.73,867.64,31.94
4660813,-0.02,-0.11,1.07,1.95,4.88,0.67,867.68,31.94
4660851,-0.03,-0.11,1.07,2.01,4.33,0.73,867.66,31.95
4660889,-0.02,-0.11,1.13,2.01,4.7,0.61,867.6,31.95
4660927,-0.04,-0.12,1.13,1.95,5.49,0.55,867.58,31.94
4660965,-0.02,-0.12,1.18,2.01,4.46,0.43,867.61,31.93
4661003,-0.01,-0.11,1.21,2.26,4.46,0.31,867.62,31.94
4661042,-0.02,-0.13,1.16,2.38,5.07,0.18,867.56,31.94
4661080,-0.01,-0.12,1.18,2.32,4.94,0.24,867.59,31.94
4661118,-0.01,-0.12,1.18,2.81,4.15,0.0,867.63,31.96
4661168,-0.05,-0.12,1.14,2.87,4.52,-0.12,867.66,31.94
4661206,-0.02,-0.12,1.11,2.69,5.0,-0.18,867.58,31.94
4661244,-0.03,-0.11,1.1,2.44,5.49,-0.31,867.54,31.95
4661282,-0.03,-0.1,1.05,2.44,5.13,-0.31,867.57,31.95
4661320,-0.02,-0.12,1.01,2.44,5.13,-0.24,867.54,31.94
4661358,-0.02,-0.12,0.95,1.89,5.07,-0.31,867.52,31.94
4661397,0.0,-0.12,1.03,1.65,3.85,-0.61,867.59,31.96
4661435,-0.03,-0.12,0.96,1.34,4.76,-0.67,867.5,31.96
4661473,-0.04,-0.12,1.02,0.92,4.7,-0.55,867.47,31.94
4661511,-0.04,-0.11,1.06,0.92,5.19,-0.85,867.46,31.95
4661561,-0.04,-0.11,1.15,0.85,4.7,-0.92,867.42,31.94
4661599,-0.03,-0.12,1.1,0.61,4.39,-0.92,867.49,31.95
4661637,-0.05,-0.1,1.14,0.73,4.09,-0.92,867.48,31.97
4661675,-0.03,-0.12,1.1,0.98,3.78,-0.98,867.44,31.96
4661713,-0.05,-0.11,1.11,1.22,3.3,-0.85,867.5,31.95
4661751,-0.04,-0.13,1.05,1.83,4.52,-0.79,867.44,31.96
4661790,-0.06,-0.12,1.01,2.08,3.42,-0.85,867.45,31.96
4661828,-0.06,-0.1,1.01,2.5,3.78,-0.79,867.47,31.96
4661866,-0.04,-0.12,0.96,2.56,3.91,-0.73,867.41,31.96
4661916,-0.04,-0.11,0.97,2.62,4.03,-0.67,867.35,31.94
4661954,-0.04,-0.11,0.95,2.75,3.6,-0.67,867.4,31.97
4661992,-0.05,-0.11,0.94,2.62,4.46,-0.61,867.38,31.94
4662030,-0.05,-0.11,0.92,2.56,3.17,-0.61,867.3,31.96
4662068,-0.05,-0.11,0.92,2.62,2.81,-0.61,867.39,31.97
4662106,-0.06,-0.11,0.86,2.44,2.81,-0.37,867.31,31.96
4662145,-0.05,-0.1,0.89,2.38,2.62,-0.49,867.28,31.96
4662183,-0.06,-0.11,0.88,2.2,2.44,-0.43,867.31,31.96
4662221,-0.06,-0.11,0.85,2.2,2.26,-0.31,867.3,31.97
4662259,-0.06,-0.11,0.86,2.26,2.87,-0.37,867.3,31.96
4662309,-0.06,-0.11,0.82,2.14,2.75,-0.31,867.27,31.97
4662347,-0.06,-0.11,0.85,1.89,2.69,-0.18,867.26,31.96
4662385,-0.07,-0.11,0.86,1.59,2.87,-0.18,867.24,31.97
4662423,-0.04,-0.11,0.92,1.59,3.48,-0.18,867.23,31.98
4662462,-0.06,-0.12,0.88,1.46,3.42,-0.06,867.28,31.97
4662500,-0.08,-0.1,0.95,1.77,3.54,0.12,867.19,31.97
4662538,-0.06,-0.11,0.93,1.59,4.03,0.18,867.12,31.97
4662576,-0.06,-0.1,1.0,1.77,2.56,0.31,867.16,31.98
4662614,-0.07,-0.12,0.95,1.77,4.03,0.31,867.21,31.98
4662664,-0.06,-0.1,0.99,1.71,2.81,0.55,867.17,31.96
4662702,-0.07,-0.11,0.96,1.83,3.23,0.79,867.2,31.97
4662740,-0.08,-0.11,0.95,1.77,2.5,0.85,867.13,31.96
4662778,-0.06,-0.11,0.98,1.77,3.05,0.92,867.11,31.96
4662817,-0.06,-0.11,0.94,1.71,2.87,0.98,867.15,31.97
4662855,-0.07,-0.11,0.95,1.59,3.3,1.04,867.1,31.96
4662893,-0.07,-0.1,0.97,1.71,3.3,1.04,867.12,31.96
4662931,-0.07,-0.11,0.96,1.77,4.03,1.16,867.14,31.96
4662969,-0.06,-0.11,0.96,1.83,3.97,1.46,867.08,31.96
4663007,-0.06,-0.1,1.01,1.89,4.21,1.28,867.08,31.96
4663057,-0.07,-0.11,0.96,2.32,4.09,1.53,867.06,31.94
4663095,-0.08,-0.1,0.97,2.26,4.46,1.65,867.05,31.94
4663133,-0.05,-0.11,0.98,2.14,3.48,1.77,867.01,31.93
4663171,-0.05,-0.11,0.98,1.89,3.42,1.89,867.01,31.94
4663210,-0.06,-0.11,0.98,1.95,3.23,1.77,867.04,31.94
4663248,-0.08,-0.1,1.0,2.2,2.81,2.26,867.04,31.94
4663286,-0.08,-0.1,0.99,2.26,2.81,2.32,866.99,31.93
4663324,-0.07,-0.11,1.0,2.5,2.38,2.38,867.0,31.95
4663362,-0.06,-0.11,0.97,2.62,2.08,2.26,867.03,31.96
4663438,-0.03,-0.11,0.96,2.87,2.93,2.38,867.01,31.91
4663476,-0.06,-0.11,0.89,2.2,2.69,2.38,867.05,31.92
4663514,-0.05,-0.1,0.92,2.32,2.87,2.56,867.03,31.94
4663604,-0.03,-0.1,0.91,2.08,2.81,2.14,867.03,31.89
4663642,-0.06,-0.1,0.84,1.89,2.75,2.2,866.97,31.9
4663680,-0.02,-0.11,0.9,1.77,1.34,2.26,866.97,31.91
4663718,-0.02,-0.11,0.93,1.77,2.14,2.14,866.98,31.93
4663756,-0.05,-0.11,0.94,1.95,1.4,2.26,866.94,31.92
4663795,-0.05,-0.11,0.95,2.08,1.59,2.2,866.95,31.93
4663833,-0.01,-0.1,0.92,2.26,1.28,1.95,866.92,31.92
4663883,-0.02,-0.12,0.88,2.38,2.81,2.01,866.96,31.92
4663921,-0.02,-0.11,0.91,1.83,3.11,1.95,866.93,31.93
4663959,-0.04,-0.1,0.93,1.89,4.03,1.77,866.96,31.93
4663997,-0.01,-0.11,0.95,2.08,3.91,1.89,866.96,31.92
4664035,-0.02,-0.11,0.98,2.08,3.23,1.59,866.88,31.93
4664074,-0.03,-0.13,0.92,1.89,4.52,1.28,866.87,31.92
4664112,-0.02,-0.11,0.96,1.89,4.39,1.1,866.95,31.93
4664150,-0.01,-0.11,0.96,2.2,5.0,1.1,866.87,31.93
4664188,-0.03,-0.11,0.92,1.89,4.7,1.1,866.9,31.92
4664226,-0.04,-0.1,1.01,2.38,6.35,0.98,866.91,31.94
4664276,-0.01,-0.12,0.94,2.5,6.59,0.79,866.91,31.92
4664314,-0.03,-0.1,1.0,2.69,6.65,0.67,866.89,31.93
4664352,-0.04,-0.11,0.91,2.81,6.65,0.61,866.86,31.92
4664390,-0.02,-0.1,0.98,2.81,6.1,0.49,866.78,31.91
4664429,-0.03,-0.11,0.93,2.93,7.08,0.49,866.87,31.91
4664467,-0.03,-0.1,0.94,2.62,5.49,0.55,866.87,31.91
4664505,-0.05,-0.1,0.92,2.62,5.62,0.49,866.85,31.91
4664543,-0.04,-0.11,0.9,2.75,5.37,0.24,866.83,31.91
4664581,-0.04,-0.11,0.91,2.75,5.68,0.37,866.91,31.9
4664631,-0.03,-0.1,0.91,2.87,4.39,0.61,866.74,31.89
4664669,-0.04,-0.1,0.92,2.75,4.82,0.49,866.83,31.9
4664707,-0.05,-0.11,0.91,2.81,4.58,0.43,866.84,31.91
4664746,-0.05,-0.1,0.95,2.81,4.52,0.55,866.82,31.92
4664784,-0.06,-0.11,0.9,2.75,4.33,0.49,866.8,31.9
4664822,-0.04,-0.1,0.92,2.69,4.64,0.49,866.79,31.92
4664860,-0.04,-0.1,0.89,2.93,5.07,0.55,866.75,31.92
4664898,-0.06,-0.1,0.9,2.87,4.33,0.67,866.76,31.9
4664936,-0.05,-0.1,0.9,2.93,4.58,0.67,866.74,31.89
4664974,-0.04,-0.1,0.89,2.81,4.82,0.79,866.77,31.9
4665024,-0.05,-0.11,0.89,2.93,5.0,0.67,866.75,31.89
4665062,-0.04,-0.1,0.89,2.87,3.97,0.79,866.77,31.89
4665101,-0.03,-0.1,0.89,2.87,4.09,0.98,866.77,31.89
4665139,-0.04,-0.12,0.85,2.81,3.85,0.92,866.74,31.9
4665177,-0.05,-0.09,0.89,2.69,3.48,0.92,866.69,31.89
4665215,-0.05,-0.11,0.85,2.81,3.05,0.92,866.7,31.89
4665253,-0.05,-0.09,0.88,2.93,2.14,0.85,866.74,31.9
4665291,-0.03,-0.09,0.89,2.81,3.11,0.85,866.69,31.9
4665329,-0.03,-0.1,0.89,2.56,1.83,0.85,866.71,31.92
4665368,-0.04,-0.1,0.9,2.5,1.83,1.1,866.73,31.92
4665418,-0.05,-0.1,0.93,2.62,0.98,0.85,866.74,31.9
4665456,-0.05,-0.11,0.92,2.62,2.26,1.1,866.74,31.9
4665494,-0.02,-0.11,0.94,2.14,1.46,1.16,866.71,31.9
4665532,-0.03,-0.1,0.96,2.5,2.01,0.79,866.74,31.91
4665570,-0.03,-0.11,0.89,2.2,2.38,0.98,866.72,31.91
4665608,-0.03,-0.1,0.91,1.95,2.01,0.85,866.7,31.91
4665646,-0.04,-0.1,0.89,2.14,2.75,0.92,866.68,31.91
4665685,-0.06,-0.1,0.9,2.01,2.32,0.98,866.72,31.91
4665723,-0.05,-0.1,0.94,1.89,3.05,0.98,866.64,31.9
4665772,-0.03,-0.11,0.96,1.83,3.23,0.85,866.68,31.9
4665811,-0.04,-0.11,0.96,2.2,4.7,0.79,866.68,31.91
4665849,-0.04,-0.11,0.95,2.44,4.94,0.79,866.72,31.91
4665887,-0.04,-0.09,0.93,2.44,6.29,0.79,866.75,31.92
4665925,-0.03,-0.1,0.94,2.56,6.41,0.85,866.63,31.91
4665963,-0.05,-0.11,0.91,2.56,7.57,0.61,866.64,31.93
4666001,-0.03,-0.1,0.94,2.44,6.84,0.67,866.66,31.93
4666040,-0.03,-0.1,0.99,2.26,6.96,0.92,866.75,31.92
4666078,-0.01,-0.1,0.97,2.38,7.2,0.92,866.71,31.91
4666116,-0.01,-0.1,1.01,2.5,6.9,0.79,866.71,31.92
4666166,-0.04,-0.1,0.96,2.56,6.65,0.79,866.72,31.9
4666204,-0.03,-0.1,0.94,2.5,6.41,0.73,866.64,31.91
4666242,-0.03,-0.1,0.94,2.56,6.35,0.61,866.67,31.91
4666280,-0.03,-0.11,0.94,2.38,5.92,0.79,866.68,31.93
4666319,-0.04,-0.1,0.94,2.38,6.47,0.61,866.64,31.91
4666357,-0.02,-0.1,0.96,1.95,6.47,0.73,866.66,31.92
4666395,-0.02,-0.09,0.99,2.01,6.23,0.67,866.72,31.91
4666433,-0.03,-0.1,0.97,2.14,6.84,0.55,866.7,31.9
4666471,-0.03,-0.1,0.98,2.2,6.9,0.67,866.66,31.91
4666509,-0.03,-0.1,0.98,2.08,6.77,0.55,866.62,31.92
4666585,-0.03,-0.1,0.97,1.65,7.63,0.61,866.66,31.88
4666623,-0.02,-0.11,0.99,2.2,7.32,0.37,866.67,31.89
4666661,-0.01,-0.12,0.95,2.32,7.69,0.49,866.66,31.9
4666751,-0.03,-0.11,0.96,2.32,6.9,0.49,866.63,31.86
4666789,-0.03,-0.09,0.96,2.01,5.68,0.43,866.66,31.88
4666827,-0.04,-0.1,0.92,2.32,6.04,0.43,866.64,31.89
4666865,-0.02,-0.1,0.89,2.08,5.31,0.37,866.66,31.9
4666903,-0.02,-0.09,0.86,2.14,5.13,0.49,866.67,31.89
4666941,-0.02,-0.1,0.8,2.32,4.64,0.43,866.62,31.9
4666991,-0.04,-0.1,0.81,1.95,4.76,0.37,866.63,31.88
4667029,-0.03,-0.11,0.8,1.71,5.07,0.24,866.66,31.89
4667068,-0.05,-0.1,0.81,1.59,4.46,0.24,866.57,31.89
4667106,-0.05,-0.1,0.83,1.28,4.7,0.06,866.62,31.9
4667144,-0.05,-0.09,0.88,1.28,4.82,0.12,866.58,31.88
4667182,-0.05,-0.09,0.93,0.98,5.49,0.37,866.57,31.89
4667220,-0.04,-0.1,0.9,0.85,5.74,0.12,866.62,31.9
4667258,-0.06,-0.09,0.95,1.16,4.58,0.31,866.62,31.89
4667296,-0.05,-0.1,0.98,1.22,4.88,0.55,866.65,31.9
4667334,-0.04,-0.1,0.95,0.92,5.07,0.61,866.65,31.91
4667384,-0.05,-0.09,0.99,1.1,4.52,0.61,866.66,31.89
4667422,-0.04,-0.09,1.01,1.34,4.15,0.92,866.61,31.9
4667461,-0.05,-0.1,1.03,1.34,4.21,0.85,866.57,31.89
4667499,-0.05,-0.09,1.04,1.28,3.91,1.04,866.61,31.88
4667537,-0.04,-0.09,1.08,1.59,3.97,1.1,866.6,31.9
4667575,-0.05,-0.1,1.05,1.83,3.72,1.04,866.67,31.9
4667613,-0.03,-0.09,1.06,2.14,3.42,0.98,866.63,31.9
4667651,-0.04,-0.1,1.03,2.14,4.52,0.98,866.65,31.91
4667689,-0.04,-0.09,1.02,2.14,3.72,1.1,866.66,31.9
4667728,-0.04,-0.1,1.04,2.5,3.11,1.1,866.62,31.89
4667777,-0.04,-0.1,1.01,2.56,2.44,1.04,866.67,31.9
4667816,-0.05,-0.1,1.02,2.75,2.14,1.16,866.61,31.89
4667854,-0.04,-0.11,0.99,2.62,2.32,1.22,866.65,31.9
4667892,-0.04,-0.1,0.94,2.38,1.77,1.04,866.65,31.9
4667930,-0.05,-0.09,0.97,2.44,1.71,1.22,866.64,31.89
4667968,-0.05,-0.1,0.94,2.14,2.81,1.34,866.59,31.91
4668006,-0.05,-0.09,0.95,2.14,2.75,1.4,866.63,31.89
4668045,-0.05,-0.09,0.95,2.14,3.54,1.28,866.66,31.9
4668083,-0.04,-0.1,0.94,1.77,2.75,1.4,866.65,31.89
4668133,-0.03,-0.09,0.99,2.01,3.6,1.22,866.6,31.88
4668171,-0.03,-0.1,0.98,2.2,3.11,1.53,866.64,31.9
4668209,-0.02,-0.09,1.0,2.32,3.11,1.46,866.67,31.9
4668247,-0.04,-0.09,0.99,2.38,2.5,1.22,866.59,31.88
4668285,-0.06,-0.1,0.99,2.32,2.32,1.46,866.7,31.88
4668324,-0.02,-0.1,0.97,2.26,1.95,1.34,866.6,31.87
4668362,-0.04,-0.1,1.0,2.44,2.32,1.22,866.64,31.89
4668400,-0.03,-0.1,0.98,2.62,2.99,1.1,866.61,31.87
4668438,-0.03,-0.09,0.99,2.5,2.44,1.16,866.59,31.87
4668476,-0.04,-0.1,0.95,2.38,3.3,1.16,866.64,31.89
4668526,-0.04,-0.1,0.9,1.89,2.62,1.1,866.68,31.88
4668564,-0.05,-0.09,0.9,1.89,2.69,1.22,866.65,31.88
4668602,-0.02,-0.11,0.87,1.77,3.3,1.28,866.68,31.89
4668640,-0.04,-0.09,0.89,1.59,3.17,1.28,866.65,31.89
4668679,-0.02,-0.1,0.91,1.65,3.3,1.1,866.59,31.89
4668717,-0.04,-0.11,0.9,1.77,3.17,1.04,866.61,31.89
4668755,-0.03,-0.09,0.96,1.83,3.54,1.16,866.63,31.89
4668793,-0.04,-0.1,0.95,1.83,4.76,1.04,866.6,31.89
4668831,-0.04,-0.1,0.98,1.89,4.46,0.92,866.66,31.89
4668869,-0.03,-0.09,1.01,1.95,4.76,1.1,866.61,31.89
4668919,-0.04,-0.1,1.0,2.2,4.88,0.92,866.63,31.88
4668957,-0.0,-0.09,1.0,2.14,5.07,0.98,866.7,31.89
4668995,-0.05,-0.09,0.99,2.32,5.07,0.85,866.57,31.89
4669034,-0.04,-0.09,0.99,2.26,5.25,0.92,866.66,31.89
4669072,-0.04,-0.09,1.0,2.26,4.64,1.04,866.6,31.88
4669110,-0.04,-0.09,1.03,2.32,4.03,0.85,866.65,31.9
4669148,-0.04,-0.1,0.97,2.69,4.58,1.04,866.62,31.89
4669186,-0.05,-0.09,1.01,2.75,3.97,0.98,866.65,31.89
4669224,-0.04,-0.1,1.0,2.75,4.03,1.1,866.65,31.89
4669274,-0.03,-0.09,0.96,2.56,3.05,0.85,866.66,31.89
4669312,-0.05,-0.09,0.93,2.56,3.6,1.16,866.62,31.89
4669350,-0.02,-0.1,0.94,2.99,2.5,1.22,866.6,31.89
4669388,-0.04,-0.09,0.95,2.75,3.11,1.1,866.69,31.9
4669427,-0.02,-0.1,0.91,2.5,2.69,1.22,866.66,31.89
4669465,-0.03,-0.09,0.95,2.44,2.56,1.1,866.63,31.87
4669503,-0.02,-0.09,0.94,2.44,2.38,1.22,866.67,31.9
4669541,-0.04,-0.11,0.95,2.08,2.69,1.22,866.63,31.89
4669579,-0.02,-0.09,0.98,2.14,2.32,1.16,866.64,31.91
4669617,-0.03,-0.09,1.0,1.95,1.95,0.98,866.69,31.91
4669693,-0.03,-0.1,1.03,1.89,2.08,1.1,866.68,31.87
4669731,-0.03,-0.09,1.03,2.01,1.89,0.85,866.68,31.88
4669770,-0.04,-0.09,1.02,2.14,2.01,0.98,866.67,31.88
4669859,-0.02,-0.09,0.95,2.01,3.85,0.79,866.62,31.83
4669897,-0.05,-0.09,0.95,2.08,3.66,0.79,866.71,31.86
4669936,-0.02,-0.09,0.96,2.38,4.03,0.85,866.63,31.86
4669974,-0.01,-0.11,0.91,2.62,5.07,0.61,866.69,31.86
4670012,-0.0,-0.09,0.98,2.56,3.78,0.49,866.66,31.88
4670050,-0.01,-0.1,0.95,2.38,4.03,0.55,866.63,31.85
4670088,0.01,-0.09,1.04,1.89,2.01,0.43,866.64,31.87
4670138,-0.02,-0.11,1.03,2.01,2.87,0.24,866.72,31.86
4670176,-0.04,-0.1,0.99,1.83,2.08,0.31,866.69,31.88
4670214,-0.01,-0.09,1.01,2.08,2.75,0.12,866.65,31.88
4670253,-0.03,-0.1,0.96,1.95,1.95,-0.06,866.72,31.88
4670291,-0.02,-0.09,0.92,1.71,2.26,0.06,866.65,31.87
4670329,-0.03,-0.1,0.94,1.71,2.56,0.0,866.67,31.87
4670367,-0.03,-0.1,0.95,1.71,2.75,-0.06,866.69,31.87
4670405,-0.06,-0.1,0.96,1.77,2.56,0.06,866.71,31.88
4670443,-0.04,-0.08,1.01,1.71,2.87,0.0,866.65,31.87
4670493,-0.03,-0.1,0.96,1.71,3.11,0.12,866.7,31.88
4670531,-0.02,-0.09,1.0,1.83,3.11,0.12,866.68,31.88
4670569,-0.02,-0.1,0.95,1.71,3.48,0.0,866.65,31.88
4670608,-0.04,-0.09,0.95,1.83,3.6,0.06,866.62,31.89
4670646,-0.04,-0.1,0.91,1.65,4.88,-0.06,866.65,31.88
4670684,-0.05,-0.1,0.9,1.71,3.97,-0.12,866.7,31.88
4670722,-0.03,-0.1,0.9,1.77,4.76,0.0,866.74,31.88
4670760,-0.01,-0.1,0.89,1.46,4.7,0.06,866.72,31.88
4670798,-0.04,-0.1,0.94,1.53,4.64,-0.06,866.68,31.88
4670836,-0.04,-0.11,0.91,1.4,4.52,-0.06,866.65,31.88
4670886,-0.04,-0.09,0.96,0.98,4.33,-0.24,866.63,31.86
4670924,-0.02,-0.1,0.93,0.73,5.8,-0.18,866.71,31.87
4670962,-0.02,-0.1,0.93,0.55,5.31,-0.24,866.7,31.88
4671001,-0.02,-0.1,0.93,0.67,5.49,-0.24,866.71,31.89
4671039,-0.03,-0.1,0.86,0.31,4.33,-0.43,866.69,31.88
4671077,-0.03,-0.09,0.87,0.37,4.46,-0.37,866.65,31.89
4671115,-0.03,-0.1,0.8,0.61,4.15,-0.24,866.71,31.87
4671153,-0.01,-0.1,0.78,0.24,3.54,-0.31,866.7,31.89
4671191,-0.04,-0.1,0.77,0.12,3.6,-0.43,866.68,31.89
4671241,-0.06,-0.09,0.8,0.37,3.78,-0.24,866.72,31.88
4671279,-0.03,-0.1,0.76,0.06,4.27,-0.24,866.73,31.87
4671317,-0.04,-0.09,0.77,0.0,3.11,-0.43,866.75,31.88
4671355,-0.05,-0.1,0.79,0.18,3.91,-0.37,866.66,31.86
4671394,-0.02,-0.09,0.83,-0.24,2.93,-0.24,866.72,31.89
4671432,-0.03,-0.09,0.85,-0.43,3.66,-0.31,866.68,31.88
4671470,-0.03,-0.1,0.86,-0.43,3.11,-0.37,866.68,31.88
4671508,-0.04,-0.09,0.98,-0.24,2.99,-0.18,866.76,31.88
4671546,-0.02,-0.11,0.95,-0.37,3.11,-0.24,866.68,31.88
4671584,-0.03,-0.1,0.98,-0.43,1.95,-0.12,866.76,31.89
4671634,-0.05,-0.1,0.91,0.0,2.32,-0.31,866.76,31.86
4671672,-0.02,-0.1,0.91,0.31,1.46,-0.37,866.78,31.88
4671711,-0.04,-0.09,0.86,0.79,1.34,-0.24,866.78,31.87
4671749,-0.03,-0.09,0.85,1.04,0.18,-0.06,866.79,31.89
4671787,-0.04,-0.1,0.85,1.1,1.22,-0.37,866.77,31.89
4671825,-0.07,-0.09,0.86,1.16,0.79,-0.18,866.74,31.87
4671863,-0.05,-0.1,0.91,1.4,1.16,0.0,866.78,31.88
4671901,-0.03,-0.1,0.88,1.28,1.65,-0.24,866.84,31.89
4671939,-0.06,-0.08,0.93,1.46,1.95,0.0,866.79,31.89
4671989,-0.03,-0.12,0.92,1.71,2.81,-0.06,866.81,31.87
4672027,-0.07,-0.08,1.01,1.77,2.99,-0.06,866.8,31.87
4672065,-0.05,-0.09,0.97,1.71,4.03,-0.06,866.74,31.88
4672104,-0.06,-0.09,1.03,1.77,3.78,-0.18,866.75,31.87
4672142,-0.05,-0.08,1.05,1.65,4.94,-0.12,866.81,31.89
4672180,-0.04,-0.09,1.06,1.59,4.88,-0.12,866.77,31.87
4672218,-0.04,-0.07,1.12,2.01,5.0,0.18,866.8,31.88
4672256,-0.06,-0.09,1.12,2.32,4.64,0.18,866.84,31.88
4672294,-0.05,-0.08,1.17,2.44,4.03,0.31,866.78,31.87
4672332,-0.05,-0.08,1.17,2.87,4.7,0.37,866.83,31.88
4672382,-0.04,-0.09,1.16,2.81,3.54,0.43,866.85,31.85
4672420,-0.05,-0.08,1.13,2.99,3.97,0.43,866.92,31.87
4672458,-0.05,-0.08,1.11,3.23,3.66,0.49,866.89,31.87
4672497,-0.04,-0.08,1.07,3.3,3.6,0.55,866.89,31.87
4672535,-0.05,-0.09,1.03,3.23,3.42,0.61,866.87,31.86
4672573,-0.04,-0.09,0.99,3.23,3.36,0.61,866.85,31.86
4672611,-0.05,-0.09,0.92,3.3,3.36,0.73,866.92,31.86
4672649,-0.06,-0.09,0.92,3.3,2.5,0.98,866.9,31.87
4672687,-0.04,-0.1,0.85,2.93,2.75,0.85,866.87,31.87
4672763,-0.06,-0.1,0.88,2.75,2.2,0.98,866.85,31.84
4672801,-0.03,-0.11,0.88,2.32,2.01,1.1,866.83,31.85
4672839,-0.04,-0.08,0.96,2.14,1.1,1.22,866.88,31.86
4672929,-0.05,-0.09,0.94,1.77,1.34,1.22,866.87,31.83
4672967,-0.04,-0.08,0.97,1.83,1.83,1.34,866.96,31.84
4673005,-0.04,-0.09,0.94,1.46,2.08,1.22,866.93,31.84
4673043,-0.04,-0.09,1.01,1.71,1.04,1.1,866.97,31.86
4673081,-0.05,-0.09,0.97,1.83,2.2,1.1,866.99,31.85
4673119,-0.05,-0.09,1.0,1.83,1.71,1.28,866.88,31.85
4673157,-0.03,-0.09,0.98,2.01,1.59,1.16,866.98,31.86
4673207,-0.04,-0.09,1.0,1.71,0.79,1.28,866.97,31.85
4673245,-0.04,-0.09,0.98,2.08,1.34,0.98,867.0,31.85
4673283,-0.05,-0.09,0.99,2.01,0.18,1.34,866.94,31.87
4673322,-0.05,-0.09,1.01,1.95,0.85,1.22,866.94,31.87
4673360,-0.05,-0.09,1.0,1.65,1.53,1.46,866.98,31.86
4673398,-0.05,-0.09,1.01,1.77,1.89,1.34,867.0,31.86
4673436,-0.04,-0.09,0.98,2.01,2.69,1.28,867.02,31.87
4673474,-0.04,-0.08,0.98,1.83,2.38,1.46,867.1,31.87
4673512,-0.03,-0.1,0.94,2.38,3.48,1.28,867.05,31.87
4673550,-0.05,-0.1,0.9,2.38,3.66,1.34,867.06,31.86
4673600,-0.04,-0.09,0.84,2.38,3.72,1.4,867.04,31.87
4673638,-0.05,-0.08,0.81,2.08,3.72,1.22,867.01,31.86
4673676,-0.05,-0.09,0.8,1.89,4.15,1.16,867.06,31.87
4673715,-0.04,-0.09,0.77,1.71,2.99,1.34,867.02,31.88
4673753,-0.03,-0.1,0.82,1.34,2.2,1.59,867.01,31.86
4673791,-0.04,-0.1,0.84,1.28,1.89,1.53,866.99,31.87
4673829,-0.04,-0.09,0.86,1.1,1.77,1.22,867.08,31.87
4673867,-0.04,-0.09,0.89,0.92,1.34,1.46,867.09,31.88
4673905,-0.05,-0.1,0.86,0.79,1.89,1.59,867.07,31.87
4673955,-0.05,-0.08,0.88,0.79,1.83,1.53,867.08,31.87
4673993,-0.04,-0.08,0.93,0.92,2.14,1.59,867.09,31.86
4674031,-0.04,-0.1,0.9,1.04,2.38,1.4,867.11,31.85
4674069,-0.05,-0.09,0.93,1.16,2.56,1.34,867.1,31.87
4674107,-0.04,-0.09,0.96,1.46,3.05,1.34,867.14,31.87
4674146,-0.04,-0.1,0.93,1.4,2.81,1.46,867.14,31.85
4674184,-0.06,-0.08,0.98,1.59,3.3,1.1,867.11,31.85
4674222,-0.04,-0.09,0.96,1.77,4.21,1.4,867.17,31.84
4674260,-0.01,-0.09,0.97,1.65,3.85,1.4,867.18,31.85
4674298,-0.05,-0.09,0.99,1.95,3.66,1.46,867.18,31.85
4674348,-0.04,-0.09,0.99,2.08,2.93,1.59,867.17,31.82
4674386,-0.02,-0.09,1.01,1.95,2.26,1.28,867.18,31.84
4674424,-0.04,-0.09,0.99,2.26,1.53,1.53,867.2,31.84
4674462,-0.03,-0.1,0.97,2.01,1.1,1.53,867.2,31.85
4674500,-0.01,-0.09,1.02,1.83,0.73,1.46,867.22,31.85
4674538,-0.03,-0.09,1.03,2.01,1.71,1.4,867.2,31.85
4674577,-0.03,-0.09,1.05,1.95,1.16,1.46,867.28,31.86
4674615,-0.05,-0.09,1.06,2.26,2.08,1.4,867.2,31.85
4674653,-0.02,-0.11,0.99,2.2,2.99,1.16,867.29,31.85
4674691,-0.03,-0.08,1.02,2.69,3.85,1.1,867.27,31.85
4674741,-0.03,-0.1,0.9,2.69,5.68,0.98,867.24,31.84
4674779,-0.03,-0.09,0.93,2.87,6.9,0.79,867.3,31.84
4674817,-0.04,-0.09,0.9,2.87,8.3,0.98,867.28,31.85
4674855,-0.02,-0.1,0.92,2.99,8.0,0.67,867.32,31.86
4674893,-0.04,-0.09,0.94,2.93,7.75,0.73,867.33,31.87
4674931,-0.02,-0.09,0.95,2.69,6.65,0.85,867.3,31.85
4674969,-0.01,-0.09,0.97,2.32,5.92,0.92,867.26,31.87
4675008,-0.02,-0.09,0.95,2.14,4.58,0.98,867.3,31.85
4675046,-0.02,-0.09,0.98,1.59,3.3,0.98,867.28,31.85
4675095,-0.04,-0.08,1.02,1.28,2.38,0.85,867.31,31.84
4675134,-0.04,-0.09,1.03,1.22,2.5,0.85,867.34,31.85
4675172,-0.01,-0.09,1.09,1.1,2.44,0.79,867.37,31.86
4675210,-0.02,-0.1,1.08,1.1,2.38,0.73,867.37,31.84
4675248,-0.04,-0.09,1.08,1.16,3.05,0.73,867.41,31.85
4675286,-0.02,-0.09,1.08,1.53,3.36,0.55,867.38,31.85
4675324,-0.05,-0.08,1.03,1.1,3.48,0.37,867.37,31.85
4675362,-0.04,-0.09,1.02,1.04,3.78,0.43,867.43,31.86
4675400,-0.03,-0.09,1.03,1.1,4.27,0.49,867.38,31.85
4675439,-0.02,-0.09,1.04,1.22,4.09,0.24,867.38,31.86
4675488,-0.04,-0.09,1.04,0.92,4.21,0.31,867.42,31.84
4675526,-0.05,-0.09,1.07,0.92,4.46,0.24,867.39,31.85
4675565,-0.04,-0.11,1.09,0.79,4.46,0.37,867.43,31.85
4675603,-0.04,-0.1,1.1,0.67,4.7,0.18,867.46,31.86
4675641,-0.05,-0.08,1.12,0.61,5.31,0.12,867.44,31.85
4675679,-0.02,-0.1,1.09,0.67,6.23,0.06,867.44,31.86
4675717,-0.02,-0.09,1.12,0.67,6.1,-0.12,867.44,31.85
4675755,-0.04,-0.1,1.09,0.92,6.23,0.06,867.44,31.86
4675793,-0.05,-0.09,1.06,0.67,5.98,0.0,867.44,31.84
4675831,-0.03,-0.08,1.09,0.73,5.19,0.06,867.45,31.85
4675907,-0.04,-0.1,1.11,0.79,4.27,0.0,867.45,31.82
4675945,-0.04,-0.1,1.1,0.85,5.0,0.12,867.5,31.84
4675983,-0.04,-0.08,1.08,1.1,4.7,0.0,867.45,31.83
4676147,-0.05,-0.09,1.0,1.1,4.27,0.49,867.51,31.78
4676186,-0.05,-0.08,1.04,0.98,3.48,0.37,867.5,31.8
4676224,-0.05,-0.09,1.04,1.22,4.03,0.61,867.5,31.8
4676262,-0.05,-0.09,1.06,1.16,3.54,0.79,867.5,31.81
4676300,-0.06,-0.09,1.04,1.22,4.15,0.85,867.51,31.82
4676338,-0.04,-0.09,1.04,1.28,4.03,0.79,867.44,31.82
4676388,-0.05,-0.08,1.02,1.16,4.09,0.92,867.48,31.8
4676426,-0.04,-0.09,1.03,1.1,3.66,1.28,867.5,31.82
4676464,-0.06,-0.09,1.01,1.22,4.15,1.16,867.55,31.83
4676502,-0.06,-0.08,1.01,1.22,3.91,1.34,867.58,31.84
4676540,-0.04,-0.08,1.03,1.16,3.6,1.4,867.55,31.84
4676578,-0.05,-0.09,1.03,1.22,3.91,1.59,867.52,31.84
4676617,-0.06,-0.09,1.03,0.92,3.97,1.53,867.51,31.83
4676655,-0.06,-0.08,1.05,0.73,3.54,1.71,867.52,31.85
4676693,-0.05,-0.09,1.05,0.67,3.42,1.77,867.56,31.85
4676731,-0.05,-0.08,1.05,0.61,3.42,1.83,867.47,31.84
4676781,-0.04,-0.08,1.07,0.55,3.66,1.83,867.53,31.82
4676819,-0.04,-0.08,1.06,0.67,3.6,2.08,867.55,31.85
4676857,-0.06,-0.08,1.07,0.55,3.91,1.83,867.54,31.84
4676895,-0.05,-0.08,1.1,0.67,3.91,2.08,867.57,31.84
4676933,-0.04,-0.08,1.09,0.73,3.97,1.95,867.57,31.85
4676971,-0.04,-0.09,1.06,0.92,3.97,2.14,867.6,31.85
4677009,-0.04,-0.08,1.06,1.04,4.58,2.14,867.58,31.84
4677048,-0.03,-0.08,1.04,1.22,4.82,2.01,867.64,31.84
4677086,-0.04,-0.09,1.03,1.22,4.94,1.95,867.59,31.84
4677124,-0.03,-0.09,1.03,1.28,5.37,1.95,867.59,31.84
4677174,-0.03,-0.08,1.04,1.28,5.25,2.14,867.62,31.84
4677212,-0.04,-0.09,1.04,1.22,5.37,2.08,867.63,31.83
4677250,-0.04,-0.08,1.05,0.92,5.92,2.08,867.59,31.85
4677288,-0.05,-0.08,1.08,1.28,5.86,2.01,867.63,31.84
4677326,-0.04,-0.08,1.05,0.98,6.04,1.95,867.68,31.85
4677364,-0.04,-0.07,1.07,1.34,6.41,1.89,867.63,31.85
4677403,-0.02,-0.08,1.07,1.28,6.9,1.83,867.59,31.85
4677441,-0.03,-0.08,1.09,1.28,6.16,1.89,867.64,31.85
4677479,-0.05,-0.08,1.12,1.4,5.98,2.08,867.6,31.85
4677529,-0.03,-0.09,1.13,1.53,5.98,2.01,867.61,31.84
4677567,-0.04,-0.08,1.14,1.53,5.74,2.26,867.59,31.84
4677605,-0.04,-0.08,1.11,1.53,5.19,2.08,867.62,31.85
4677643,-0.04,-0.08,1.09,1.77,5.43,2.08,867.63,31.85
4677681,-0.03,-0.08,1.03,1.89,5.31,2.2,867.63,31.85
4677720,-0.02,-0.07,1.03,1.83,4.82,2.14,867.58,31.84
4677758,-0.04,-0.08,0.99,1.95,5.0,2.01,867.61,31.86
4677796,-0.05,-0.08,1.0,1.95,4.52,2.08,867.58,31.84
4677834,-0.03,-0.08,1.02,1.83,4.39,1.89,867.63,31.86
4677872,-0.05,-0.09,1.01,1.77,3.66,2.08,867.58,31.85
4677922,-0.04,-0.08,1.02,1.46,3.85,2.38,867.64,31.84
4677960,-0.04,-0.08,1.0,1.46,3.36,2.26,867.57,31.83
4677998,-0.04,-0.08,1.05,1.4,3.05,2.38,867.55,31.82
4678036,-0.03,-0.08,1.05,1.16,3.11,2.32,867.63,31.84
4678075,-0.03,-0.07,1.08,1.22,3.17,2.38,867.61,31.84
4678113,-0.04,-0.08,1.09,1.53,3.66,2.38,867.56,31.83
4678151,-0.05,-0.08,1.08,1.71,3.78,2.44,867.65,31.85
4678189,-0.03,-0.08,1.1,1.95,3.91,2.38,867.59,31.83
4678227,-0.02,-0.09,1.09,2.01,4.27,2.32,867.64,31.84
4678265,-0.04,-0.08,1.07,2.26,3.85,2.32,867.63,31.84
4678315,-0.04,-0.08,1.02,2.08,4.03,2.38,867.68,31.82
4678353,-0.03,-0.08,1.0,2.14,3.72,2.32,867.63,31.82
4678391,-0.04,-0.08,0.98,2.08,3.85,2.26,867.62,31.81
4678429,-0.04,-0.09,0.98,2.08,2.93,2.32,867.65,31.82
4678467,-0.03,-0.08,1.0,2.2,3.36,2.38,867.65,31.81
4678505,-0.03,-0.09,0.97,2.14,3.23,2.32,867.63,31.82
4678544,-0.03,-0.08,0.99,2.14,2.81,2.32,867.67,31.84
4678582,-0.03,-0.08,0.98,2.26,3.36,2.26,867.63,31.83
4678620,-0.02,-0.08,0.96,2.14,3.42,2.38,867.63,31.83
4678670,-0.02,-0.08,0.96,2.01,3.17,2.32,867.64,31.83
4678708,-0.02,-0.08,0.92,1.89,2.87,2.26,867.61,31.81
4678746,-0.04,-0.08,0.96,1.77,2.93,2.08,867.58,31.82
4678784,-0.02,-0.08,0.94,1.83,3.54,2.08,867.6,31.82
4678822,-0.01,-0.09,0.91,1.77,3.54,1.95,867.59,31.82
4678860,-0.02,-0.09,0.88,1.77,3.97,2.14,867.59,31.82
4678899,-0.01,-0.09,0.85,1.77,4.09,1.89,867.62,31.84
4678937,-0.02,-0.08,0.82,1.95,3.66,1.89,867.64,31.84
4678975,-0.03,-0.09,0.78,1.95,3.66,2.01,867.62,31.83
4679013,-0.02,-0.09,0.75,1.83,3.42,1.71,867.65,31.83
4679089,-0.01,-0.08,0.78,1.71,2.38,1.59,867.55,31.8
4679127,-0.04,-0.09,0.79,1.53,2.93,1.46,867.6,31.83
4679165,-0.01,-0.09,0.88,1.34,3.3,1.46,867.58,31.81
4679254,-0.04,-0.09,0.99,1.22,2.69,1.4,867.71,31.79
4679293,-0.03,-0.09,0.99,1.46,2.81,1.28,867.63,31.81
4679331,-0.04,-0.09,0.98,1.71,2.99,1.16,867.68,31.82
4679369,-0.02,-0.09,0.97,1.71,3.05,1.16,867.69,31.82
4679407,-0.02,-0.08,0.99,1.83,3.11,0.85,867.65,31.82
4679445,-0.03,-0.08,0.95,1.65,3.72,1.04,867.68,31.82
4679483,-0.02,-0.09,1.0,1.89,3.85,0.79,867.68,31.83
4679533,-0.04,-0.08,1.02,2.2,3.3,0.98,867.68,31.82
4679571,-0.03,-0.09,0.99,2.44,3.6,0.98,867.63,31.81
4679610,-0.02,-0.09,0.96,2.44,3.42,0.79,867.68,31.81
4679648,-0.03,-0.07,0.97,2.62,3.36,0.73,867.67,31.83
4679686,-0.0,-0.08,0.95,2.44,3.48,1.1,867.62,31.83
4679724,-0.03,-0.08,0.96,2.32,3.23,0.79,867.6,31.82
4679762,-0.02,-0.08,0.95,2.44,3.48,0.79,867.65,31.84
4679801,-0.01,-0.08,0.99,2.32,2.75,0.67,867.7,31.85
4679839,-0.02,-0.09,0.97,2.32,2.93,0.67,867.7,31.84
4679889,-0.02,-0.07,0.99,1.89,2.69,0.61,867.65,31.82
4679927,-0.01,-0.09,0.98,2.14,3.72,0.49,867.66,31.82
4679965,-0.01,-0.09,0.98,1.95,2.81,0.55,867.63,31.83
4680003,-0.02,-0.08,0.99,1.89,2.99,0.61,867.62,31.83
4680041,-0.01,-0.09,0.94,1.89,2.93,0.43,867.7,31.84
4680079,-0.02,-0.08,0.97,1.71,1.95,0.31,867.68,31.83
4680117,-0.03,-0.09,0.94,1.77,2.2,0.24,867.64,31.83
4680155,-0.01,-0.09,0.93,1.89,1.89,0.18,867.65,31.82
4680194,-0.02,-0.08,0.95,1.83,2.38,0.12,867.61,31.82
4680232,-0.01,-0.09,0.94,1.83,1.65,0.06,867.65,31.82
4680282,-0.02,-0.09,0.93,1.77,1.95,0.0,867.59,31.82
4680320,-0.03,-0.08,0.94,2.08,2.32,0.06,867.63,31.82
4680358,-0.01,-0.09,0.93,1.89,2.87,-0.24,867.64,31.84
4680396,-0.03,-0.08,1.01,1.95,2.44,-0.18,867.66,31.82
4680434,-0.03,-0.08,0.99,2.08,2.93,-0.24,867.65,31.82
4680472,-0.03,-0.08,1.03,2.14,2.32,-0.24,867.66,31.83
4680510,-0.04,-0.08,1.03,2.38,3.54,-0.31,867.66,31.82
4680549,-0.02,-0.08,1.02,2.38,2.38,-0.31,867.66,31.82
4680587,-0.03,-0.07,1.04,2.56,2.32,-0.31,867.72,31.82
4680625,-0.04,-0.09,0.93,2.87,2.75,-0.24,867.69,31.84
4680675,-0.04,-0.08,0.97,3.05,2.87,-0.24,867.71,31.82
4680713,-0.03,-0.08,0.92,2.93,2.44,-0.24,867.69,31.83
4680751,-0.04,-0.08,0.97,2.69,2.08,-0.24,867.69,31.84
4680789,-0.03,-0.09,0.96,2.32,2.69,-0.24,867.71,31.83
4680828,-0.04,-0.08,1.0,2.08,2.32,-0.31,867.71,31.83
4680866,-0.03,-0.09,1.01,1.77,2.69,-0.18,867.67,31.84
4680904,-0.04,-0.08,1.04,1.89,1.95,-0.43,867.67,31.83
4680942,-0.04,-0.07,1.03,1.59,2.93,-0.37,867.71,31.84
4680980,-0.03,-0.08,1.06,1.46,2.26,-0.24,867.69,31.84
4681030,-0.04,-0.08,1.1,1.59,2.5,-0.24,867.68,31.82
4681068,-0.04,-0.08,1.12,1.65,2.81,-0.37,867.67,31.83
4681106,-0.03,-0.08,1.12,1.77,2.93,-0.43,867.68,31.83
4681144,-0.05,-0.08,1.11,2.14,2.81,-0.24,867.67,31.82
4681182,-0.05,-0.08,1.06,2.2,3.6,-0.31,867.67,31.84
4681221,-0.04,-0.07,1.03,2.2,4.03,-0.18,867.74,31.85
4681259,-0.05,-0.07,1.02,2.38,3.36,-0.24,867.67,31.83
4681297,-0.05,-0.07,1.01,2.44,3.85,-0.24,867.67,31.84
4681335,-0.05,-0.08,1.01,2.5,3.6,-0.18,867.64,31.84
4681385,-0.07,-0.08,0.97,2.62,3.54,0.0,867.69,31.82
4681423,-0.06,-0.09,0.95,2.5,3.91,0.0,867.72,31.84
4681461,-0.06,-0.08,0.95,2.62,3.11,-0.06,867.7,31.84
4681499,-0.08,-0.08,0.85,2.38,2.69,0.18,867.67,31.84
4681537,-0.07,-0.07,0.87,2.2,3.11,0.49,867.64,31.85
4681575,-0.05,-0.1,0.84,1.95,3.97,0.55,867.66,31.84
4681614,-0.06,-0.09,0.83,1.83,2.26,0.85,867.71,31.85
4681652,-0.05,-0.08,0.83,1.65,2.69,0.92,867.66,31.84
4681690,-0.04,-0.08,0.82,1.22,1.95,1.1,867.63,31.84
4681728,-0.05,-0.08,0.86,1.22,1.77,1.4,867.7,31.84
4681778,-0.07,-0.09,0.82,0.98,1.83,1.28,867.7,31.83
4681816,-0.06,-0.08,0.9,0.85,2.26,1.4,867.69,31.84
4681854,-0.05,-0.08,0.94,0.73,3.54,1.53,867.65,31.85
4681892,-0.05,-0.08,1.0,0.61,4.82,1.46,867.68,31.83
4681930,-0.05,-0.09,1.01,0.61,5.43,1.34,867.72,31.83
4681968,-0.06,-0.07,1.05,0.31,5.37,1.4,867.72,31.82
4682007,-0.04,-0.07,1.02,-0.18,7.26,1.46,867.8,31.83
4682045,-0.05,-0.07,1.06,-0.31,6.41,1.28,867.72,31.83
4682083,-0.04,-0.07,1.1,0.31,6.71,1.53,867.77,31.83
4682121,-0.02,-0.08,1.02,0.43,7.63,1.46,867.74,31.83
4682197,-0.04,-0.07,1.05,1.65,6.9,1.28,867.76,31.8
4682235,-0.03,-0.08,1.05,2.08,5.49,1.34,867.74,31.81
4682273,-0.02,-0.08,1.05,2.69,6.16,1.34,867.82,31.82
4682363,-0.02,-0.07,1.0,3.91,4.88,1.53,867.79,31.79
4682401,-0.04,-0.08,0.95,4.21,3.91,1.46,867.75,31.8
4682439,-0.04,-0.08,0.91,4.09,2.87,1.53,867.71,31.81
4682477,-0.03,-0.08,0.86,4.09,2.38,1.53,867.8,31.82
4682515,-0.02,-0.08,0.9,4.15,1.1,1.46,867.76,31.81
4682553,-0.03,-0.09,0.79,4.09,1.83,1.53,867.77,31.82
4682603,-0.04,-0.07,0.81,3.91,0.37,1.46,867.84,31.81
4682641,-0.03,-0.09,0.7,3.6,1.16,1.4,867.75,31.82
4682679,-0.05,-0.07,0.71,3.23,0.06,1.4,867.78,31.84
4682717,-0.04,-0.09,0.71,3.17,1.34,1.4,867.74,31.83
4682755,-0.03,-0.09,0.68,2.69,0.43,1.4,867.8,31.82
4682793,-0.06,-0.08,0.7,2.44,1.53,1.46,867.78,31.82
4682831,-0.01,-0.09,0.72,2.14,1.77,1.46,867.78,31.84
4682870,-0.03,-0.08,0.77,1.59,1.77,1.4,867.8,31.83
4682908,-0.05,-0.08,0.72,1.46,2.14,1.59,867.83,31.83
4682946,-0.05,-0.08,0.8,1.46,1.83,1.34,867.76,31.83
4682996,-0.03,-0.08,0.86,0.55,3.72,1.22,867.82,31.81
4683034,-0.04,-0.06,1.0,1.04,3.23,0.92,867.79,31.81
4683072,-0.04,-0.09,0.96,0.92,5.98,0.92,867.82,31.81
4683110,-0.02,-0.07,1.05,0.79,4.33,0.61,867.82,31.82
4683148,-0.04,-0.06,1.09,0.92,5.37,0.73,867.84,31.83
4683186,-0.04,-0.07,1.12,0.98,4.39,0.73,867.83,31.81
4683224,-0.05,-0.07,1.17,1.46,5.31,0.61,867.87,31.82
4683263,-0.04,-0.07,1.17,2.08,5.13,0.67,867.88,31.82
4683301,-0.03,-0.06,1.17,2.2,5.25,0.55,867.89,31.84
4683339,-0.04,-0.05,1.16,2.62,4.88,0.73,867.91,31.82
4683389,-0.02,-0.07,1.12,2.87,5.74,0.49,867.91,31.82
4683427,-0.03,-0.06,1.14,3.05,4.52,0.55,867.85,31.82
4683465,-0.04,-0.06,1.12,3.3,4.46,0.92,867.88,31.82
4683503,-0.04,-0.07,1.1,3.36,3.85,0.67,867.89,31.81
4683541,-0.04,-0.06,1.1,3.42,4.03,0.49,867.89,31.82
4683579,-0.03,-0.07,1.1,3.78,2.99,0.98,867.88,31.83
4683618,-0.03,-0.07,1.07,3.78,2.81,0.85,867.9,31.81
4683656,-0.04,-0.07,1.02,3.66,2.62,0.85,867.96,31.82
4683694,-0.04,-0.07,1.0,3.48,2.44,0.79,867.88,31.81
4683744,-0.04,-0.07,0.95,3.6,2.38,0.92,867.9,31.8
4683782,-0.05,-0.07,0.91,3.36,2.38,0.92,867.91,31.81
4683820,-0.05,-0.07,0.89,3.23,2.26,1.1,867.88,31.84
4683858,-0.04,-0.08,0.89,3.17,2.2,0.79,867.87,31.81
4683896,-0.05,-0.07,0.89,3.11,1.77,0.85,867.86,31.8
4683934,-0.05,-0.08,0.88,3.05,1.77,1.04,867.93,31.82
4683973,-0.05,-0.08,0.87,3.05,1.4,1.04,867.97,31.82
4684011,-0.05,-0.08,0.88,2.75,1.16,1.1,867.96,31.82
4684049,-0.05,-0.07,0.88,2.69,1.77,1.28,867.92,31.83
4684087,-0.05,-0.08,0.85,2.62,1.83,1.28,867.96,31.82
4684137,-0.04,-0.08,0.89,2.5,1.04,1.1,867.95,31.82
4684175,-0.05,-0.08,0.88,2.26,0.92,1.28,867.95,31.81
4684213,-0.05,-0.08,0.92,2.2,0.92,1.34,867.98,31.82
4684251,-0.05,-0.08,0.9,1.89,0.92,1.65,868.02,31.82
4684289,-0.05,-0.08,0.89,1.95,1.28,1.4,867.93,31.82
4684327,-0.05,-0.08,0.87,1.89,1.59,1.46,868.05,31.84
4684366,-0.04,-0.08,0.86,2.01,1.77,1.4,868.03,31.82
4684404,-0.04,-0.07,0.89,2.01,2.01,1.4,868.01,31.83
4684442,-0.05,-0.08,0.87,2.08,2.81,1.4,868.1,31.85
4684480,-0.05,-0.07,0.89,2.01,2.87,1.34,868.01,31.84
4684530,-0.05,-0.08,0.88,1.95,3.6,1.46,868.1,31.81
4684568,-0.05,-0.07,0.94,1.95,4.39,1.46,868.02,31.83
4684606,-0.04,-0.07,0.93,2.08,5.31,1.59,868.11,31.83
4684644,-0.04,-0.07,0.98,2.32,5.55,1.71,868.08,31.83
4684682,-0.06,-0.07,0.96,2.62,6.04,1.65,868.03,31.82
4684720,-0.04,-0.07,0.97,2.75,6.16,1.59,868.1,31.82
4684758,-0.03,-0.07,0.98,2.75,6.29,1.65,868.13,31.82
4684797,-0.04,-0.07,0.96,2.99,5.86,1.71,868.13,31.82
4684835,-0.05,-0.07,0.95,2.99,5.49,1.71,868.09,31.82
4684885,-0.04,-0.07,0.92,3.17,5.74,1.83,868.08,31.8
4684923,-0.04,-0.07,0.93,3.3,5.13,1.71,868.11,31.8
4684961,-0.05,-0.08,0.89,3.17,5.37,1.89,868.1,31.82
4684999,-0.04,-0.07,0.91,3.05,5.31,1.83,868.11,31.81
4685037,-0.03,-0.07,0.92,3.05,5.49,1.83,868.1,31.81
4685075,-0.05,-0.07,0.93,2.93,5.68,1.83,868.13,31.82
4685113,-0.05,-0.07,0.96,2.93,5.74,1.77,868.1,31.81
4685151,-0.04,-0.07,0.99,2.87,6.16,1.71,868.16,31.82
4685190,-0.04,-0.07,1.0,2.87,6.65,1.95,868.16,31.81
4685228,-0.05,-0.06,1.03,2.81,6.29,2.01,868.12,31.82
4685303,-0.04,-0.07,1.02,2.81,5.86,2.2,868.15,31.8
4685342,-0.05,-0.06,1.02,2.81,5.25,2.2,868.23,31.82
4685380,-0.04,-0.07,1.01,2.81,4.88,2.38,868.28,31.82
4685469,-0.05,-0.07,0.99,3.23,4.27,2.38,868.25,31.78
4685507,-0.04,-0.07,0.96,3.23,4.52,2.62,868.27,31.79
4685545,-0.05,-0.07,0.97,3.23,4.33,2.62,868.23,31.8
4685584,-0.05,-0.08,0.91,3.11,3.91,2.44,868.23,31.8
4685622,-0.04,-0.06,0.95,2.99,3.36,2.62,868.21,31.82
4685660,-0.03,-0.08,0.92,3.05,4.33,2.56,868.27,31.8
4685698,-0.03,-0.07,0.95,2.69,3.36,2.62,868.3,31.82
4685748,-0.03,-0.08,0.94,2.75,3.17,2.69,868.29,31.81
4685786,-0.03,-0.08,0.96,2.81,2.5,2.75,868.31,31.82
4685824,-0.04,-0.07,0.96,2.75,2.69,2.62,868.35,31.83
4685862,-0.02,-0.08,0.97,2.62,2.26,2.62,868.32,31.82
4685900,-0.03,-0.07,0.97,2.75,2.44,2.62,868.27,31.82
4685939,-0.04,-0.08,0.97,2.5,1.95,2.62,868.32,31.84
4685977,-0.02,-0.07,1.0,2.44,1.65,2.56,868.35,31.83
4686015,-0.03,-0.08,0.99,2.44,1.28,2.56,868.34,31.82
4686053,-0.03,-0.07,0.99,2.44,0.85,2.56,868.36,31.83
4686103,-0.03,-0.07,1.01,2.2,0.79,2.26,868.39,31.82
4686141,-0.02,-0.08,1.0,2.26,0.79,2.5,868.38,31.82
4686179,-0.02,-0.08,0.99,2.38,0.85,2.44,868.45,31.82
4686217,-0.04,-0.07,0.99,2.2,1.34,2.2,868.36,31.82
4686255,-0.03,-0.07,1.0,2.32,1.1,2.32,868.37,31.84
4686293,-0.03,-0.07,0.99,2.14,1.83,2.14,868.38,31.83
4686331,-0.03,-0.07,0.99,2.14,2.2,1.95,868.39,31.84
4686370,-0.02,-0.07,0.99,2.38,2.69,2.01,868.43,31.84
4686408,-0.02,-0.07,0.99,2.26,2.75,1.89,868.41,31.84
4686446,-0.03,-0.07,0.97,2.32,3.48,1.71,868.42,31.84
4686496,-0.02,-0.07,1.0,2.01,4.15,1.59,868.52,31.82
4686534,-0.03,-0.07,1.0,2.26,4.21,1.59,868.44,31.83
4686572,-0.03,-0.07,0.99,2.26,4.7,1.28,868.45,31.84
4686610,-0.03,-0.08,0.97,2.2,4.94,1.4,868.45,31.84
4686648,-0.03,-0.07,1.0,2.26,4.76,1.46,868.51,31.84
4686686,-0.02,-0.08,0.97,2.5,5.0,1.4,868.54,31.85
4686724,-0.04,-0.07,0.98,2.38,4.64,1.22,868.53,31.84
4686763,-0.02,-0.07,0.98,2.56,4.76,1.28,868.47,31.84
4686801,-0.02,-0.08,0.96,2.56,4.76,1.22,868.55,31.84
4686839,-0.03,-0.07,0.96,2.5,4.58,1.1,868.53,31.84
4686889,-0.03,-0.07,0.94,2.75,4.58,1.22,868.52,31.83
4686927,-0.03,-0.07,0.97,2.62,4.33,1.16,868.52,31.83
4686965,-0.03,-0.07,0.93,2.69,4.21,1.1,868.57,31.84
4687003,-0.03,-0.07,0.95,2.5,3.97,1.16,868.59,31.84
4687041,-0.03,-0.08,0.94,2.56,4.09,1.16,868.62,31.84
4687079,-0.03,-0.08,0.93,2.44,4.33,1.1,868.55,31.84
4687117,-0.03,-0.07,0.92,2.56,3.91,0.92,868.59,31.84
4687156,-0.03,-0.07,0.93,2.44,4.15,1.1,868.62,31.85
4687194,-0.03,-0.08,0.9,2.56,4.15,0.98,868.64,31.84
4687243,-0.03,-0.07,0.91,2.44,4.15,1.1,868.56,31.83
4687282,-0.03,-0.07,0.94,2.56,3.36,0.98,868.63,31.83
4687320,-0.02,-0.07,0.92,2.32,3.42,0.98,868.61,31.83
4687358,-0.03,-0.07,0.99,2.32,2.93,0.98,868.59,31.84
4687396,-0.03,-0.08,0.99,2.26,3.23,1.16,868.65,31.82
4687434,-0.03,-0.07,1.02,2.32,2.87,0.85,868.65,31.83
4687472,-0.03,-0.07,1.03,2.62,3.85,0.98,868.65,31.82
4687510,-0.03,-0.08,0.99,2.62,3.66,0.79,868.67,31.83
4687549,-0.02,-0.06,1.01,2.62,2.69,1.04,868.71,31.83
4687587,-0.03,-0.07,0.95,2.93,3.05,0.92,868.7,31.83
4687637,-0.03,-0.07,0.96,2.87,2.62,0.98,868.72,31.82
4687675,-0.03,-0.09,0.93,3.05,3.11,0.98,868.75,31.8
4687713,-0.03,-0.07,0.92,2.81,2.2,0.85,868.76,31.83
4687751,-0.04,-0.07,0.93,2.93,2.62,0.85,868.7,31.82
4687789,-0.03,-0.08,0.91,2.81,2.56,0.92,868.73,31.83
4687827,-0.04,-0.08,0.91,2.99,2.5,0.79,868.68,31.83
4687866,-0.03,-0.08,0.88,2.56,2.44,0.79,868.72,31.85
4687904,-0.04,-0.07,0.9,2.44,2.26,0.73,868.7,31.84
4687942,-0.03,-0.08,0.88,2.44,2.32,0.73,868.72,31.84
4687980,-0.03,-0.08,0.9,2.38,2.08,0.79,868.8,31.84
4688030,-0.04,-0.08,0.88,2.38,2.56,0.73,868.73,31.82
4688068,-0.04,-0.07,0.91,2.14,2.38,0.55,868.82,31.84
4688106,-0.05,-0.07,0.93,2.01,2.38,0.55,868.8,31.82
4688144,-0.04,-0.08,0.91,2.08,2.56,0.67,868.8,31.83
4688182,-0.03,-0.08,0.93,1.83,3.11,0.61,868.78,31.82
4688220,-0.03,-0.07,0.95,1.83,2.87,0.61,868.81,31.83
4688258,-0.04,-0.07,0.94,2.01,3.05,0.67,868.87,31.83
4688297,-0.04,-0.07,0.96,2.08,2.93,0.73,868.88,31.82
4688335,-0.03,-0.07,0.96,1.89,2.81,0.73,868.88,31.82
4688410,-0.03,-0.07,0.98,2.08,2.81,0.67,868.9,31.81
4688449,-0.03,-0.07,0.98,2.08,2.93,0.67,868.88,31.81
4688487,-0.03,-0.07,0.99,2.08,2.93,0.67,868.89,31.81
4688576,-0.04,-0.07,0.99,2.14,2.87,0.67,868.97,31.77
4688614,-0.04,-0.07,1.0,2.14,2.75,0.85,868.95,31.79
4688652,-0.04,-0.07,0.99,2.08,2.99,0.79,868.96,31.81
4688691,-0.03,-0.08,1.01,2.01,2.44,0.67,868.97,31.81
4688729,-0.04,-0.07,1.0,2.01,2.87,0.79,868.94,31.8
4688767,-0.04,-0.07,1.02,1.89,2.87,0.79,868.99,31.82
4688805,-0.04,-0.08,1.01,1.89,3.54,0.85,869.03,31.82
4688855,-0.03,-0.07,1.01,2.01,3.85,0.55,869.0,31.81
4688893,-0.03,-0.07,1.01,2.14,4.09,0.67,869.05,31.8
4688931,-0.03,-0.07,1.0,1.89,4.27,0.61,869.08,31.81
4688969,-0.04,-0.07,0.99,2.2,4.33,0.55,869.02,31.82
4689007,-0.04,-0.07,0.97,2.2,4.03,0.61,869.05,31.8
4689045,-0.03,-0.07,0.97,2.08,3.72,0.55,869.04,31.81
4689084,-0.02,-0.08,0.95,2.01,3.48,0.61,869.04,31.8
4689122,-0.03,-0.07,0.95,1.89,2.99,0.49,869.06,31.8
4689160,-0.03,-0.07,0.95,1.83,2.99,0.67,869.1,31.8
4689198,-0.02,-0.07,0.94,1.89,2.99,0.61,869.1,31.82
4689248,-0.04,-0.07,0.96,1.83,2.14,0.61,869.12,31.78
4689286,-0.04,-0.07,0.98,1.65,1.89,0.61,869.17,31.81
4689324,-0.02,-0.08,0.97,1.83,1.71,0.43,869.17,31.81
4689362,-0.03,-0.07,1.01,1.77,1.71,0.43,869.18,31.82
4689400,-0.03,-0.08,0.96,1.71,1.95,0.55,869.16,31.82
4689438,-0.04,-0.07,0.99,1.59,1.95,0.37,869.15,31.82
4689476,-0.03,-0.08,0.94,1.53,2.56,0.37,869.21,31.8
4689515,-0.03,-0.07,0.91,1.53,2.62,0.37,869.21,31.81
4689553,-0.04,-0.08,0.84,1.4,3.6,0.24,869.26,31.82
4689602,-0.04,-0.08,0.87,1.4,3.3,0.24,869.2,31.82
4689641,-0.04,-0.08,0.83,1.1,3.91,0.24,869.15,31.82
4689679,-0.04,-0.07,0.92,1.04,2.87,0.06,869.22,31.81
4689717,-0.03,-0.08,0.89,1.22,4.7,0.12,869.27,31.83
4689755,-0.04,-0.08,0.91,0.98,3.23,0.0,869.26,31.81
4689793,-0.02,-0.07,0.98,0.98,3.85,0.06,869.26,31.83
4689831,-0.03,-0.08,0.94,0.85,3.54,0.06,869.29,31.81
4689869,-0.04,-0.06,0.99,0.73,3.3,0.18,869.29,31.81
4689908,-0.04,-0.07,1.0,0.73,2.75,0.06,869.31,31.83
4689946,-0.05,-0.07,1.03,0.61,1.71,0.18,869.31,31.82
4689996,-0.02,-0.07,1.1,0.43,0.98,0.18,869.33,31.82
4690034,-0.04,-0.07,1.1,0.31,0.49,0.24,869.3,31.83
4690072,-0.03,-0.06,1.16,0.55,-0.18,0.24,869.31,31.82
4690110,-0.03,-0.07,1.12,0.55,-0.06,0.31,869.36,31.82
4690148,-0.03,-0.06,1.15,0.85,-0.37,0.12,869.38,31.82
4690186,-0.03,-0.06,1.15,1.04,0.06,0.06,869.36,31.82
4690224,-0.06,-0.06,1.11,1.22,0.61,0.06,869.42,31.82
4690262,-0.04,-0.07,1.15,1.59,0.24,0.18,869.43,31.82
4690301,-0.03,-0.07,1.13,1.89,1.04,-0.06,869.46,31.84
4690339,-0.05,-0.06,1.16,1.95,0.85,-0.06,869.42,31.82
4690388,-0.03,-0.08,1.15,2.26,2.01,0.12,869.42,31.83
4690427,-0.05,-0.07,1.14,2.38,2.44,-0.18,869.45,31.83
4690465,-0.05,-0.06,1.07,2.5,3.17,0.0,869.47,31.83
4690503,-0.04,-0.06,1.07,2.56,3.66,0.12,869.46,31.83
4690541,-0.03,-0.07,1.05,2.62,3.85,-0.12,869.46,31.83
4690579,-0.04,-0.07,1.05,2.56,4.64,-0.06,869.46,31.84
4690617,-0.04,-0.07,1.04,2.81,5.68,0.12,869.45,31.82
4690655,-0.05,-0.08,1.02,2.75,6.16,0.0,869.5,31.82
4690693,-0.05,-0.07,1.04,2.87,6.77,0.06,869.51,31.83
4690743,-0.04,-0.07,1.0,3.11,7.63,0.18,869.5,31.82
4690781,-0.03,-0.07,1.01,3.17,7.57,0.31,869.55,31.83
4690819,-0.03,-0.07,1.0,2.99,7.32,0.31,869.51,31.83
4690857,-0.05,-0.07,1.01,2.75,6.71,0.43,869.59,31.83
4690896,-0.05,-0.08,0.97,2.93,7.57,0.43,869.5,31.83
4690934,-0.05,-0.07,1.0,2.62,7.02,0.49,869.51,31.83
4690972,-0.05,-0.07,1.0,2.56,6.35,0.49,869.6,31.84
4691010,-0.06,-0.07,0.95,2.44,6.1,0.37,869.57,31.83
4691048,-0.05,-0.07,0.99,2.5,5.86,0.43,869.61,31.84
4691086,-0.03,-0.08,0.92,2.2,5.92,0.61,869.57,31.83
4691136,-0.06,-0.07,0.96,2.32,5.49,0.85,869.6,31.82
4691174,-0.06,-0.08,0.93,2.32,6.41,0.67,869.59,31.83
4691212,-0.06,-0.08,0.96,2.14,5.68,1.04,869.6,31.84
4691250,-0.06,-0.08,0.95,1.83,5.55,1.04,869.67,31.85
4691288,-0.06,-0.09,0.91,1.65,6.23,0.92,869.61,31.83
4691327,-0.04,-0.07,0.96,1.59,5.86,1.1,869.61,31.84
4691365,-0.05,-0.08,0.95,1.4,5.13,1.4,869.6,31.84
4691403,-0.07,-0.07,0.95,1.4,5.19,1.53,869.61,31.83
4691441,-0.05,-0.08,0.99,1.22,5.55,1.53,869.61,31.83
4691517,-0.04,-0.07,0.99,1.34,4.46,1.53,869.68,31.8
4691555,-0.04,-0.07,0.98,1.34,4.27,1.71,869.68,31.82
4691593,-0.05,-0.08,0.97,1.22,4.64,1.59,869.69,31.82
4691682,-0.05,-0.08,0.94,1.22,3.48,1.95,869.7,31.78
4691720,-0.04,-0.07,0.93,0.61,3.23,1.77,869.68,31.79
4691759,-0.05,-0.07,0.97,0.55,3.6,1.95,869.73,31.8
4691797,-0.05,-0.08,0.94,0.79,2.93,2.14,869.71,31.81
4691835,-0.05,-0.08,0.96,0.55,3.23,2.08,869.74,31.81
4691873,-0.06,-0.07,0.97,0.61,4.27,2.08,869.68,31.8
4691911,-0.05,-0.08,1.0,0.67,4.52,2.08,869.73,31.83
4691961,-0.06,-0.07,1.01,0.55,4.09,1.95,869.77,31.8
4691999,-0.07,-0.07,1.01,0.61,4.46,2.01,869.76,31.8
4692037,-0.05,-0.07,1.02,0.61,4.64,2.26,869.74,31.81
4692075,-0.06,-0.07,1.04,0.67,4.82,2.2,869.76,31.81
4692113,-0.06,-0.08,1.02,0.67,4.03,2.26,869.78,31.82
4692151,-0.08,-0.07,1.05,0.73,4.21,2.38,869.75,31.82
4692190,-0.06,-0.08,1.05,0.55,4.58,2.38,869.78,31.83
4692228,-0.05,-0.07,1.08,0.55,3.85,2.5,869.8,31.83
4692266,-0.07,-0.07,1.06,0.61,3.85,2.75,869.82,31.83
4692304,-0.06,-0.08,1.07,0.85,4.15,2.81,869.87,31.83
4692354,-0.06,-0.07,1.08,0.79,3.66,3.05,869.87,31.83
4692392,-0.05,-0.07,1.05,0.85,3.3,3.05,869.84,31.83
4692430,-0.05,-0.07,1.06,1.04,3.3,2.93,869.85,31.83
4692468,-0.04,-0.08,1.06,0.73,3.78,3.23,869.9,31.83
4692507,-0.04,-0.08,1.06,0.73,3.3,3.17,869.88,31.83
4692545,-0.05,-0.07,1.08,1.1,3.36,3.11,869.85,31.82
4692583,-0.05,-0.07,1.06,1.16,3.42,3.23,869.95,31.82
4692621,-0.05,-0.07,1.08,1.28,2.87,3.23,869.87,31.83
4692659,-0.04,-0.08,1.05,1.34,2.75,3.42,869.93,31.82
4692709,-0.04,-0.08,1.05,1.34,2.32,3.36,870.01,31.84
4692747,-0.04,-0.08,1.04,1.34,2.62,3.48,869.93,31.82
4692785,-0.04,-0.08,1.03,1.1,2.14,3.48,869.93,31.83
4692824,-0.04,-0.08,1.03,1.22,2.01,3.48,870.03,31.83
4692862,-0.03,-0.08,1.01,1.1,2.14,3.3,869.98,31.83
4692900,-0.03,-0.08,1.02,1.16,1.83,3.23,869.98,31.82
4692938,-0.02,-0.08,1.01,0.85,2.2,3.23,870.01,31.83
4692976,-0.04,-0.08,1.01,1.1,1.95,3.05,869.98,31.83
4693014,-0.04,-0.07,1.04,0.98,2.01,3.05,869.99,31.84
4693052,-0.04,-0.08,1.01,1.04,2.87,3.05,870.03,31.83
4693102,-0.02,-0.08,1.02,1.16,2.26,2.75,870.04,31.83
4693140,-0.02,-0.08,1.0,1.4,2.87,2.69,870.02,31.83
4693178,-0.04,-0.08,0.97,1.53,3.17,2.75,870.0,31.83
4693216,-0.03,-0.08,0.97,1.77,4.64,2.44,870.05,31.84
4693255,-0.02,-0.07,0.96,1.83,4.33,2.56,870.06,31.84
4693293,-0.03,-0.09,0.98,1.83,4.76,2.44,870.05,31.82
4693331,-0.04,-0.09,0.93,1.95,5.43,2.38,870.03,31.83
4693369,-0.02,-0.08,0.97,1.89,5.98,2.26,870.09,31.83
4693407,-0.0,-0.08,0.97,1.77,5.68,2.2,870.08,31.83
4693445,-0.03,-0.08,0.98,1.77,5.8,2.2,870.03,31.82
4693495,-0.03,-0.09,1.0,1.83,6.77,2.14,870.04,31.82
4693533,-0.01,-0.09,0.99,1.65,7.26,1.83,870.1,31.83
4693571,-0.02,-0.07,1.0,2.01,7.57,1.95,870.1,31.82
4693609,-0.02,-0.08,0.94,1.77,7.81,1.71,870.12,31.82
4693648,-0.02,-0.08,0.96,1.71,7.93,1.65,870.17,31.83
4693686,-0.02,-0.08,0.95,1.53,8.36,1.46,870.15,31.84
4693724,-0.02,-0.08,0.99,1.71,7.39,1.59,870.14,31.82
4693762,-0.02,-0.08,0.98,1.59,7.14,1.65,870.16,31.82
4693800,-0.01,-0.08,1.01,1.77,6.53,1.4,870.17,31.82
4693850,-0.0,-0.08,1.02,1.59,5.62,1.4,870.14,31.8
4693888,-0.02,-0.08,1.01,1.59,4.88,1.34,870.19,31.81
4693926,-0.02,-0.07,1.01,1.77,4.88,1.28,870.22,31.81
4693965,-0.02,-0.08,0.99,1.77,4.33,1.22,870.15,31.82
4694003,-0.03,-0.08,0.95,1.71,4.52,0.92,870.24,31.82
4694041,-0.03,-0.08,0.94,1.77,4.33,0.92,870.17,31.81
4694079,-0.03,-0.08,0.93,1.77,5.07,0.67,870.22,31.8
4694117,-0.02,-0.08,0.93,1.65,5.31,0.73,870.23,31.82
4694155,-0.02,-0.08,0.94,1.65,5.62,0.55,870.2,31.81
4694193,-0.03,-0.08,0.91,1.83,5.86,0.37,870.23,31.82
4694243,-0.04,-0.07,0.94,1.77,6.1,0.31,870.19,31.81
4694281,-0.03,-0.08,0.9,1.89,5.86,0.31,870.25,31.81
4694319,-0.02,-0.08,0.91,1.59,5.55,0.24,870.26,31.82
4694358,-0.03,-0.08,0.89,1.89,6.53,0.24,870.23,31.8
4694396,-0.02,-0.08,0.89,1.89,5.86,0.0,870.27,31.82
4694434,-0.03,-0.08,0.88,2.08,5.19,0.06,870.25,31.81
4694472,-0.03,-0.08,0.85,1.89,5.13,-0.12,870.3,31.82
4694510,-0.04,-0.08,0.85,1.95,5.31,-0.18,870.32,31.84
4694548,-0.03,-0.08,0.84,2.01,4.76,-0.18,870.35,31.83
4694586,-0.02,-0.07,0.84,2.14,3.91,-0.18,870.32,31.82
4694662,-0.03,-0.08,0.83,2.32,3.91,0.0,870.37,31.8
4694700,-0.03,-0.07,0.85,2.26,3.42,-0.12,870.32,31.81
4694738,-0.03,-0.08,0.85,2.26,2.99,-0.06,870.35,31.82
4694828,-0.03,-0.08,0.86,2.87,3.17,-0.18,870.37,31.77
4694866,-0.02,-0.08,0.86,2.87,3.3,-0.12,870.34,31.79
4694904,-0.02,-0.08,0.85,2.81,2.93,-0.31,870.4,31.79
4694942,-0.04,-0.08,0.86,2.69,3.3,-0.31,870.41,31.8
4694980,-0.02,-0.08,0.9,2.75,3.6,-0.43,870.41,31.8
4695018,-0.03,-0.09,0.91,3.05,3.36,-0.49,870.38,31.8
4695068,-0.05,-0.08,0.9,3.11,3.17,-0.43,870.4,31.78
4695106,-0.04,-0.07,0.89,3.05,3.85,-0.61,870.37,31.79
4695145,-0.04,-0.08,0.88,3.05,3.85,-0.49,870.41,31.81
4695183,-0.04,-0.08,0.88,3.17,3.36,-0.49,870.5,31.81
4695221,-0.04,-0.08,0.85,3.17,3.17,-0.55,870.5,31.81
4695259,-0.05,-0.08,0.85,3.36,3.11,-0.49,870.5,31.81
4695297,-0.04,-0.08,0.81,3.3,3.23,-0.43,870.46,31.81
4695335,-0.05,-0.07,0.82,3.42,2.38,-0.31,870.51,31.81
4695373,-0.05,-0.08,0.82,3.11,3.11,-0.24,870.46,31.8
4695412,-0.05,-0.08,0.83,3.17,3.23,-0.31,870.46,31.8
4695462,-0.03,-0.08,0.82,2.87,3.42,-0.31,870.56,31.79
4695500,-0.05,-0.07,0.85,2.87,3.17,-0.31,870.54,31.8
4695538,-0.06,-0.08,0.81,2.81,3.3,-0.12,870.56,31.79
4695576,-0.04,-0.07,0.85,2.62,2.38,-0.06,870.5,31.81
4695614,-0.05,-0.08,0.84,2.87,2.5,0.12,870.59,31.8
4695652,-0.07,-0.08,0.83,2.69,2.5,0.0,870.58,31.8
4695690,-0.04,-0.08,0.91,2.5,2.81,0.06,870.61,31.8
4695728,-0.03,-0.08,0.89,2.26,2.75,0.24,870.57,31.82
4695766,-0.04,-0.08,0.93,2.2,2.62,0.37,870.6,31.81
4695816,-0.06,-0.08,0.89,2.2,2.44,0.43,870.64,31.8
4695854,-0.04,-0.07,0.91,2.08,2.01,0.61,870.64,31.8
4695892,-0.04,-0.07,0.89,1.95,1.65,0.61,870.68,31.82
4695931,-0.05,-0.08,0.93,1.95,1.53,0.79,870.64,31.8
4695969,-0.02,-0.08,0.92,1.89,1.71,0.73,870.74,31.81
4696007,-0.03,-0.07,0.93,1.71,1.59,0.67,870.73,31.82
4696045,-0.04,-0.08,0.9,1.95,1.77,0.79,870.78,31.8
4696083,-0.04,-0.08,0.9,1.71,1.1,0.79,870.78,31.82
4696121,-0.05,-0.08,0.9,1.65,1.65,0.79,870.79,31.82
4696159,-0.04,-0.09,0.89,1.65,0.98,0.73,870.77,31.81
4696209,-0.04,-0.08,0.91,1.46,1.71,0.67,870.85,31.81
4696247,-0.04,-0.09,0.87,1.77,1.89,0.92,870.86,31.82
4696285,-0.03,-0.08,0.91,1.71,2.14,0.55,870.87,31.82
4696323,-0.05,-0.09,0.84,1.89,2.44,0.43,870.86,31.82
4696361,-0.03,-0.08,0.84,1.83,3.3,0.55,870.88,31.81
4696400,-0.03,-0.07,0.88,1.83,3.78,0.37,870.87,31.81
4696438,-0.05,-0.08,0.88,1.46,3.72,0.49,870.9,31.83
4696476,-0.04,-0.07,0.93,1.53,3.66,0.43,870.92,31.83
4696514,-0.03,-0.08,0.96,1.4,4.64,0.37,870.93,31.83
4696552,-0.04,-0.08,0.97,1.46,4.7,0.37,870.89,31.83
4696602,-0.04,-0.07,1.0,1.89,5.31,0.24,871.05,31.82
4696640,-0.04,-0.08,0.93,2.14,5.0,0.37,871.03,31.83
4696678,-0.02,-0.07,0.99,2.44,4.76,0.24,871.05,31.82
4696716,-0.04,-0.07,0.98,2.87,4.7,0.31,871.07,31.82
4696755,-0.04,-0.07,0.98,3.11,4.39,0.37,871.07,31.84
4696793,-0.05,-0.07,0.99,3.42,4.15,0.24,871.08,31.84
4696831,-0.05,-0.07,0.97,3.54,4.58,0.31,871.09,31.84
4696869,-0.05,-0.07,0.96,3.66,4.64,0.43,871.09,31.85
4696907,-0.06,-0.08,0.94,3.85,5.07,0.49,871.08,31.85
4696957,-0.06,-0.06,0.94,3.91,5.92,0.31,871.15,31.82
4696995,-0.06,-0.07,0.94,4.03,5.8,0.49,871.2,31.83
4697033,-0.05,-0.07,0.95,3.66,7.14,0.37,871.18,31.82
4697071,-0.06,-0.07,0.94,3.66,7.81,0.55,871.18,31.81
4697109,-0.06,-0.06,0.98,3.6,7.87,0.43,871.13,31.81
4697147,-0.05,-0.07,0.94,3.54,8.61,0.61,871.21,31.82
4697186,-0.06,-0.06,0.97,3.48,8.18,0.79,871.22,31.82
4697224,-0.05,-0.07,0.98,3.54,9.09,0.85,871.21,31.82
4697262,-0.04,-0.08,0.94,3.48,8.85,0.85,871.26,31.81
4697300,-0.06,-0.06,0.95,3.78,8.54,0.73,871.25,31.8
4697350,-0.05,-0.07,0.92,3.85,8.36,1.1,871.3,31.8
4697388,-0.05,-0.06,0.95,4.09,7.87,1.1,871.33,31.82
4697426,-0.04,-0.07,0.93,3.78,7.87,1.16,871.32,31.8
4697464,-0.05,-0.08,0.94,3.66,7.45,1.4,871.32,31.8
4697502,-0.05,-0.07,0.95,3.48,6.9,1.28,871.45,31.8
4697541,-0.04,-0.06,0.97,3.42,6.53,1.34,871.43,31.82
4697579,-0.04,-0.07,0.96,3.23,6.35,1.28,871.42,31.81
4697617,-0.06,-0.07,1.0,3.23,5.62,1.34,871.4,31.8
4697655,-0.04,-0.08,1.0,2.99,5.37,1.59,871.42,31.8
4697693,-0.03,-0.08,1.07,2.75,4.21,1.65,871.47,31.81
4697770,-0.05,-0.06,1.08,2.56,2.81,1.46,871.4,31.75
4697809,-0.01,-0.06,1.13,2.26,2.2,1.4,871.41,31.78
4697847,-0.0,-0.06,1.15,1.95,1.71,1.4,871.52,31.8
4697936,-0.04,-0.07,1.14,1.83,-0.24,1.53,871.48,31.75
4697974,-0.04,-0.04,1.18,1.71,-0.85,1.34,871.58,31.77
4698013,-0.02,-0.06,1.11,1.83,-1.4,1.4,871.59,31.77
4698051,-0.05,-0.06,1.07,1.83,-1.46,1.28,871.62,31.77
4698089,-0.03,-0.06,1.04,1.95,-0.85,1.22,871.63,31.78
4698127,-0.03,-0.07,1.01,2.14,-0.85,0.98,871.6,31.78
4698177,-0.06,-0.07,0.97,2.01,-0.37,0.98,871.69,31.78
4698215,-0.03,-0.07,0.98,1.83,0.24,0.92,871.65,31.79
4698253,-0.03,-0.06,0.98,1.71,0.92,0.55,871.69,31.8
4698291,-0.04,-0.07,0.93,1.77,2.14,0.37,871.66,31.78
4698329,-0.04,-0.06,0.97,1.53,1.34,0.37,871.73,31.78
4698367,-0.02,-0.07,0.98,1.34,2.32,0.31,871.71,31.79
4698406,-0.03,-0.07,0.97,1.22,2.26,0.31,871.78,31.8
4698444,-0.04,-0.06,1.0,1.4,2.75,0.49,871.8,31.8
4698482,-0.04,-0.08,0.95,1.28,2.56,0.31,871.86,31.8
4698520,-0.04,-0.06,0.97,1.22,2.5,0.24,871.84,31.8
4698570,-0.02,-0.07,0.94,1.53,3.11,0.12,871.82,31.8
4698608,-0.05,-0.07,0.96,1.53,3.36,0.31,871.85,31.8
4698646,-0.05,-0.07,0.96,1.65,3.85,0.12,871.92,31.81
4698684,-0.04,-0.07,0.96,1.83,3.78,0.06,871.85,31.81
4698722,-0.05,-0.06,1.0,1.83,3.42,0.12,871.93,31.81
4698760,-0.04,-0.07,1.02,1.89,3.23,0.18,871.91,31.81
4698798,-0.04,-0.07,1.04,2.08,2.62,0.24,871.93,31.81
4698837,-0.05,-0.06,1.05,2.14,3.48,0.24,871.94,31.81
4698875,-0.04,-0.06,1.03,2.32,3.66,0.31,871.9,31.8
4698924,-0.06,-0.06,1.06,2.2,3.97,0.43,871.97,31.8
4698963,-0.06,-0.06,1.06,2.14,4.03,0.49,871.99,31.79
4699001,-0.05,-0.06,1.09,2.44,3.78,0.55,872.0,31.8
4699039,-0.05,-0.07,1.05,2.5,3.78,0.55,872.06,31.8
4699077,-0.04,-0.06,1.07,2.5,3.3,0.49,872.03,31.82
4699115,-0.04,-0.06,1.05,2.56,3.23,0.55,872.05,31.82
4699153,-0.05,-0.06,1.0,2.38,2.62,0.61,871.99,31.81
4699191,-0.06,-0.06,1.05,2.5,2.08,0.67,872.11,31.81
4699230,-0.03,-0.08,1.03,2.56,2.38,0.73,872.1,31.82
4699268,-0.05,-0.06,1.08,2.44,1.53,0.73,872.1,31.81
4699317,-0.04,-0.06,1.06,2.5,2.2,0.79,872.13,31.8
4699356,-0.05,-0.07,1.07,2.56,1.53,1.04,872.14,31.81
4699394,-0.04,-0.09,1.05,2.44,0.92,0.98,872.14,31.82
4699432,-0.04,-0.07,1.0,2.38,1.04,1.1,872.17,31.83
4699470,-0.05,-0.07,0.97,2.2,0.61,1.16,872.2,31.82
4699508,-0.04,-0.06,0.98,2.14,0.06,1.28,872.24,31.84
4699546,-0.04,-0.07,0.98,1.95,-0.67,1.34,872.24,31.83
4699585,-0.03,-0.08,0.96,2.01,-0.98,1.22,872.23,31.83
4699623,-0.05,-0.08,0.97,2.2,-0.98,1.46,872.27,31.83
4699661,-0.05,-0.08,0.94,2.32,-1.16,1.53,872.29,31.84
4699711,-0.05,-0.07,0.91,2.44,-1.22,1.53,872.2,31.81
4699749,-0.05,-0.08,0.87,2.5,-1.1,1.53,872.35,31.82
4699787,-0.04,-0.08,0.87,2.56,-0.55,1.59,872.27,31.83
4699825,-0.06,-0.08,0.86,2.62,0.06,1.53,872.39,31.84
4699863,-0.06,-0.07,0.82,2.62,1.59,1.53,872.33,31.84
4699902,-0.06,-0.07,0.85,2.81,2.2,1.4,872.36,31.82
4699940,-0.05,-0.08,0.82,2.87,4.27,1.46,872.41,31.82
4699978,-0.04,-0.07,0.89,2.87,5.07,1.4,872.42,31.83
4700016,-0.05,-0.08,0.88,3.17,7.08,1.4,872.38,31.82
4700066,-0.05,-0.07,0.87,3.3,7.69,1.53,872.45,31.81
4700104,-0.04,-0.07,0.89,3.48,7.75,1.53,872.47,31.82
4700142,-0.03,-0.08,0.86,3.42,7.69,1.65,872.47,31.84
4700180,-0.05,-0.07,0.85,3.6,7.32,1.59,872.51,31.83
4700218,-0.03,-0.08,0.84,4.27,7.51,1.71,872.51,31.82
4700256,-0.02,-0.08,0.82,4.27,7.14,1.53,872.54,31.83
4700295,-0.03,-0.08,0.82,4.09,6.04,1.77,872.57,31.84
4700333,-0.04,-0.08,0.82,4.21,5.31,1.71,872.59,31.84
4700371,-0.03,-0.07,0.84,4.27,4.39,1.59,872.59,31.82
4700409,-0.03,-0.08,0.82,3.66,4.94,1.53,872.52,31.82
4700459,-0.04,-0.08,0.89,4.03,3.05,1.53,872.62,31.8
4700497,-0.03,-0.09,0.86,3.66,4.52,1.4,872.64,31.82
4700535,-0.04,-0.07,0.91,3.6,4.52,1.4,872.61,31.81
4700573,-0.03,-0.08,0.89,3.72,5.07,1.46,872.68,31.83
4700611,-0.04,-0.09,0.89,3.3,4.33,1.28,872.62,31.82
4700649,-0.04,-0.07,0.9,3.23,5.31,1.16,872.68,31.83
4700688,-0.04,-0.08,0.88,3.17,4.7,1.28,872.72,31.82
4700726,-0.03,-0.07,0.93,2.93,4.27,1.22,872.71,31.82
4700764,-0.03,-0.07,0.88,2.38,4.21,1.34,872.73,31.82
4700802,-0.05,-0.07,0.91,2.32,3.6,1.22,872.74,31.82
4700878,-0.03,-0.07,0.97,1.95,4.33,1.28,872.8,31.8
4700916,-0.04,-0.07,0.99,1.95,5.55,1.16,872.79,31.81
4700954,-0.05,-0.08,1.01,1.95,5.07,1.22,872.83,31.82
4701044,-0.04,-0.07,1.04,1.71,5.19,1.04,872.93,31.78
4701082,-0.03,-0.07,1.04,1.77,6.23,0.98,872.88,31.8
4701120,-0.03,-0.07,1.04,1.65,6.77,0.79,872.95,31.81
4701158,-0.02,-0.07,1.08,2.08,6.59,1.1,872.9,31.8
4701196,-0.03,-0.07,1.08,2.08,6.16,0.98,872.96,31.8
4701234,-0.05,-0.07,1.09,2.44,6.41,0.73,873.01,31.8
4701284,-0.04,-0.07,1.08,2.62,6.16,0.98,873.02,31.8
4701322,-0.03,-0.07,1.07,2.56,5.55,0.73,873.03,31.8
4701361,-0.04,-0.07,1.07,2.69,5.19,0.73,873.04,31.81
4701399,-0.02,-0.07,1.06,2.56,5.19,0.61,873.06,31.82
4701437,-0.03,-0.08,1.06,2.26,4.15,0.67,873.12,31.82
4701475,-0.05,-0.08,1.06,2.5,4.33,0.73,873.09,31.82
4701513,-0.05,-0.08,1.07,2.44,4.03,0.49,873.17,31.83
4701551,-0.03,-0.08,1.06,2.01,3.23,0.61,873.15,31.82
4701589,-0.02,-0.08,1.07,1.77,2.93,0.61,873.16,31.83
4701627,-0.03,-0.08,1.05,1.71,3.05,0.49,873.17,31.82
4701677,-0.03,-0.08,1.04,1.65,3.17,0.49,873.23,31.79
4701715,-0.04,-0.08,1.04,1.71,2.87,0.49,873.2,31.8
4701754,-0.05,-0.06,1.05,1.65,3.17,0.49,873.18,31.81
4701792,-0.04,-0.08,1.04,1.46,2.69,0.43,873.22,31.81
4701830,-0.04,-0.07,1.06,1.16,2.2,0.55,873.28,31.82
4701868,-0.04,-0.08,1.04,1.4,3.05,0.67,873.28,31.83
4701906,-0.04,-0.07,1.02,1.04,2.87,0.43,873.33,31.82
4701944,-0.05,-0.07,1.02,0.98,2.38,0.55,873.31,31.81
4701982,-0.04,-0.08,0.98,0.79,2.56,0.49,873.33,31.82
4702020,-0.04,-0.07,1.01,0.85,2.2,0.55,873.36,31.83
4702070,-0.03,-0.08,0.96,0.55,2.38,0.67,873.39,31.82
4702108,-0.04,-0.08,0.96,0.49,2.08,0.43,873.36,31.8
4702146,-0.04,-0.08,0.96,0.73,1.83,0.43,873.4,31.81
4702185,-0.04,-0.09,0.95,0.67,1.65,0.61,873.49,31.82
4702223,-0.04,-0.08,0.97,0.73,1.4,0.55,873.46,31.82
4702261,-0.03,-0.08,0.96,0.79,1.71,0.43,873.46,31.8
4702299,-0.03,-0.08,0.97,1.04,2.01,0.31,873.48,31.82
4702337,-0.03,-0.08,0.99,0.85,1.4,0.43,873.54,31.81
4702375,-0.04,-0.08,0.99,0.79,2.08,0.49,873.46,31.82
4702425,-0.05,-0.09,0.95,0.73,2.5,0.31,873.52,31.81
4702463,-0.05,-0.07,1.0,0.61,2.26,0.24,873.5,31.81
4702501,-0.06,-0.08,0.98,0.73,2.87,0.24,873.58,31.81
4702539,-0.04,-0.08,0.98,0.67,2.5,0.18,873.56,31.83
4702578,-0.04,-0.08,1.01,0.79,2.75,0.18,873.6,31.84
4702616,-0.05,-0.08,1.03,0.73,2.87,0.37,873.65,31.82
4702654,-0.05,-0.08,1.02,0.55,3.05,0.31,873.62,31.82
4702692,-0.05,-0.07,1.06,0.67,3.3,0.24,873.65,31.82
4702730,-0.04,-0.09,1.05,0.79,3.11,0.37,873.69,31.81
4702768,-0.04,-0.08,1.05,0.73,2.93,0.37,873.69,31.81
4702818,-0.05,-0.08,1.05,0.49,3.36,0.18,873.69,31.81
4702856,-0.04,-0.07,1.07,0.55,2.87,0.24,873.64,31.81
4702894,-0.07,-0.07,1.07,0.55,2.75,0.49,873.73,31.8
4702932,-0.06,-0.08,1.06,0.61,3.11,0.49,873.74,31.81
4702970,-0.05,-0.08,1.06,0.37,2.87,0.49,873.78,31.8
4703008,-0.04,-0.08,1.06,0.61,3.05,0.61,873.78,31.81
4703047,-0.05,-0.08,1.03,0.37,2.87,0.67,873.77,31.8
4703085,-0.05,-0.07,1.1,0.73,2.69,0.67,873.76,31.8
4703123,-0.04,-0.08,1.07,0.73,2.69,0.73,873.79,31.79
4703173,-0.06,-0.07,1.11,0.92,2.93,0.92,873.82,31.79
4703211,-0.04,-0.08,1.1,0.85,2.62,0.73,873.86,31.79
4703249,-0.04,-0.07,1.13,0.92,2.62,0.67,873.87,31.79
4703287,-0.05,-0.08,1.09,0.98,2.69,0.79,873.83,31.79
4703325,-0.05,-0.07,1.14,1.04,2.44,0.98,873.84,31.79
4703363,-0.05,-0.08,1.13,0.98,2.14,0.98,873.87,31.79
4703402,-0.04,-0.07,1.15,0.98,1.83,0.98,873.91,31.78
4703440,-0.05,-0.08,1.15,0.79,1.34,0.92,873.91,31.79
4703478,-0.05,-0.07,1.17,1.16,1.59,0.98,873.97,31.8
4703516,-0.05,-0.07,1.15,1.34,1.4,1.04,873.95,31.8
4703566,-0.05,-0.08,1.14,1.22,1.53,1.16,874.0,31.78
4703604,-0.05,-0.07,1.12,1.59,1.71,1.16,874.04,31.8
4703642,-0.05,-0.08,1.1,1.65,2.26,1.16,874.02,31.8
4703680,-0.05,-0.08,1.08,1.53,2.32,1.22,874.02,31.8
4703718,-0.04,-0.08,1.09,1.71,2.14,1.22,874.07,31.8
4703756,-0.04,-0.1,1.05,1.83,2.26,1.1,874.1,31.8
4703794,-0.05,-0.08,1.04,1.83,2.08,1.04,874.06,31.8
4703832,-0.04,-0.08,1.03,1.83,2.75,1.1,874.07,31.79
4703870,-0.04,-0.08,1.0,1.65,2.69,0.98,874.11,31.79
4703909,-0.03,-0.08,1.01,1.34,2.75,1.04,874.12,31.8
4703984,-0.04,-0.08,1.0,1.28,2.87,0.92,874.15,31.77
4704022,-0.04,-0.08,1.03,1.16,2.32,0.92,874.14,31.78
4704061,-0.04,-0.08,1.06,1.28,2.08,0.85,874.16,31.78
4704150,-0.05,-0.08,1.03,0.79,2.38,1.1,874.15,31.75
4704188,-0.04,-0.08,1.01,0.73,1.4,1.04,874.2,31.77
4704226,-0.04,-0.08,1.01,0.61,1.34,0.92,874.15,31.76
4704265,-0.04,-0.08,0.98,0.61,1.71,0.92,874.26,31.77
4704303,-0.06,-0.08,1.03,0.73,2.01,0.92,874.26,31.76
4704341,-0.05,-0.08,1.02,0.92,2.01,0.98,874.2,31.77
4704391,-0.07,-0.08,1.02,1.34,2.2,0.98,874.2,31.75
4704429,-0.05,-0.08,1.01,1.22,2.75,1.04,874.33,31.79
4704467,-0.06,-0.07,1.02,1.46,2.93,1.16,874.23,31.77
4704505,-0.06,-0.08,1.0,1.65,3.36,1.16,874.33,31.79
4704543,-0.06,-0.08,1.01,1.77,3.6,1.34,874.27,31.79
4704581,-0.06,-0.08,0.99,1.71,4.09,1.59,874.26,31.79
4704619,-0.06,-0.08,0.99,1.71,4.09,1.77,874.36,31.8
4704658,-0.06,-0.08,0.99,1.83,4.27,1.53,874.28,31.79
4704696,-0.05,-0.08,0.98,2.01,4.64,1.71,874.33,31.78
4704734,-0.05,-0.08,1.01,2.08,4.21,1.71,874.32,31.79
4704784,-0.07,-0.09,0.99,1.95,4.52,1.83,874.35,31.76
4704822,-0.06,-0.07,1.02,1.95,4.15,1.89,874.41,31.78
4704860,-0.05,-0.08,1.0,2.01,4.88,1.89,874.37,31.8
4704898,-0.04,-0.08,1.01,2.08,4.7,1.89,874.41,31.79
4704936,-0.05,-0.07,1.0,2.2,5.49,2.08,874.43,31.78
4704975,-0.05,-0.07,0.99,2.08,4.82,2.14,874.44,31.79
4705013,-0.06,-0.07,0.98,2.01,5.07,2.01,874.42,31.79
4705051,-0.05,-0.09,0.97,1.83,5.43,2.14,874.4,31.79
4705089,-0.06,-0.08,1.0,1.59,4.76,2.14,874.49,31.79
4705127,-0.05,-0.08,0.98,1.77,5.0,2.14,874.44,31.78
4705177,-0.04,-0.08,0.99,1.65,4.94,2.26,874.52,31.77
4705215,-0.05,-0.08,0.99,1.53,4.64,2.26,874.55,31.78
4705253,-0.05,-0.09,0.99,1.65,4.46,2.26,874.53,31.78
4705291,-0.05,-0.08,0.99,1.4,4.58,2.26,874.56,31.78
4705329,-0.05,-0.08,1.01,1.34,3.91,2.14,874.55,31.78
4705368,-0.03,-0.08,1.01,1.22,3.54,2.38,874.56,31.77
4705406,-0.04,-0.08,1.01,1.1,3.54,2.2,874.55,31.77
4705444,-0.04,-0.09,1.0,1.4,3.66,2.26,874.56,31.78
4705482,-0.03,-0.08,1.01,0.92,3.11,2.38,874.61,31.78
4705532,-0.05,-0.07,0.99,1.1,3.17,2.32,874.56,31.78
4705570,-0.05,-0.08,1.0,0.92,3.05,2.26,874.56,31.77
4705608,-0.03,-0.08,1.02,0.79,3.42,2.14,874.6,31.77
4705646,-0.03,-0.08,1.02,0.98,3.42,2.26,874.65,31.78
4705684,-0.05,-0.08,1.02,0.98,3.91,2.2,874.6,31.77
4705722,-0.04,-0.08,1.01,1.04,4.27,2.08,874.63,31.78
4705760,-0.04,-0.08,1.02,1.1,4.09,1.95,874.64,31.78
4705799,-0.04,-0.08,1.01,1.04,3.91,1.89,874.66,31.79
4705837,-0.04,-0.07,1.03,1.1,4.03,2.14,874.68,31.8
4705875,-0.04,-0.08,1.05,1.34,4.58,1.95,874.62,31.78
4705925,-0.04,-0.08,1.07,1.28,3.91,1.95,874.66,31.79
4705963,-0.04,-0.08,1.08,1.4,4.27,1.95,874.69,31.79
4706001,-0.03,-0.08,1.08,1.46,3.85,1.89,874.71,31.8
4706039,-0.04,-0.07,1.07,1.53,3.42,1.83,874.73,31.79
4706077,-0.04,-0.09,1.04,1.59,3.42,1.89,874.74,31.79
4706115,-0.05,-0.08,1.05,1.71,3.48,1.89,874.81,31.81
4706153,-0.03,-0.09,1.02,2.01,4.33,1.65,874.73,31.8
4706192,-0.04,-0.08,1.04,2.01,4.15,1.65,874.75,31.8
4706230,-0.04,-0.08,1.01,1.89,4.58,1.65,874.78,31.79
4706268,-0.03,-0.07,1.06,1.95,4.39,1.53,874.81,31.8
4706318,-0.03,-0.08,1.05,1.77,5.43,1.65,874.79,31.79
4706356,-0.04,-0.08,1.08,1.77,4.46,1.65,874.81,31.8
4706394,-0.04,-0.08,1.05,1.71,5.68,1.4,874.83,31.79
4706432,-0.02,-0.08,1.09,1.65,4.39,1.4,874.84,31.8
4706470,-0.04,-0.08,1.08,2.08,5.07,1.4,874.78,31.81
4706508,-0.04,-0.09,1.04,2.08,4.52,1.22,874.82,31.79
4706546,-0.06,-0.07,1.1,2.01,5.25,1.22,874.84,31.79
4706584,-0.04,-0.08,1.06,1.95,5.37,1.34,874.86,31.8
4706623,-0.04,-0.07,1.08,1.59,4.39,1.22,874.88,31.8
4706672,-0.05,-0.08,1.05,1.34,4.94,1.28,874.87,31.78
4706711,-0.04,-0.08,1.11,1.4,4.39,1.16,874.85,31.78
4706749,-0.06,-0.08,1.04,1.4,4.58,1.46,874.87,31.78
4706787,-0.05,-0.07,1.07,1.59,3.97,1.46,874.88,31.8
4706825,-0.05,-0.08,1.05,1.71,4.15,1.46,874.88,31.8
4706863,-0.03,-0.08,1.03,1.71,3.78,1.59,874.97,31.79
4706901,-0.04,-0.07,1.05,1.95,3.85,1.59,874.92,31.8
4706939,-0.04,-0.08,0.99,1.83,3.97,1.65,874.95,31.78
4706977,-0.03,-0.08,1.05,1.83,4.39,1.46,874.91,31.78
4707016,-0.04,-0.09,1.02,2.14,4.52,1.53,874.94,31.79
4707091,-0.04,-0.08,1.03,1.95,5.19,1.59,874.99,31.75
4707129,-0.05,-0.08,1.0,1.95,4.88,1.46,875.01,31.77
4707168,-0.03,-0.08,0.98,1.89,4.64,1.65,875.01,31.78
4707257,-0.05,-0.08,0.89,1.83,4.46,1.65,875.01,31.76
4707295,-0.05,-0.08,0.88,1.95,2.87,1.53,874.98,31.76
4707333,-0.06,-0.09,0.83,1.77,2.93,1.65,875.02,31.77
4707371,-0.05,-0.09,0.81,1.71,2.08,1.77,875.01,31.76
4707410,-0.03,-0.08,0.82,1.71,2.01,1.71,874.95,31.77
4707448,-0.06,-0.09,0.76,1.59,1.65,1.83,875.03,31.78
4707486,-0.04,-0.08,0.83,1.53,0.92,1.95,875.09,31.79
4707536,-0.04,-0.09,0.83,1.22,2.01,1.89,874.98,31.76
4707574,-0.06,-0.07,0.88,1.22,2.14,1.95,875.03,31.78
4707612,-0.05,-0.08,0.91,1.1,2.75,2.01,875.1,31.78
4707650,-0.06,-0.08,0.91,0.98,2.32,2.01,875.07,31.78
4707688,-0.07,-0.07,0.94,0.92,3.48,1.89,875.11,31.79
4707726,-0.04,-0.08,0.95,0.85,3.42,2.08,875.1,31.77
4707764,-0.07,-0.08,0.96,0.98,3.3,1.95,875.06,31.79
4707802,-0.04,-0.08,0.99,1.04,4.03,2.01,875.06,31.79
4707841,-0.05,-0.08,1.0,1.22,4.64,2.01,875.15,31.79
4707890,-0.04,-0.08,1.03,1.34,4.39,2.08,875.14,31.77
4707929,-0.04,-0.08,1.07,1.16,4.15,2.14,875.13,31.77
4707967,-0.03,-0.08,1.07,1.22,3.97,2.01,875.12,31.79
4708005,-0.04,-0.06,1.1,1.28,3.42,2.14,875.16,31.78
4708043,-0.05,-0.07,1.13,1.59,3.6,2.08,875.18,31.77
4708081,-0.04,-0.08,1.13,1.65,3.05,2.08,875.17,31.77
4708119,-0.03,-0.08,1.15,1.83,3.11,2.26,875.17,31.76
4708157,-0.04,-0.08,1.1,1.83,3.78,2.14,875.23,31.77
4708196,-0.04,-0.07,1.08,2.01,4.09,1.83,875.24,31.77
4708234,-0.03,-0.08,1.01,2.32,4.33,1.71,875.2,31.77
4708284,-0.04,-0.07,0.98,2.26,4.82,1.71,875.27,31.75
4708322,-0.03,-0.08,0.99,2.14,5.0,1.71,875.24,31.77
4708360,-0.05,-0.08,0.97,2.44,5.07,1.83,875.21,31.76
4708398,-0.05,-0.08,0.99,2.14,4.7,1.65,875.24,31.77
4708436,-0.04,-0.08,1.03,2.14,4.64,1.65,875.27,31.78
4708474,-0.04,-0.08,1.03,2.08,4.88,1.71,875.23,31.76
4708512,-0.03,-0.09,1.04,2.32,5.19,1.71,875.26,31.77
4708551,-0.02,-0.08,1.03,2.38,5.13,1.59,875.25,31.79
4708589,-0.04,-0.08,1.04,2.56,4.52,1.59,875.26,31.77
4708627,-0.04,-0.08,1.02,2.56,4.76,1.53,875.32,31.77
4708677,-0.02,-0.08,1.03,2.62,4.46,1.4,875.3,31.77
4708715,-0.04,-0.08,1.03,2.75,4.58,1.4,875.34,31.77
4708753,-0.03,-0.07,1.03,2.62,4.15,1.46,875.28,31.76
4708791,-0.05,-0.08,1.03,2.5,4.27,1.4,875.36,31.77
4708829,-0.03,-0.08,1.03,2.44,4.21,1.46,875.34,31.77
4708867,-0.05,-0.07,1.03,2.5,4.03,1.34,875.4,31.78
4708906,-0.05,-0.08,1.0,2.69,3.42,1.34,875.37,31.78
4708944,-0.04,-0.07,1.0,2.81,3.17,1.34,875.36,31.78
4708982,-0.03,-0.07,1.01,2.87,3.78,1.4,875.34,31.77
4709032,-0.03,-0.08,1.02,2.75,3.42,1.28,875.29,31.75
4709070,-0.05,-0.07,1.01,2.56,4.15,1.28,875.41,31.76
4709108,-0.04,-0.08,1.04,2.69,3.97,1.22,875.38,31.76
4709146,-0.04,-0.08,1.06,2.62,4.76,1.4,875.39,31.77
4709184,-0.03,-0.08,1.05,2.5,4.27,1.22,875.45,31.78
4709223,-0.05,-0.08,1.05,2.5,5.19,1.1,875.45,31.78
4709261,-0.03,-0.09,1.04,2.69,4.94,1.16,875.44,31.77
4709299,-0.04,-0.07,1.03,2.93,5.13,1.1,875.44,31.77
4709337,-0.03,-0.08,1.01,2.93,5.31,0.92,875.43,31.76
4709375,-0.05,-0.08,1.03,2.99,4.82,1.04,875.46,31.77
4709425,-0.04,-0.07,1.0,3.05,5.0,0.92,875.5,31.76
4709463,-0.02,-0.07,1.01,3.42,4.58,0.92,875.48,31.76
4709501,-0.04,-0.08,1.01,3.42,4.76,0.92,875.44,31.76
4709539,-0.05,-0.09,1.0,3.72,4.76,0.98,875.51,31.77
4709577,-0.06,-0.08,0.98,4.33,4.52,0.92,875.47,31.76
4709616,-0.05,-0.07,0.96,4.7,4.94,0.79,875.5,31.76
4709654,-0.05,-0.08,0.92,4.88,5.13,0.92,875.51,31.78
4709692,-0.05,-0.07,0.92,5.0,5.19,0.98,875.48,31.75
4709730,-0.06,-0.09,0.89,5.31,4.94,0.98,875.47,31.75
4709768,-0.04,-0.08,0.88,5.13,5.07,0.92,875.52,31.76
4709818,-0.04,-0.08,0.85,4.94,5.19,1.04,875.47,31.75
4709856,-0.05,-0.09,0.83,4.64,5.13,0.98,875.55,31.76
4709894,-0.04,-0.08,0.81,4.64,4.52,1.04,875.56,31.77
4709932,-0.05,-0.08,0.8,4.09,4.33,1.16,875.51,31.76
4709970,-0.06,-0.08,0.79,4.09,4.27,1.22,875.53,31.75
4710009,-0.05,-0.08,0.82,3.85,4.21,1.28,875.58,31.75
4710047,-0.05,-0.09,0.8,3.6,4.33,1.4,875.54,31.75
4710085,-0.05,-0.08,0.8,3.6,3.91,1.28,875.56,31.74
4710123,-0.04,-0.09,0.8,3.42,3.66,1.34,875.51,31.75
4710199,-0.04,-0.09,0.78,3.11,3.85,1.46,875.56,31.73
4710237,-0.04,-0.08,0.78,2.81,3.3,1.34,875.55,31.73
4710275,-0.05,-0.08,0.82,2.93,3.17,1.46,875.55,31.73
4710364,-0.04,-0.08,0.87,2.93,3.97,1.46,875.65,31.7
4710403,-0.05,-0.09,0.88,2.99,4.27,1.46,875.73,31.73
4710441,-0.04,-0.08,0.92,3.42,4.27,1.53,875.64,31.71
4710479,-0.04,-0.08,0.9,3.66,4.52,1.59,875.7,31.73
4710517,-0.04,-0.08,0.89,3.78,4.27,1.46,875.78,31.73
4710555,-0.04,-0.09,0.9,3.85,4.27,1.53,875.68,31.72
4710593,-0.02,-0.08,0.89,4.09,4.76,1.53,875.74,31.72
4710643,-0.04,-0.09,0.87,3.97,4.21,1.65,875.78,31.72
4710681,-0.05,-0.09,0.85,3.85,3.91,1.65,875.77,31.73
4710719,-0.04,-0.08,0.87,3.72,3.91,1.59,875.78,31.73
4710757,-0.04,-0.09,0.85,3.23,4.09,1.4,875.75,31.74
4710795,-0.03,-0.08,0.87,3.05,3.23,1.59,875.75,31.73
4710834,-0.03,-0.09,0.86,2.81,3.78,1.65,875.79,31.75
4710872,-0.04,-0.09,0.87,2.69,3.6,1.46,875.75,31.75
4710910,-0.04,-0.08,0.89,2.2,3.72,1.34,875.82,31.75
4710948,-0.04,-0.09,0.88,2.14,4.15,1.34,875.82,31.77
4710986,-0.03,-0.08,0.91,1.83,4.09,1.28,875.81,31.75
4711036,-0.03,-0.09,0.91,1.89,4.52,1.1,875.8,31.75
4711074,-0.03,-0.08,0.93,1.59,3.97,1.22,875.78,31.74
4711112,-0.03,-0.09,0.95,1.4,4.03,0.98,875.86,31.75
4711150,-0.04,-0.09,0.94,1.34,4.15,1.28,875.87,31.75
4711188,-0.04,-0.08,0.96,1.34,3.48,1.16,875.92,31.75
4711226,-0.04,-0.08,0.96,1.16,3.17,0.98,875.94,31.75
4711264,-0.03,-0.08,0.96,1.28,2.81,0.98,875.92,31.75
4711303,-0.04,-0.09,0.94,1.28,3.54,1.16,875.95,31.75
4711341,-0.04,-0.09,0.96,1.4,2.93,0.92,876.01,31.76
4711390,-0.04,-0.09,0.96,1.16,3.23,0.92,875.96,31.75
4711429,-0.04,-0.08,0.97,1.16,2.56,0.85,876.03,31.75
4711467,-0.03,-0.08,0.96,1.16,3.05,0.85,876.02,31.75
4711505,-0.02,-0.08,0.98,1.16,2.5,0.92,875.99,31.75
4711543,-0.03,-0.09,0.98,1.28,2.2,0.85,876.03,31.75
4711581,-0.04,-0.09,0.96,1.04,2.26,0.61,876.02,31.74
4711619,-0.04,-0.08,0.97,1.1,2.44,0.73,876.07,31.74
4711657,-0.03,-0.09,0.96,1.04,2.38,0.67,876.03,31.74
4711695,-0.05,-0.08,0.99,1.04,1.83,0.61,876.12,31.75
4711734,-0.04,-0.08,0.97,1.1,2.56,0.61,876.08,31.75
4711783,-0.03,-0.08,1.0,1.4,2.56,0.49,876.16,31.74
4711822,-0.02,-0.08,1.0,1.59,2.44,0.43,876.15,31.76
4711860,-0.03,-0.09,0.98,1.83,2.62,0.37,876.19,31.76
4711898,-0.04,-0.08,0.99,1.95,2.93,0.31,876.17,31.75
4711936,-0.04,-0.08,0.99,2.2,2.75,0.31,876.15,31.73
4711974,-0.03,-0.08,0.99,2.14,2.38,0.43,876.17,31.73
4712012,-0.03,-0.08,0.99,2.14,2.38,0.24,876.17,31.74
4712050,-0.03,-0.08,0.98,2.26,2.62,0.12,876.23,31.75
4712089,-0.03,-0.09,1.0,2.2,2.08,0.24,876.26,31.76
4712127,-0.04,-0.08,1.0,1.95,2.14,0.06,876.24,31.76
4712177,-0.05,-0.08,1.01,1.89,2.44,0.12,876.29,31.75
4712215,-0.04,-0.08,1.02,1.83,2.75,0.0,876.24,31.75
4712253,-0.04,-0.08,1.01,1.65,2.69,-0.06,876.33,31.76
4712291,-0.05,-0.08,1.03,1.77,3.11,-0.12,876.26,31.75
4712329,-0.04,-0.08,1.03,1.77,3.36,-0.06,876.36,31.77
4712367,-0.05,-0.08,1.03,1.71,3.6,-0.12,876.33,31.74
4712405,-0.06,-0.09,1.02,2.2,4.03,0.0,876.29,31.74
4712443,-0.04,-0.08,0.99,2.2,4.64,-0.06,876.36,31.76
4712481,-0.03,-0.08,0.99,2.26,4.58,-0.12,876.31,31.76
4712531,-0.03,-0.08,0.99,2.32,4.82,0.0,876.31,31.73
4712569,-0.03,-0.09,0.98,2.56,4.88,0.0,876.4,31.75
4712607,-0.04,-0.08,0.97,2.44,4.52,-0.06,876.42,31.74
4712645,-0.04,-0.09,0.95,2.44,4.33,0.0,876.42,31.75
4712683,-0.04,-0.08,0.94,2.26,4.33,-0.18,876.43,31.76
4712722,-0.03,-0.09,0.93,1.95,4.15,-0.12,876.45,31.75
4712760,-0.03,-0.08,0.92,1.89,3.97,-0.18,876.47,31.75
4712798,-0.04,-0.08,0.91,1.89,3.85,-0.06,876.48,31.75
4712836,-0.03,-0.08,0.93,1.77,4.03,-0.12,876.44,31.74
4712874,-0.03,-0.09,0.93,1.83,4.15,-0.18,876.43,31.75
4712924,-0.03,-0.08,0.97,1.77,3.91,-0.12,876.52,31.73
4712962,-0.05,-0.08,0.94,1.77,4.27,-0.24,876.48,31.74
4713000,-0.03,-0.08,0.97,1.83,4.21,-0.18,876.56,31.75
4713039,-0.03,-0.08,0.98,2.08,4.21,-0.31,876.59,31.75
4713077,-0.05,-0.09,0.98,2.14,4.15,-0.18,876.6,31.76
4713115,-0.05,-0.08,0.99,2.08,4.21,-0.18,876.59,31.76
4713153,-0.05,-0.08,1.02,2.14,4.15,-0.18,876.67,31.75
4713191,-0.05,-0.08,1.02,2.38,4.15,-0.12,876.63,31.75
4713229,-0.04,-0.08,0.99,2.75,4.21,-0.18,876.68,31.75
4713305,-0.04,-0.08,0.96,2.99,3.72,-0.12,876.63,31.73
4713343,-0.05,-0.08,0.98,3.17,3.36,-0.06,876.6,31.73
4713381,-0.05,-0.09,0.94,3.11,4.21,0.0,876.71,31.73
4713471,-0.03,-0.08,0.93,3.3,3.48,-0.06,876.73,31.7
4713509,-0.03,-0.07,0.95,3.42,3.3,-0.06,876.73,31.71
4713547,-0.05,-0.09,0.91,3.72,4.46,-0.06,876.68,31.7
4713585,-0.06,-0.09,0.9,3.85,3.91,-0.06,876.74,31.73
4713623,-0.06,-0.08,0.92,4.27,3.72,-0.06,876.77,31.72
4713662,-0.06,-0.08,0.85,4.09,3.91,-0.06,876.81,31.73
4713700,-0.06,-0.08,0.87,4.33,3.6,0.06,876.79,31.74
4713750,-0.05,-0.09,0.85,4.21,3.36,0.06,876.79,31.71
4713788,-0.05,-0.09,0.85,3.85,3.36,0.12,876.82,31.74
4713826,-0.06,-0.08,0.84,3.78,3.6,0.18,876.81,31.74
4713864,-0.06,-0.08,0.84,3.78,4.27,0.06,876.81,31.74
4713902,-0.05,-0.09,0.81,3.48,4.58,0.18,876.89,31.73
4713940,-0.08,-0.08,0.82,3.17,4.7,0.18,876.86,31.72
4713978,-0.06,-0.09,0.82,3.17,4.94,0.31,876.87,31.72
4714017,-0.05,-0.09,0.83,3.05,4.64,0.37,876.94,31.73
4714055,-0.06,-0.09,0.84,2.87,4.64,0.55,876.9,31.73
4714104,-0.05,-0.09,0.86,2.32,4.39,0.67,876.9,31.69
4714143,-0.06,-0.09,0.87,2.26,5.0,0.37,876.99,31.71
4714181,-0.04,-0.09,0.86,2.01,4.88,0.49,877.0,31.72
4714219,-0.05,-0.08,0.92,1.83,4.52,0.43,876.97,31.71
4714257,-0.06,-0.09,0.91,1.83,4.58,0.43,876.97,31.71
4714295,-0.05,-0.09,0.96,1.53,4.15,0.67,876.97,31.72
4714333,-0.05,-0.08,1.0,1.46,4.15,0.43,877.05,31.72
4714371,-0.05,-0.08,1.03,1.28,3.72,0.67,877.03,31.73
4714409,-0.05,-0.07,1.1,1.16,3.66,0.73,877.01,31.72
4714448,-0.06,-0.08,1.14,1.16,3.85,0.67,877.05,31.72
4714497,-0.05,-0.07,1.23,0.79,3.42,0.67,877.06,31.73
4714536,-0.07,-0.07,1.25,1.04,3.97,0.98,877.07,31.71
4714574,-0.06,-0.08,1.24,1.4,3.78,1.04,877.17,31.72
4714612,-0.07,-0.08,1.2,1.83,4.33,0.98,877.17,31.73
4714650,-0.07,-0.07,1.18,2.32,4.21,1.1,877.23,31.73
4714688,-0.07,-0.07,1.2,2.99,3.42,1.28,877.19,31.72
4714726,-0.05,-0.08,1.15,2.99,3.85,1.4,877.21,31.73
4714764,-0.06,-0.07,1.18,3.11,3.48,1.46,877.18,31.74
4714803,-0.04,-0.08,1.15,3.36,4.39,1.53,877.23,31.73
4714841,-0.05,-0.07,1.13,3.3,4.09,1.53,877.28,31.73
4714891,-0.05,-0.08,1.11,3.23,4.15,1.77,877.3,31.73
4714929,-0.05,-0.08,1.11,3.23,3.85,1.77,877.28,31.74
4714967,-0.05,-0.09,1.06,3.05,3.78,1.89,877.27,31.73
4715005,-0.06,-0.08,1.08,2.93,2.93,1.71,877.3,31.74
4715043,-0.04,-0.09,1.05,2.99,2.99,1.71,877.31,31.75
4715081,-0.04,-0.09,1.01,2.99,2.93,1.83,877.31,31.73
4715119,-0.06,-0.09,1.0,2.81,3.05,1.89,877.38,31.73
4715158,-0.06,-0.09,0.95,2.56,3.11,1.77,877.36,31.73
4715196,-0.06,-0.09,0.88,2.26,2.75,1.71,877.35,31.74
4715246,-0.04,-0.09,0.85,1.89,3.3,1.83,877.44,31.72
4715284,-0.05,-0.1,0.89,1.46,3.17,1.83,877.4,31.72
4715322,-0.05,-0.09,0.91,1.4,2.87,1.83,877.42,31.72
4715360,-0.04,-0.1,0.91,1.22,2.81,1.83,877.41,31.72
4715398,-0.04,-0.08,0.96,1.1,3.05,1.77,877.49,31.73
4715436,-0.05,-0.09,0.99,1.1,2.99,1.71,877.45,31.71
4715474,-0.05,-0.1,0.96,0.98,3.54,1.71,877.45,31.72
4715513,-0.04,-0.09,0.99,0.85,4.09,1.71,877.48,31.72
4715551,-0.04,-0.09,1.0,1.22,3.23,1.77,877.52,31.73
4715589,-0.05,-0.09,0.99,1.04,3.36,1.71,877.51,31.72
4715639,-0.05,-0.09,1.02,1.16,4.03,1.59,877.5,31.7
4715677,-0.02,-0.11,0.99,1.28,5.13,1.46,877.58,31.72
4715715,-0.04,-0.09,1.02,1.4,4.33,1.4,877.52,31.71
4715753,-0.03,-0.1,0.96,1.28,5.49,1.28,877.63,31.71
4715791,-0.02,-0.09,1.01,0.92,4.21,1.22,877.58,31.72
4715829,-0.02,-0.09,1.02,0.92,4.58,0.79,877.67,31.72
4715868,-0.03,-0.11,0.98,0.55,4.33,0.92,877.63,31.71
4715906,-0.01,-0.09,1.03,0.55,4.09,0.92,877.64,31.71
4715944,-0.01,-0.11,0.99,0.55,3.85,0.85,877.63,31.71
4715982,-0.02,-0.09,1.02,0.24,3.3,0.61,877.68,31.71
4716032,-0.03,-0.1,0.99,0.12,3.42,0.55,877.67,31.7
4716070,-0.02,-0.09,1.02,0.06,3.66,0.37,877.68,31.71
4716108,-0.03,-0.09,1.06,-0.12,4.46,-0.06,877.69,31.72
4716146,-0.04,-0.1,1.11,-0.06,4.76,0.0,877.73,31.7
4716184,-0.04,-0.09,1.17,0.0,4.64,-0.06,877.75,31.73
4716223,-0.05,-0.1,1.15,0.18,6.04,-0.24,877.76,31.73
4716261,-0.05,-0.09,1.15,0.31,5.8,-0.18,877.81,31.72
4716299,-0.04,-0.09,1.16,0.61,5.55,-0.12,877.76,31.71
4716337,-0.04,-0.1,1.1,0.85,5.49,-0.12,877.79,31.72
4716413,-0.03,-0.1,1.12,0.79,4.58,-0.18,877.77,31.68
4716451,-0.05,-0.1,1.09,0.98,4.58,-0.18,877.88,31.71
4716489,-0.05,-0.09,1.11,0.98,4.27,-0.06,877.91,31.71
4716578,-0.05,-0.1,1.08,1.04,4.15,0.0,877.9,31.66
4716616,-0.06,-0.1,1.0,1.16,3.91,-0.06,877.89,31.69
4716655,-0.04,-0.08,1.05,1.22,3.17,-0.12,877.85,31.68
4716693,-0.02,-0.1,1.01,1.1,3.85,0.0,877.87,31.7
4716731,-0.04,-0.09,1.06,0.85,1.77,0.06,877.89,31.7
4716769,-0.03,-0.11,1.04,1.16,2.2,0.0,877.9,31.68
4716807,-0.04,-0.1,1.05,0.79,0.55,-0.06,877.9,31.69
4716857,-0.04,-0.1,1.07,1.1,1.04,-0.06,877.93,31.68
4716895,-0.04,-0.1,1.02,0.67,-15.56,-0.06,877.93,31.68
4716933,-0.04,-0.09,1.07,0.73,0.79,-0.06,877.93,31.69
4716971,-0.02,-0.1,1.0,0.98,0.49,-0.24,878.03,31.7
4717009,-0.02,-0.09,1.01,0.92,0.98,-0.18,877.99,31.7
4717047,-0.05,-0.1,0.95,1.04,2.99,-0.31,877.99,31.7
4717086,-0.04,-0.1,0.98,1.16,2.69,-0.43,877.99,31.71
4717124,-0.02,-0.1,0.96,1.04,2.44,-0.37,878.06,31.71
4717162,-0.04,-0.1,0.94,0.61,2.62,-0.55,878.03,31.71
4717212,-0.01,-0.1,0.97,0.61,3.11,-0.55,878.02,31.7
4717250,-0.03,-0.1,0.98,0.18,2.08,-0.67,878.05,31.7
4717288,-0.06,-0.09,1.0,0.06,2.32,-0.55,878.07,31.7
4717326,-0.02,-0.11,1.02,0.06,3.54,-0.55,878.01,31.7
4717364,-0.04,-0.1,1.05,0.24,4.03,-0.55,878.09,31.68
4717402,-0.05,-0.1,1.07,0.67,2.75,-0.67,878.04,31.68
4717440,-0.05,-0.11,1.06,0.73,3.54,-0.73,878.1,31.7
4717478,-0.02,-0.1,1.1,0.61,3.91,-0.61,878.08,31.69
4717517,-0.02,-0.1,1.11,0.67,4.39,-0.73,878.06,31.69
4717555,-0.05,-0.1,1.11,0.49,4.21,-0.67,878.14,31.7
4717604,-0.03,-0.09,1.17,0.37,3.42,-0.79,878.14,31.68
4717643,-0.04,-0.1,1.13,0.49,3.23,-0.85,878.12,31.68
4717681,-0.07,-0.08,1.14,0.67,2.38,-0.67,878.18,31.67
4717719,-0.02,-0.1,1.18,1.1,2.87,-0.67,878.15,31.68
4717757,-0.04,-0.1,1.11,0.92,3.17,-0.79,878.12,31.68
4717795,-0.06,-0.08,1.14,1.22,2.75,-0.67,878.2,31.69
4717833,-0.04,-0.08,1.18,1.28,3.72,-0.67,878.17,31.67
4717871,-0.05,-0.1,1.17,1.16,3.91,-0.67,878.24,31.69
4717910,-0.08,-0.09,1.23,1.28,3.05,-0.61,878.15,31.69
4717959,-0.05,-0.09,1.21,1.65,3.85,-0.61,878.2,31.68
4717998,-0.04,-0.08,1.21,1.46,2.87,-0.61,878.19,31.68
4718036,-0.06,-0.09,1.21,1.89,3.23,-0.67,878.22,31.69
4718074,-0.07,-0.11,1.22,2.2,3.42,-0.24,878.22,31.69
4718112,-0.06,-0.1,1.2,2.38,3.54,-0.43,878.29,31.69
4718150,-0.06,-0.09,1.22,2.44,3.66,-0.43,878.21,31.69
4718188,-0.06,-0.08,1.21,2.99,3.85,-0.31,878.23,31.7
4718226,-0.05,-0.11,1.16,3.05,4.21,-0.31,878.26,31.7
4718265,-0.06,-0.1,1.16,3.05,4.46,-0.37,878.26,31.68
4718303,-0.04,-0.11,1.11,3.05,6.1,-0.37,878.27,31.7
4718352,-0.07,-0.09,1.08,3.05,5.68,-0.12,878.27,31.68
4718391,-0.06,-0.09,1.07,2.99,5.55,-0.24,878.25,31.68
4718429,-0.08,-0.09,1.07,2.87,5.37,-0.12,878.21,31.68
4718467,-0.03,-0.1,1.07,2.87,4.7,0.0,878.22,31.69
4718505,-0.07,-0.09,1.04,2.99,4.03,0.0,878.31,31.7
4718543,-0.07,-0.1,0.99,2.93,5.0,0.0,878.28,31.69
4718581,-0.04,-0.1,1.01,2.56,5.31,-0.06,878.24,31.69
4718619,-0.03,-0.09,1.04,2.56,5.07,0.12,878.3,31.69
4718658,-0.06,-0.11,0.98,2.44,4.82,0.12,878.29,31.69
4718707,-0.08,-0.09,1.04,2.08,5.19,0.12,878.28,31.68
4718746,-0.07,-0.09,1.09,2.01,4.27,0.18,878.32,31.68
4718784,-0.1,-0.1,1.07,1.89,3.54,0.37,878.24,31.68
4718822,-0.08,-0.09,1.1,2.01,2.87,0.43,878.33,31.69
4718860,-0.05,-0.09,1.1,2.01,3.72,0.67,878.29,31.7
4718898,-0.07,-0.09,1.02,2.01,3.6,0.79,878.28,31.68
4718936,-0.08,-0.08,1.07,2.2,2.69,0.92,878.31,31.67
4718974,-0.04,-0.1,1.07,2.2,1.95,1.04,878.3,31.68
4719013,-0.06,-0.08,1.09,1.65,0.92,1.1,878.28,31.67
4719051,-0.07,-0.09,1.15,1.89,1.28,1.28,878.33,31.69
4719101,-0.06,-0.1,1.16,1.83,0.79,1.22,878.3,31.67
4719139,-0.06,-0.09,1.15,1.83,1.16,1.16,878.34,31.68
4719177,-0.07,-0.09,1.08,1.71,0.79,1.46,878.34,31.68
4719215,-0.07,-0.09,1.1,2.01,1.95,1.4,878.3,31.68
4719253,-0.04,-0.11,1.11,1.95,2.14,1.28,878.32,31.66
4719291,-0.03,-0.1,1.14,1.95,0.92,1.34,878.3,31.67
4719329,-0.06,-0.1,1.15,2.14,0.55,1.53,878.32,31.68
4719368,-0.04,-0.1,1.17,1.77,0.98,1.46,878.37,31.69
4719406,-0.03,-0.09,1.19,1.89,0.98,1.28,878.33,31.67
4719444,-0.04,-0.1,1.15,2.01,0.92,1.46,878.31,31.68
4719521,-0.04,-0.09,1.13,1.53,0.85,1.1,878.32,31.65
4719559,-0.03,-0.1,1.11,1.65,1.53,1.04,878.37,31.65
4719598,-0.03,-0.11,1.14,1.4,1.04,0.98,878.33,31.66
4719687,-0.04,-0.1,1.15,1.28,2.99,0.85,878.39,31.62
4719725,-0.03,-0.1,1.17,1.34,3.17,0.43,878.37,31.64
4719764,-0.01,-0.11,1.12,1.34,3.66,0.31,878.4,31.64
4719802,-0.03,-0.1,1.16,1.34,3.91,0.06,878.34,31.64
4719840,-0.03,-0.12,1.09,1.16,5.49,0.0,878.31,31.64
4719878,-0.03,-0.11,1.07,0.98,3.91,-0.12,878.35,31.64
4719928,-0.04,-0.1,1.09,0.85,3.85,-0.06,878.28,31.63
4719966,-0.06,-0.1,1.07,0.61,3.78,-0.12,878.26,31.64
4720004,-0.05,-0.1,1.06,0.43,4.82,-0.06,878.34,31.65
4720042,-0.08,-0.09,1.05,0.37,4.33,-0.12,878.28,31.66
4720080,-0.07,-0.09,1.15,0.61,4.82,-0.12,878.24,31.66
4720119,-0.04,-0.11,1.2,0.67,6.65,0.06,878.28,31.66
4720157,-0.05,-0.09,1.24,0.37,6.71,0.0,878.33,31.67
4720195,-0.06,-0.08,1.26,0.55,6.71,0.0,878.33,31.66
4720233,-0.05,-0.1,1.29,0.67,5.86,0.0,878.28,31.67
4720271,-0.05,-0.09,1.29,0.79,5.86,0.18,878.26,31.66
4720321,-0.05,-0.1,1.27,1.28,5.55,0.18,878.28,31.66
4720359,-0.04,-0.1,1.21,1.22,5.68,0.24,878.24,31.66
4720397,-0.04,-0.08,1.22,1.46,5.25,0.43,878.31,31.67
4720436,-0.06,-0.09,1.18,1.65,4.76,0.37,878.24,31.66
4720474,-0.07,-0.1,1.14,1.34,4.58,0.37,878.21,31.66
4720512,-0.08,-0.09,1.15,1.53,3.97,0.55,878.19,31.66
4720550,-0.05,-0.1,1.15,1.46,3.42,0.55,878.23,31.67
4720588,-0.04,-0.1,1.12,1.34,3.11,0.79,878.21,31.67
4720626,-0.07,-0.09,1.12,1.4,3.3,0.61,878.2,31.66
4720676,-0.07,-0.1,1.06,1.04,2.99,0.92,878.21,31.64
4720714,-0.09,-0.09,1.09,1.1,2.5,1.04,878.21,31.66
4720753,-0.05,-0.09,1.04,0.73,2.93,1.04,878.19,31.65
4720791,-0.07,-0.09,1.1,0.61,2.87,1.16,878.16,31.64
4720829,-0.07,-0.11,1.04,0.73,3.23,1.28,878.12,31.65
4720867,-0.06,-0.1,1.05,0.49,1.71,1.46,878.16,31.66
4720905,-0.04,-0.1,1.04,0.12,3.17,1.46,878.16,31.65
4720943,-0.05,-0.09,1.07,0.24,2.56,1.53,878.11,31.64
4720981,-0.08,-0.09,1.04,0.37,2.75,1.71,878.15,31.66
4721020,-0.06,-0.11,1.0,0.0,2.2,1.59,878.18,31.66
4721069,-0.03,-0.09,1.06,-0.18,2.5,1.59,878.13,31.64
4721108,-0.02,-0.11,1.04,-0.24,2.99,1.53,878.09,31.64
4721146,-0.05,-0.09,1.04,-0.24,3.54,1.4,878.06,31.64
4721184,-0.04,-0.1,1.03,0.12,2.99,1.22,878.09,31.65
4721222,-0.04,-0.1,1.08,-0.24,2.32,1.4,878.06,31.64
4721260,-0.05,-0.09,1.06,-0.37,3.05,1.4,878.04,31.65
4721298,-0.05,-0.1,0.98,-0.12,3.3,1.16,877.98,31.63
4721337,-0.05,-0.09,1.07,0.06,2.08,1.04,878.03,31.65
4721375,-0.03,-0.1,1.07,0.12,2.08,1.22,878.06,31.66
4721413,-0.04,-0.1,1.06,0.24,2.93,1.1,878.08,31.65
4721463,-0.05,-0.1,1.12,0.43,2.87,1.16,878.04,31.63
4721501,-0.05,-0.11,1.09,0.79,3.11,1.04,878.01,31.64
4721539,-0.04,-0.11,1.14,1.16,1.89,0.85,878.0,31.65
4721577,-0.03,-0.1,1.08,1.34,2.87,0.85,877.97,31.63
4721615,-0.03,-0.1,1.09,1.53,2.08,0.79,878.07,31.65
4721653,-0.04,-0.1,1.13,1.89,1.65,0.79,877.99,31.64
4721692,-0.04,-0.12,1.1,2.01,1.77,0.73,877.97,31.65
4721730,-0.06,-0.1,1.08,1.89,1.71,0.67,877.99,31.64
4721768,-0.05,-0.11,1.08,1.89,1.46,0.55,877.93,31.66
4721818,-0.04,-0.11,1.07,1.65,2.81,0.37,877.91,31.64
4721856,-0.03,-0.09,1.12,1.34,2.38,0.31,877.85,31.66
4721894,-0.06,-0.09,1.11,1.71,3.66,0.43,877.92,31.66
4721932,-0.06,-0.1,1.11,1.77,4.27,0.43,877.9,31.65
4721970,-0.04,-0.09,1.1,2.01,4.58,0.06,877.85,31.66
4722009,-0.05,-0.1,1.02,2.14,6.1,0.18,877.85,31.66
4722047,-0.04,-0.11,0.97,2.01,6.53,0.18,877.85,31.66
4722085,-0.03,-0.1,0.99,1.95,5.98,0.12,877.83,31.65
4722123,-0.04,-0.09,0.94,1.71,5.55,0.12,877.84,31.66
4722161,-0.04,-0.08,0.93,1.53,5.31,0.06,877.78,31.67
4722211,-0.02,-0.1,0.93,1.1,4.21,0.06,877.82,31.66
4722249,-0.04,-0.11,0.96,1.1,2.69,0.06,877.81,31.64
4722287,-0.02,-0.09,1.01,0.79,1.77,0.0,877.78,31.66
4722325,-0.04,-0.09,1.04,0.43,1.77,0.06,877.73,31.64
4722363,-0.05,-0.1,1.05,0.0,1.16,0.06,877.69,31.65
4722401,-0.07,-0.09,1.09,-0.12,0.55,0.0,877.74,31.65
4722440,-0.05,-0.12,1.15,0.18,0.31,0.06,877.74,31.65
4722478,-0.03,-0.1,1.14,0.12,0.49,-0.12,877.74,31.65
4722516,-0.03,-0.08,1.17,1.1,0.37,-0.06,877.7,31.64
4722554,-0.05,-0.1,1.11,1.53,0.49,-0.06,877.69,31.64
4722630,-0.08,-0.09,1.11,2.69,2.75,-0.24,877.61,31.61
4722668,-0.05,-0.09,1.15,2.81,2.5,-0.24,877.63,31.64
4722706,-0.07,-0.09,1.1,2.93,4.21,-0.31,877.62,31.63
4722796,-0.03,-0.12,1.03,3.54,5.43,-0.24,877.54,31.61
4722834,-0.06,-0.08,1.06,3.05,4.09,-0.12,877.57,31.63
4722872,-0.07,-0.09,0.99,3.23,5.31,-0.06,877.5,31.64
4722910,-0.08,-0.08,1.09,3.36,3.72,0.0,877.49,31.65
4722948,-0.06,-0.09,1.09,3.36,4.64,-0.06,877.45,31.64
4722986,-0.08,-0.09,1.05,3.42,4.33,0.0,877.46,31.65
4723036,-0.08,-0.09,1.06,3.54,5.86,0.18,877.42,31.63
4723074,-0.06,-0.1,0.99,3.42,5.55,0.18,877.44,31.64
4723113,-0.08,-0.08,0.99,3.17,4.94,0.31,877.39,31.63
4723151,-0.08,-0.1,0.93,3.17,5.43,0.55,877.38,31.63
4723189,-0.1,-0.08,0.85,2.75,5.31,0.43,877.39,31.64
4723227,-0.06,-0.1,0.82,2.2,6.29,0.49,877.38,31.65
4723265,-0.05,-0.09,0.88,1.59,5.13,0.73,877.38,31.64
4723303,-0.06,-0.09,0.91,1.83,5.31,0.92,877.31,31.64
4723342,-0.07,-0.1,0.9,1.53,3.91,1.1,877.3,31.63
4723380,-0.07,-0.09,0.92,1.04,3.66,1.22,877.29,31.65
4723430,-0.06,-0.09,0.93,0.12,1.83,1.4,877.28,31.62
4723468,-0.05,-0.09,0.99,-0.67,1.04,1.4,877.18,31.64
4723506,-0.06,-0.08,1.05,-1.59,0.06,1.65,877.2,31.65
4723544,-0.07,-0.07,1.13,-2.2,-0.31,1.95,877.14,31.64
4723582,-0.05,-0.09,1.17,-2.81,-0.73,1.95,877.2,31.65
4723620,-0.06,-0.08,1.16,-3.05,-1.04,1.95,877.16,31.64
4723659,-0.07,-0.07,1.19,-3.05,-1.53,2.14,877.11,31.63
4723697,-0.06,-0.09,1.16,-2.99,-1.46,2.01,877.15,31.65
4723735,-0.04,-0.08,1.09,-2.93,-0.73,2.01,877.17,31.66
4723785,-0.07,-0.09,1.01,-2.69,-0.18,2.01,877.13,31.62
4723823,-0.08,-0.09,0.95,-2.81,1.1,2.26,877.14,31.64
4723861,-0.05,-0.08,0.95,-2.99,1.53,1.89,877.1,31.64
4723899,-0.09,-0.07,0.98,-2.81,2.08,2.14,877.0,31.63
4723938,-0.07,-0.09,0.99,-2.87,3.66,2.08,877.1,31.63
4723976,-0.03,-0.09,1.04,-2.69,3.85,2.08,877.07,31.63
4724014,-0.06,-0.08,1.05,-2.5,4.76,1.95,877.13,31.65
4724052,-0.06,-0.07,1.07,-1.89,4.64,2.2,877.07,31.64
4724090,-0.05,-0.08,1.03,-1.59,6.29,2.26,877.05,31.62
4724128,-0.07,-0.07,1.05,-1.28,5.19,2.2,876.99,31.64
4724178,-0.07,-0.08,1.05,-0.67,4.39,2.38,876.98,31.62
4724216,-0.04,-0.09,1.02,-0.43,4.21,2.56,876.91,31.62
4724255,-0.06,-0.08,1.03,-0.06,3.78,2.62,876.95,31.63
4724293,-0.04,-0.09,1.0,-0.31,4.33,2.62,876.94,31.62
4724331,-0.09,-0.08,1.0,0.18,4.88,2.81,876.9,31.62
4724369,-0.04,-0.09,0.96,0.06,4.76,2.93,876.89,31.63
4724407,-0.06,-0.08,0.91,0.24,4.58,2.93,876.85,31.63
4724445,-0.04,-0.08,0.92,0.24,4.27,3.17,876.87,31.63
4724483,-0.04,-0.1,0.85,0.61,5.62,3.17,876.81,31.63
4724533,-0.06,-0.1,0.71,0.67,6.35,2.75,876.83,31.61
4724571,-0.07,-0.08,0.75,0.43,5.98,2.93,876.78,31.61
4724610,-0.02,-0.11,0.71,-0.12,9.52,2.75,876.75,31.62
4724648,-0.02,-0.09,0.76,-0.31,9.7,2.62,876.77,31.62
4724686,-0.04,-0.08,0.8,-0.12,10.13,2.56,876.71,31.62
4724724,-0.03,-0.07,0.85,-0.18,11.05,2.2,876.75,31.62
4724762,-0.05,-0.07,0.96,-0.18,12.63,2.32,876.72,31.62
4724800,-0.02,-0.09,0.95,-0.31,14.04,2.2,876.7,31.62
4724838,-0.05,-0.07,1.07,0.0,12.02,2.2,876.72,31.63
4724877,-0.01,-0.09,1.02,0.06,12.57,2.2,876.68,31.62
4724926,-0.04,-0.06,1.07,0.37,10.74,2.08,876.74,31.62
4724965,-0.01,-0.09,1.01,0.43,10.68,2.32,876.71,31.61
4725003,-0.03,-0.07,1.04,0.85,8.0,2.2,876.67,31.61
4725041,-0.05,-0.08,1.06,1.22,8.24,2.14,876.61,31.62
4725079,-0.03,-0.09,1.01,1.34,7.39,2.08,876.6,31.62
4725117,-0.05,-0.06,1.09,1.4,6.47,1.83,876.61,31.61
4725155,-0.02,-0.08,1.04,1.46,6.65,1.77,876.56,31.61
4725194,-0.04,-0.07,1.05,1.53,6.77,1.53,876.53,31.61
4725232,-0.04,-0.06,1.06,1.83,7.08,1.65,876.55,31.62
4725282,-0.05,-0.06,1.03,2.38,6.9,1.28,876.53,31.62
4725320,-0.07,-0.06,1.02,2.99,8.06,1.28,876.55,31.63
4725358,-0.04,-0.07,1.03,3.48,8.0,1.16,876.57,31.62
4725396,-0.01,-0.07,0.95,3.91,7.51,1.22,876.5,31.62
4725434,-0.04,-0.06,0.89,4.15,6.53,1.4,876.48,31.63
4725472,-0.03,-0.06,0.86,4.46,7.14,1.22,876.52,31.64
4725511,-0.03,-0.07,0.81,4.52,6.41,1.04,876.43,31.62
4725549,-0.02,-0.07,0.82,4.15,4.82,1.04,876.46,31.63
4725587,-0.03,-0.08,0.76,3.54,4.58,0.92,876.45,31.64
4725625,-0.04,-0.06,0.76,3.36,3.05,0.92,876.41,31.64
4725701,-0.03,-0.08,0.73,2.26,0.43,0.85,876.35,31.61
4725739,-0.08,-0.07,0.7,2.01,-1.16,0.98,876.32,31.63
4725777,-0.07,-0.07,0.73,1.71,-0.98,1.22,876.33,31.62
4725867,-0.07,-0.05,0.78,0.85,-2.75,1.34,876.33,31.59
4725905,-0.06,-0.08,0.76,0.61,-0.55,1.34,876.23,31.59
4725943,-0.05,-0.06,0.94,0.85,-1.4,0.98,876.24,31.6
4725981,-0.06,-0.07,0.96,0.67,0.37,1.28,876.28,31.6
4726019,-0.04,-0.07,0.99,0.98,0.61,1.34,876.25,31.61
4726057,-0.05,-0.05,1.0,1.28,0.55,1.22,876.37,31.62
4726107,-0.06,-0.06,0.96,2.01,0.37,1.46,876.31,31.58
4726145,-0.05,-0.05,0.92,2.44,-0.79,1.59,876.26,31.6
4726184,-0.05,-0.05,0.89,3.11,-0.31,1.59,876.25,31.61
4726222,-0.04,-0.07,0.87,3.36,-0.79,1.71,876.26,31.61
4726260,-0.06,-0.08,0.88,3.3,-0.67,1.83,876.22,31.61
4726298,-0.06,-0.06,0.88,3.48,-1.04,1.77,876.2,31.61
4726336,-0.05,-0.06,0.91,3.6,0.55,1.53,876.15,31.61
4726374,-0.04,-0.07,0.91,3.36,0.06,1.71,876.2,31.62
4726413,-0.03,-0.05,0.97,3.42,-0.43,2.01,876.17,31.62
4726451,-0.02,-0.07,0.96,3.6,0.92,1.71,876.23,31.61
4726501,-0.05,-0.05,0.97,3.42,-1.16,2.01,876.16,31.61
4726539,-0.02,-0.06,0.97,3.78,-0.73,2.26,876.19,31.61
4726577,-0.03,-0.07,0.91,3.66,-1.34,2.01,876.16,31.61
4726615,-0.03,-0.05,0.95,3.17,-1.77,2.01,876.16,31.62
4726653,-0.03,-0.06,0.93,3.3,-0.85,2.08,876.11,31.61
4726691,-0.02,-0.06,0.93,3.11,-1.1,2.01,876.12,31.62
4726730,-0.05,-0.07,0.96,3.42,-0.79,2.08,876.1,31.61
4726768,-0.03,-0.07,0.96,3.72,0.31,2.01,876.14,31.61
4726806,-0.03,-0.07,0.92,4.03,1.34,1.83,876.14,31.61
4726844,-0.02,-0.07,0.85,4.15,2.08,1.65,876.08,31.62
4726894,-0.04,-0.06,0.79,4.46,2.62,1.65,876.13,31.61
4726932,-0.03,-0.06,0.77,4.39,3.36,1.83,876.09,31.6
4726970,-0.04,-0.08,0.74,4.76,4.58,1.71,876.13,31.62
4727009,-0.03,-0.08,0.74,4.88,4.76,1.46,876.13,31.63
4727047,-0.03,-0.07,0.71,4.7,5.49,1.4,876.09,31.61
4727085,-0.01,-0.06,0.72,4.58,6.04,1.16,876.03,31.62
4727123,-0.02,-0.07,0.73,4.58,6.9,1.28,876.07,31.63
4727161,-0.02,-0.07,0.75,4.64,6.1,1.4,876.09,31.64
4727199,-0.02,-0.08,0.8,4.39,5.92,1.4,876.03,31.63
4727249,-0.05,-0.06,0.84,4.15,6.23,1.46,876.01,31.61
4727287,-0.02,-0.06,0.85,4.15,6.29,1.28,876.0,31.64
4727326,-0.02,-0.04,0.94,3.85,5.49,1.53,875.98,31.62
4727364,-0.01,-0.06,0.94,3.48,6.35,1.59,875.99,31.63
4727402,-0.04,-0.05,1.03,3.42,6.23,1.53,875.95,31.63
4727440,-0.01,-0.05,1.08,3.11,6.41,1.59,875.95,31.63
4727478,-0.03,-0.04,1.06,2.87,5.31,1.59,875.98,31.63
4727516,-0.03,-0.03,1.09,3.11,5.98,1.59,875.98,31.65
4727555,-0.01,-0.05,1.05,3.36,6.29,1.28,875.96,31.63
4727593,-0.02,-0.04,1.05,3.3,4.82,1.34,875.99,31.65
4727643,-0.02,-0.05,1.03,3.42,5.55,1.53,875.93,31.64
4727681,-0.04,-0.06,0.98,3.36,4.82,1.4,875.92,31.64
4727719,-0.03,-0.05,0.99,3.48,4.27,1.28,875.94,31.64
4727757,-0.03,-0.07,0.9,3.6,4.09,1.28,875.95,31.64
4727795,-0.02,-0.06,0.83,3.36,4.21,1.22,875.93,31.64
4727834,-0.03,-0.05,0.85,3.66,4.64,1.04,875.96,31.65
4727872,-0.04,-0.07,0.82,3.72,4.52,1.1,875.96,31.64
4727910,-0.04,-0.06,0.77,3.54,5.25,1.04,875.95,31.64
4727948,-0.07,-0.05,0.81,3.54,5.98,0.92,875.94,31.64
4727986,-0.05,-0.07,0.81,3.42,5.25,1.04,875.87,31.63
4728036,-0.05,-0.07,0.84,2.99,4.94,0.92,875.89,31.63
4728074,-0.06,-0.07,0.77,2.62,7.69,0.73,875.91,31.63
4728112,-0.03,-0.05,0.83,2.81,7.57,0.67,875.86,31.63
4728150,-0.03,-0.06,0.8,2.56,8.79,0.73,875.95,31.63
4728189,-0.05,-0.06,0.82,2.5,8.61,0.49,875.89,31.64
4728227,-0.06,-0.06,0.84,2.87,9.95,0.49,875.83,31.63
4728265,-0.04,-0.06,0.83,2.81,8.85,0.61,875.88,31.65
4728303,-0.03,-0.04,0.9,2.93,7.45,0.61,875.88,31.63
4728341,-0.05,-0.06,0.86,2.99,7.75,0.67,875.85,31.65
4728391,-0.03,-0.06,0.93,3.05,6.59,0.98,875.84,31.63
4728429,-0.03,-0.06,0.91,2.93,5.43,0.85,875.86,31.64
4728467,-0.05,-0.05,0.94,2.93,4.46,1.04,875.89,31.64
4728505,-0.03,-0.06,0.91,2.75,4.76,1.04,875.82,31.63
4728544,-0.05,-0.05,0.9,2.62,3.85,1.1,875.82,31.63
4728582,-0.05,-0.06,0.94,2.75,3.17,1.22,875.82,31.64
4728620,-0.02,-0.07,0.88,2.44,2.2,1.1,875.79,31.63
4728658,-0.05,-0.04,0.96,2.5,2.75,1.28,875.76,31.64
4728696,-0.05,-0.06,0.93,2.75,3.54,1.28,875.79,31.63
4728734,-0.04,-0.06,0.97,2.5,2.32,1.28,875.75,31.63
4728810,-0.06,-0.07,0.93,2.75,2.69,1.16,875.8,31.61
4728848,-0.05,-0.06,0.94,2.81,3.78,1.1,875.81,31.62
4728886,-0.04,-0.06,0.93,2.81,3.11,1.1,875.82,31.62
4728976,-0.05,-0.06,0.97,2.62,4.64,1.1,875.8,31.58
4729014,-0.04,-0.05,0.99,2.69,5.74,1.04,875.78,31.59
4729052,-0.03,-0.05,1.01,2.5,5.43,1.04,875.77,31.59
4729090,-0.04,-0.05,1.05,2.75,5.0,1.04,875.75,31.6
4729129,-0.05,-0.05,1.05,2.5,5.49,0.85,875.84,31.61
4729167,-0.05,-0.04,1.08,2.56,4.7,1.1,875.78,31.59
4729217,-0.04,-0.05,1.06,2.62,4.46,1.16,875.7,31.59
4729255,-0.05,-0.05,1.0,2.2,3.54,1.28,875.83,31.61
4729293,-0.04,-0.05,0.98,2.26,3.97,1.22,875.74,31.6
4729331,-0.04,-0.06,0.94,2.38,3.72,1.16,875.77,31.61
4729369,-0.04,-0.05,0.97,2.32,3.17,1.4,875.77,31.61
4729407,-0.04,-0.05,0.94,2.32,2.62,1.34,875.81,31.62
4729446,-0.04,-0.05,0.97,2.38,2.44,1.34,875.79,31.61
4729484,-0.03,-0.06,0.94,2.26,2.38,1.04,875.77,31.6
4729522,-0.04,-0.05,0.99,2.32,1.83,1.16,875.76,31.61
4729560,-0.04,-0.06,0.97,2.32,2.08,1.22,875.76,31.61
4729610,-0.04,-0.05,0.98,2.14,1.46,1.16,875.78,31.59
4729648,-0.04,-0.05,0.99,2.2,1.95,1.16,875.76,31.6
4729686,-0.03,-0.05,0.95,1.83,1.65,1.1,875.77,31.6
4729724,-0.04,-0.04,0.96,1.95,1.83,0.85,875.82,31.6
