timestamp,acc_x,acc_y,acc_z,rot_x,rot_y,rot_z,qfe,temp,Unnamed: 10
4963523,-0.02,-0.07,0.98,1.22,2.2,2.26,915.53,21.85,
4963561,-0.01,-0.07,0.99,1.04,2.81,2.08,915.59,21.85,
4963599,-0.02,-0.07,0.98,1.28,2.38,2.2,915.59,21.86,
4963638,-0.02,-0.07,1.0,1.1,2.5,2.14,915.6,21.86,
4963676,-0.02,-0.07,0.99,1.16,2.56,2.01,915.63,21.87,
4963714,-0.02,-0.07,1.01,1.16,2.38,1.95,915.57,21.86,
4963752,-0.02,-0.07,1.01,1.1,2.62,1.95,915.63,21.87,
4963791,-0.02,-0.07,1.03,1.16,2.5,1.83,915.6,21.87,
4963829,-0.02,-0.07,1.02,1.04,2.93,1.95,915.63,21.88,
4963879,-0.02,-0.07,1.01,1.1,2.81,1.83,915.64,21.86,
4963917,-0.02,-0.06,1.02,1.22,2.99,1.71,915.68,21.87,
4963956,-0.02,-0.07,1.02,1.4,3.11,1.77,915.66,21.89,
4963994,-0.02,-0.06,1.03,1.59,2.99,1.77,915.56,21.86,
4964032,-0.03,-0.06,1.04,1.71,3.48,1.59,915.64,21.87,
4964070,-0.01,-0.07,1.05,1.65,3.42,1.59,915.63,21.88,
4964109,-0.02,-0.07,1.05,1.65,3.23,1.59,915.62,21.88,
4964147,-0.03,-0.06,1.03,1.71,3.11,1.53,915.62,21.88,
4964185,-0.02,-0.07,1.01,1.83,3.54,1.77,915.68,21.88,
4964224,-0.02,-0.07,1.01,1.83,3.11,1.53,915.6,21.87,
4964274,-0.03,-0.06,1.0,1.65,2.93,1.83,915.67,21.87,
4964312,-0.03,-0.07,1.0,1.89,3.23,1.65,915.69,21.87,
4964350,-0.02,-0.06,1.0,1.83,3.17,1.59,915.66,21.88,
4964389,-0.02,-0.07,1.01,1.95,3.17,1.53,915.67,21.87,
4964427,-0.03,-0.07,1.0,1.95,3.3,1.59,915.7,21.88,
4964465,-0.02,-0.07,1.01,1.77,3.11,1.59,915.71,21.88,
4964503,-0.02,-0.06,1.01,1.95,2.81,1.71,915.71,21.87,
4964542,-0.03,-0.07,1.0,1.83,2.81,1.53,915.72,21.88,
4964580,-0.02,-0.07,1.01,1.95,3.05,1.59,915.66,21.88,
4964630,-0.02,-0.07,1.01,1.83,3.17,1.65,915.69,21.87,
4964668,-0.03,-0.06,1.01,2.08,2.99,1.46,915.73,21.88,
4964707,-0.03,-0.06,1.03,2.2,3.05,1.46,915.69,21.88,
4964745,-0.02,-0.06,1.02,2.01,3.17,1.71,915.67,21.88,
4964783,-0.03,-0.07,1.01,2.01,3.17,1.71,915.77,21.9,
4964821,-0.03,-0.06,1.01,1.89,2.93,1.65,915.72,21.89,
4964860,-0.03,-0.06,1.02,1.95,3.17,1.77,915.69,21.88,
4964898,-0.03,-0.07,1.02,1.77,3.42,1.53,915.72,21.88,
4964936,-0.03,-0.06,1.05,2.01,3.36,1.53,915.74,21.89,
4964975,-0.03,-0.06,1.05,1.89,4.09,1.59,915.74,21.89,
4965025,-0.03,-0.06,1.06,2.08,4.21,1.59,915.74,21.88,
4965063,-0.03,-0.06,1.07,2.14,4.76,1.59,915.77,21.89,
4965101,-0.03,-0.06,1.04,2.14,4.52,1.46,915.73,21.89,
4965140,-0.03,-0.05,1.07,2.14,4.21,1.83,915.7,21.88,
4965178,-0.03,-0.06,1.08,2.14,4.15,1.59,915.74,21.88,
4965216,-0.03,-0.06,1.07,2.26,4.09,1.71,915.8,21.89,
4965255,-0.03,-0.06,1.08,2.44,4.03,1.71,915.81,21.9,
4965293,-0.02,-0.06,1.07,2.26,3.66,1.71,915.8,21.89,
4965331,-0.03,-0.06,1.07,2.32,3.6,1.71,915.8,21.89,
4965369,-0.02,-0.06,1.07,2.32,3.48,1.77,915.76,21.89,
4965419,-0.02,-0.05,1.07,2.5,2.99,1.77,915.84,21.89,
4965458,-0.03,-0.06,1.06,2.62,2.93,1.83,915.78,21.89,
4965496,-0.02,-0.06,1.05,2.69,2.2,2.01,915.79,21.9,
4965535,-0.03,-0.06,1.04,2.81,2.01,1.77,915.76,21.88,
4965573,-0.02,-0.06,1.0,2.99,1.46,1.89,915.82,21.9,
4965611,-0.03,-0.06,0.98,2.93,1.4,1.95,915.8,21.9,
4965649,-0.02,-0.06,0.96,2.99,0.79,1.95,915.79,21.89,
4965688,-0.03,-0.06,0.98,2.99,0.43,1.89,915.82,21.9,
4965726,-0.03,-0.06,0.95,2.93,0.67,1.95,915.79,21.9,
4965776,-0.02,-0.06,0.97,3.36,0.24,2.01,915.81,21.89,
4965814,-0.02,-0.06,0.95,3.3,0.12,1.89,915.82,21.89,
4965852,-0.03,-0.06,0.92,3.17,-0.12,2.14,915.84,21.9,
4965891,-0.02,-0.06,0.9,3.17,-0.49,1.89,915.82,21.89,
4965929,-0.02,-0.07,0.87,3.36,-0.67,2.01,915.82,21.89,
4965967,-0.03,-0.07,0.82,3.23,-0.31,2.01,915.83,21.9,
4966006,-0.03,-0.07,0.81,3.3,-0.37,2.08,915.81,21.89,
4966044,-0.02,-0.08,0.8,3.17,-0.12,2.01,915.85,21.89,
4966082,-0.02,-0.07,0.82,3.3,-0.12,2.08,915.79,21.89,
4966121,-0.03,-0.07,0.8,3.05,0.37,2.2,915.88,21.9,
4966198,-0.02,-0.06,0.83,2.87,1.1,2.01,915.82,21.86,
4966236,-0.02,-0.06,0.85,2.87,1.4,1.89,915.79,21.87,
4966274,-0.04,-0.07,0.85,2.56,2.08,1.95,915.88,21.89,
4966364,-0.02,-0.07,0.88,2.2,3.23,1.83,915.83,21.84,
4966403,-0.03,-0.06,0.86,2.01,3.54,2.08,915.85,21.86,
4966441,-0.02,-0.07,0.87,2.01,4.03,1.95,915.89,21.87,
4966479,-0.02,-0.07,0.87,1.83,4.09,2.2,915.88,21.87,
4966518,-0.02,-0.07,0.9,1.83,3.54,1.95,915.85,21.87,
4966556,-0.03,-0.07,0.93,1.71,3.97,2.08,915.9,21.87,
4966594,-0.01,-0.07,0.98,1.71,3.97,2.08,915.87,21.86,
4966644,-0.02,-0.07,1.02,1.34,4.03,2.14,915.9,21.87,
4966682,-0.03,-0.07,1.02,1.22,3.85,2.14,915.83,21.88,
4966721,-0.03,-0.07,1.01,1.1,4.39,2.26,915.9,21.87,
4966759,-0.02,-0.06,1.01,0.67,4.27,2.14,915.95,21.87,
4966797,-0.02,-0.06,1.01,0.85,4.21,2.2,915.93,21.88,
4966836,-0.03,-0.06,1.0,0.73,4.15,2.26,916.0,21.89,
4966874,-0.01,-0.06,1.0,0.92,4.52,2.32,915.96,21.89,
4966912,-0.02,-0.06,1.02,0.79,4.27,2.26,915.95,21.89,
4966951,-0.02,-0.07,1.02,0.85,3.91,2.2,915.91,21.88,
4967001,-0.02,-0.06,1.03,1.16,4.21,2.08,915.95,21.87,
4967039,-0.01,-0.06,1.04,0.92,4.09,2.08,915.91,21.87,
4967077,-0.01,-0.07,1.02,0.79,3.72,2.14,915.98,21.88,
4967115,-0.04,-0.06,1.01,0.61,4.09,2.14,916.0,21.9,
4967154,-0.02,-0.07,1.01,0.43,4.7,2.08,915.94,21.89,
4967192,-0.02,-0.07,1.03,0.61,3.66,2.01,915.94,21.87,
4967230,-0.02,-0.07,1.01,0.67,3.78,2.2,916.0,21.89,
4967269,-0.03,-0.06,0.98,0.61,3.3,2.08,915.96,21.89,
4967307,-0.03,-0.06,1.01,0.49,3.91,2.08,916.0,21.9,
4967345,-0.01,-0.08,0.98,0.49,3.6,2.08,916.0,21.88,
4967395,-0.04,-0.06,1.01,0.67,2.5,2.44,915.99,21.87,
4967433,-0.03,-0.07,0.97,0.67,2.56,2.32,915.99,21.88,
4967472,-0.02,-0.07,0.97,0.67,1.95,2.08,916.06,21.89,
4967510,-0.02,-0.07,0.95,0.67,2.26,2.26,916.0,21.9,
4967548,-0.02,-0.08,0.93,0.85,2.32,2.32,915.99,21.89,
4967587,-0.03,-0.07,0.94,0.85,2.56,2.2,916.05,21.88,
4967625,-0.03,-0.07,0.93,1.1,2.56,2.26,916.02,21.89,
4967663,-0.04,-0.07,0.88,0.79,3.17,2.2,915.97,21.87,
4967701,-0.03,-0.06,0.89,1.22,3.78,2.01,916.04,21.88,
4967751,-0.02,-0.07,0.88,0.85,4.03,2.14,916.03,21.88,
4967790,-0.02,-0.07,0.91,0.98,3.36,2.32,916.03,21.89,
4967828,-0.01,-0.06,0.94,0.73,2.75,2.14,916.04,21.89,
4967866,-0.03,-0.07,0.98,0.79,2.75,2.32,916.11,21.89,
4967904,-0.03,-0.07,0.99,0.67,2.81,2.5,916.05,21.88,
4967943,-0.01,-0.06,1.03,0.67,2.56,2.2,916.1,21.89,
4967981,-0.01,-0.06,1.01,0.73,2.56,2.32,916.12,21.89,
4968019,-0.04,-0.06,1.04,0.79,1.53,2.44,916.07,21.9,
4968057,-0.03,-0.06,1.05,0.98,2.56,2.32,916.12,21.89,
4968096,-0.02,-0.07,1.06,0.98,2.26,2.26,916.13,21.89,
4968146,-0.04,-0.06,1.04,1.16,2.44,2.5,916.13,21.88,
4968184,-0.03,-0.06,1.02,1.53,2.62,2.44,916.14,21.89,
4968222,-0.04,-0.06,1.02,1.46,2.44,2.44,916.15,21.87,
4968261,-0.02,-0.07,1.0,1.77,2.01,2.44,916.18,21.9,
4968299,-0.0,-0.06,0.96,1.83,1.83,2.38,916.16,21.89,
4968337,-0.03,-0.06,0.94,1.83,1.77,2.69,916.18,21.9,
4968375,-0.03,-0.07,0.97,1.77,1.53,2.62,916.14,21.89,
4968414,-0.02,-0.07,0.96,1.83,1.83,2.56,916.19,21.9,
4968452,-0.03,-0.06,0.97,1.77,1.77,2.75,916.22,21.91,
4968490,-0.02,-0.06,0.99,1.95,1.83,2.93,916.2,21.89,
4968540,-0.02,-0.06,0.97,1.77,1.83,2.62,916.22,21.88,
4968578,-0.03,-0.06,1.0,1.77,2.08,2.81,916.18,21.89,
4968617,-0.01,-0.08,0.98,1.53,2.69,2.5,916.2,21.9,
4968655,-0.02,-0.06,1.0,1.95,1.95,2.56,916.22,21.88,
4968693,-0.04,-0.06,0.99,1.77,2.62,2.56,916.24,21.9,
4968731,-0.02,-0.06,0.97,1.77,2.75,2.38,916.26,21.89,
4968770,-0.02,-0.06,1.03,2.01,2.44,2.5,916.28,21.89,
4968808,-0.03,-0.07,0.98,2.01,3.36,2.5,916.29,21.9,
4968846,-0.02,-0.06,1.0,2.26,3.11,2.38,916.29,21.9,
4968896,-0.01,-0.06,0.99,2.08,3.91,2.2,916.25,21.87,
4968935,-0.03,-0.06,1.0,2.08,3.11,2.44,916.25,21.87,
4968973,-0.01,-0.07,1.04,2.26,3.72,2.38,916.31,21.89,
4969011,-0.01,-0.07,1.03,2.32,3.05,2.38,916.26,21.89,
4969049,-0.02,-0.06,1.07,2.69,3.17,2.44,916.29,21.89,
4969088,-0.0,-0.06,1.07,2.87,2.87,2.44,916.26,21.89,
4969126,-0.02,-0.06,1.08,2.69,3.17,2.38,916.36,21.9,
4969164,-0.03,-0.06,1.05,2.44,3.54,2.44,916.32,21.89,
4969203,-0.03,-0.06,1.1,2.99,3.11,2.5,916.31,21.9,
4969241,-0.01,-0.07,1.04,2.5,3.54,2.44,916.29,21.89,
4969317,-0.01,-0.06,1.05,2.56,4.09,2.32,916.34,21.86,
4969355,0.0,-0.06,1.04,2.38,3.78,2.08,916.32,21.87,
4969394,-0.03,-0.05,1.08,2.69,4.15,2.2,916.32,21.88,
4969484,-0.03,-0.07,1.06,2.75,5.0,2.01,916.38,21.84,
4969522,-0.02,-0.07,0.98,2.38,5.19,2.32,916.37,21.85,
4969560,-0.02,-0.05,0.96,2.99,4.39,2.26,916.36,21.86,
4969598,-0.02,-0.07,0.92,2.5,5.25,2.44,916.31,21.85,
4969637,-0.01,-0.07,1.02,3.11,4.09,2.62,916.38,21.87,
4969675,-0.03,-0.07,1.0,2.26,4.39,2.69,916.39,21.87,
4969713,-0.02,-0.04,1.09,2.56,2.81,2.44,916.31,21.87,
4969763,-0.0,-0.08,1.18,2.08,5.13,2.44,916.32,21.87,
4969802,0.03,-0.07,1.3,2.14,3.72,2.56,916.33,21.87,
4969840,-0.04,-0.06,1.27,2.14,4.76,2.5,916.4,21.88,
4969878,-0.05,-0.05,1.17,2.38,5.49,2.5,916.35,21.88,
4969917,-0.02,-0.06,1.24,2.75,6.16,2.5,916.38,21.89,
4969955,-0.02,-0.08,1.09,2.81,7.75,2.2,916.4,21.87,
4969993,-0.04,-0.06,1.01,3.05,8.0,2.08,916.47,21.88,
4970032,-0.01,-0.07,0.97,3.42,9.7,2.08,916.36,21.88,
4970070,-0.0,-0.09,0.93,3.48,9.89,2.08,916.37,21.89,
4970120,-0.0,-0.08,0.91,3.48,9.46,2.14,916.37,21.86,
4970158,-0.01,-0.07,0.87,2.93,9.52,2.08,916.38,21.89,
4970196,-0.01,-0.07,0.87,2.62,8.48,2.14,916.39,21.89,
4970235,0.02,-0.08,0.88,2.14,7.93,1.65,916.37,21.88,
4970273,-0.01,-0.08,0.89,1.53,7.2,1.77,916.33,21.88,
4970311,0.02,-0.08,0.92,1.34,6.77,1.83,916.4,21.89,
4970350,-0.0,-0.07,0.92,0.79,6.59,1.59,916.37,21.88,
4970388,-0.0,-0.07,0.92,0.98,6.1,1.53,916.42,21.88,
4970426,-0.0,-0.07,0.92,0.31,5.31,1.22,916.4,21.88,
4970464,0.01,-0.08,0.91,0.24,4.64,1.16,916.44,21.89,
4970514,-0.0,-0.06,0.9,0.18,3.91,1.22,916.43,21.89,
4970553,0.01,-0.07,0.89,0.12,3.54,0.98,916.41,21.88,
4970591,0.02,-0.07,0.91,0.24,1.83,0.85,916.41,21.89,
4970629,-0.0,-0.08,0.9,0.24,1.59,0.92,916.46,21.89,
4970667,0.01,-0.08,0.92,0.37,0.85,0.79,916.37,21.89,
4970706,0.01,-0.08,0.91,0.67,0.67,0.43,916.45,21.9,
4970744,0.02,-0.06,0.91,0.67,-0.43,0.43,916.45,21.9,
4970782,0.01,-0.07,0.9,0.55,-0.79,0.31,916.45,21.89,
4970821,0.02,-0.08,0.95,0.43,-0.43,-0.06,916.43,21.89,
4970859,0.01,-0.07,0.98,0.55,0.0,-0.06,916.47,21.89,
4970909,-0.0,-0.07,0.99,0.79,0.06,-0.18,916.43,21.88,
4970947,-0.0,-0.08,1.03,0.98,0.55,-0.43,916.48,21.89,
4970985,0.02,-0.08,0.99,0.98,0.85,-0.67,916.49,21.89,
4971024,-0.0,-0.06,1.02,1.4,0.55,-0.98,916.52,21.89,
4971062,0.01,-0.07,0.98,1.1,1.4,-1.04,916.44,21.89,
4971100,0.02,-0.07,1.02,1.34,0.61,-1.28,916.5,21.89,
4971139,0.01,-0.08,1.03,1.4,0.37,-1.46,916.48,21.89,
4971177,0.01,-0.08,1.02,1.34,0.49,-1.65,916.5,21.89,
4971215,-0.01,-0.06,1.03,1.28,0.92,-1.71,916.53,21.89,
4971253,-0.0,-0.07,1.02,1.53,0.67,-1.65,916.43,21.9,
4971304,-0.01,-0.08,1.02,1.71,0.24,-1.95,916.49,21.89,
4971342,-0.02,-0.07,1.05,1.77,0.24,-2.14,916.49,21.89,
4971380,-0.02,-0.07,1.09,2.14,1.28,-2.2,916.55,21.89,
4971419,0.01,-0.06,1.14,1.89,1.46,-2.44,916.47,21.89,
4971457,-0.02,-0.07,1.24,2.14,1.53,-2.5,916.49,21.9,
4971495,-0.02,-0.08,1.19,1.53,3.23,-2.5,916.51,21.89,
4971533,-0.03,-0.05,1.34,1.83,3.3,-2.69,916.49,21.89,
4971572,-0.01,-0.05,1.33,1.04,4.94,-2.93,916.54,21.9,
4971610,-0.06,-0.04,1.39,1.77,2.81,-2.87,916.49,21.9,
4971660,-0.04,-0.08,1.32,1.46,5.07,-2.62,916.48,21.87,
4971698,-0.01,-0.05,1.31,1.89,3.42,-2.81,916.53,21.89,
4971737,-0.04,-0.05,1.22,2.01,4.39,-2.5,916.51,21.89,
4971775,-0.03,-0.07,1.12,1.71,3.85,-2.44,916.55,21.9,
4971813,-0.04,-0.06,1.12,2.2,3.85,-2.5,916.55,21.89,
4971851,-0.04,-0.07,1.02,1.95,4.39,-2.44,916.53,21.89,
4971890,-0.05,-0.07,1.0,2.08,4.27,-2.56,916.51,21.89,
4971928,-0.04,-0.07,0.94,1.46,5.13,-2.69,916.44,21.89,
4971966,-0.05,-0.07,0.95,1.4,5.68,-2.81,916.49,21.89,
4972017,-0.05,-0.07,0.98,0.67,6.65,-2.44,916.47,21.88,
4972055,-0.05,-0.09,0.96,0.55,6.41,-2.32,916.46,21.9,
4972093,-0.06,-0.07,0.97,0.37,5.86,-2.44,916.46,21.89,
4972131,-0.07,-0.06,0.99,0.31,6.77,-2.08,916.42,21.88,
4972170,-0.06,-0.07,0.95,0.12,7.14,-2.2,916.46,21.89,
4972208,-0.05,-0.07,0.99,0.24,6.35,-2.14,916.44,21.89,
4972246,-0.08,-0.06,1.0,0.61,6.47,-1.77,916.45,21.88,
4972285,-0.04,-0.07,0.97,0.67,6.53,-1.46,916.45,21.89,
4972323,-0.07,-0.06,0.98,0.43,5.92,-1.59,916.4,21.89,
4972361,-0.08,-0.06,1.0,0.37,5.13,-1.04,916.44,21.89,
4972437,-0.05,-0.05,1.13,0.18,3.05,-0.79,916.44,21.85,
4972476,-0.05,-0.06,1.14,-0.61,3.11,-0.49,916.45,21.87,
4972514,-0.04,-0.04,1.2,-0.06,1.04,-0.24,916.45,21.88,
4972604,-0.05,-0.05,1.18,0.61,1.28,-0.06,916.47,21.84,
4972642,-0.05,-0.03,1.19,1.28,2.08,-0.18,916.43,21.86,
4972681,-0.06,-0.05,1.15,1.59,1.22,0.0,916.43,21.86,
4972719,-0.06,-0.05,1.2,2.01,0.18,-0.06,916.41,21.85,
4972757,-0.04,-0.06,1.18,1.83,1.22,0.12,916.37,21.86,
4972795,-0.03,-0.04,1.22,1.95,0.55,0.06,916.35,21.86,
4972846,-0.04,-0.04,1.23,1.28,-0.43,0.43,916.37,21.86,
4972884,-0.05,-0.03,1.28,1.04,-0.12,0.18,916.39,21.86,
4972922,-0.02,-0.03,1.32,0.85,0.12,0.18,916.38,21.87,
4972960,-0.04,-0.04,1.24,0.61,0.18,0.12,916.38,21.86,
4972999,-0.09,-0.04,1.3,1.04,0.73,0.12,916.39,21.88,
4973037,-0.04,-0.08,1.19,0.85,3.36,-0.06,916.37,21.88,
4973075,-0.04,-0.05,1.21,1.28,0.67,0.12,916.33,21.88,
4973114,-0.06,-0.05,1.11,1.04,1.28,0.31,916.35,21.89,
4973152,-0.03,-0.05,1.06,0.73,1.1,0.06,916.37,21.89,
4973190,-0.07,-0.05,1.11,0.79,1.22,0.31,916.31,21.88,
4973240,-0.06,-0.07,1.05,0.18,-0.37,0.55,916.27,21.86,
4973279,-0.1,-0.06,1.08,0.37,-0.24,0.79,916.34,21.89,
4973317,-0.07,-0.07,1.01,-0.06,0.67,0.98,916.31,21.89,
4973355,-0.05,-0.06,1.05,0.43,-0.67,1.16,916.31,21.88,
4973394,-0.06,-0.07,1.0,0.06,-1.16,1.4,916.29,21.88,
4973432,-0.07,-0.06,1.0,0.43,-1.22,1.71,916.34,21.89,
4973470,-0.07,-0.05,1.0,-0.24,-0.98,2.01,916.34,21.89,
4973508,-0.06,-0.06,1.0,-0.31,-1.22,2.2,916.32,21.89,
4973547,-0.07,-0.07,1.04,-0.37,-1.77,2.44,916.32,21.88,
4973585,-0.05,-0.07,1.05,-0.43,-1.46,2.5,916.33,21.9,
4973635,-0.04,-0.06,1.08,-0.12,-0.98,2.56,916.25,21.87,
4973674,-0.06,-0.06,0.99,0.31,0.31,2.62,916.33,21.89,
4973712,-0.06,-0.06,1.04,0.61,0.92,2.62,916.3,21.88,
4973750,-0.06,-0.08,1.01,0.73,2.56,2.69,916.28,21.89,
4973789,-0.08,-0.07,0.95,1.04,3.91,2.62,916.27,21.9,
4973827,-0.05,-0.05,1.03,1.71,3.91,2.87,916.21,21.9,
4973865,-0.04,-0.08,0.99,1.4,3.91,3.05,916.24,21.89,
4973903,-0.06,-0.06,0.99,1.53,3.11,3.17,916.19,21.88,
4973942,-0.07,-0.07,1.0,1.95,4.64,3.42,916.31,21.9,
4973992,-0.05,-0.05,0.98,2.01,2.75,3.72,916.26,21.88,
4974030,-0.06,-0.06,1.0,2.75,2.14,3.66,916.31,21.9,
4974069,-0.08,-0.09,0.9,2.32,3.17,3.91,916.22,21.89,
4974107,-0.06,-0.06,0.96,2.5,3.05,3.97,916.2,21.91,
4974145,-0.05,-0.06,0.95,2.2,3.11,4.27,916.21,21.9,
4974183,-0.06,-0.06,0.97,2.44,1.89,4.58,916.18,21.89,
4974222,-0.07,-0.07,0.96,2.01,2.69,4.7,916.16,21.89,
4974260,-0.05,-0.07,0.97,2.2,2.2,4.7,916.2,21.9,
4974298,-0.05,-0.06,0.98,2.32,2.08,5.07,916.17,21.9,
4974337,-0.05,-0.05,0.95,2.38,1.65,5.07,916.2,21.91,
4974387,-0.04,-0.06,0.94,2.5,2.44,5.43,916.25,21.89,
4974425,-0.05,-0.07,0.93,2.56,2.01,5.31,916.14,21.89,
4974463,-0.06,-0.06,0.91,2.75,1.95,5.49,916.23,21.9,
4974501,-0.06,-0.06,0.89,2.56,2.44,5.43,916.18,21.9,
4974540,-0.05,-0.06,0.91,2.81,3.05,5.43,916.2,21.9,
4974578,-0.03,-0.07,0.9,2.69,2.87,5.43,916.15,21.9,
4974616,-0.04,-0.07,0.92,2.56,3.11,5.8,916.17,21.9,
4974655,-0.04,-0.07,0.9,2.69,4.03,5.98,916.16,21.9,
4974693,-0.04,-0.06,0.91,2.5,3.91,5.8,916.19,21.91,
4974743,-0.04,-0.06,0.89,2.44,4.03,5.92,916.19,21.88,
4974781,-0.03,-0.06,0.93,2.5,3.66,5.68,916.2,21.89,
4974819,-0.02,-0.06,0.94,2.26,3.54,5.74,916.21,21.9,
4974858,-0.02,-0.06,0.94,2.5,3.48,5.74,916.18,21.9,
4974896,-0.02,-0.06,0.97,2.5,3.36,5.92,916.16,21.9,
4974934,-0.01,-0.07,0.96,2.44,3.85,5.8,916.18,21.89,
4974973,-0.02,-0.07,0.95,2.5,3.05,5.74,916.18,21.92,
4975011,-0.02,-0.07,0.96,2.44,2.75,5.62,916.23,21.9,
4975049,-0.01,-0.07,0.94,2.38,3.3,5.55,916.21,21.91,
4975087,0.01,-0.06,0.97,2.08,3.23,5.49,916.2,21.91,
4975137,0.01,-0.06,1.0,2.26,2.75,5.62,916.19,21.89,
4975176,0.0,-0.07,1.0,2.26,2.2,5.37,916.22,21.9,
4975214,-0.0,-0.07,1.02,2.08,2.08,5.19,916.19,21.9,
4975252,0.0,-0.07,1.04,2.26,1.4,5.19,916.2,21.9,
4975290,-0.0,-0.06,1.01,1.95,1.28,5.0,916.18,21.9,
4975329,0.01,-0.06,1.02,2.01,0.79,4.82,916.19,21.92,
4975367,0.01,-0.06,1.01,1.89,1.34,4.46,916.19,21.9,
4975405,-0.0,-0.07,0.97,1.89,1.16,4.46,916.15,21.91,
4975444,0.0,-0.06,0.99,2.08,1.22,4.52,916.11,21.9,
4975482,0.02,-0.06,1.0,2.14,1.53,4.15,916.11,21.9,
4975558,0.01,-0.06,0.98,2.26,0.73,3.6,916.15,21.87,
4975596,0.01,-0.07,0.97,2.14,1.46,3.36,916.18,21.91,
4975635,0.01,-0.06,0.94,2.2,1.28,3.17,916.11,21.89,
4975725,0.0,-0.07,0.9,2.2,1.83,2.81,916.1,21.85,
4975763,0.0,-0.06,0.95,2.38,1.77,2.38,916.13,21.86,
4975801,-0.0,-0.06,0.91,2.32,2.56,2.26,916.16,21.87,
4975839,-0.0,-0.06,0.94,2.2,2.14,2.14,916.1,21.87,
4975878,0.0,-0.06,0.93,2.14,2.93,2.01,916.06,21.89,
4975916,0.0,-0.06,0.9,2.26,3.11,1.71,916.1,21.89,
4975954,-0.0,-0.06,0.93,2.32,3.42,1.65,916.08,21.89,
4976004,0.01,-0.06,0.93,2.32,3.72,1.4,916.1,21.87,
4976043,0.0,-0.06,0.97,2.5,3.6,1.16,916.04,21.89,
4976081,0.0,-0.06,0.98,2.56,3.6,1.22,916.07,21.87,
4976119,0.01,-0.06,0.99,2.62,3.3,0.92,916.03,21.9,
4976157,-0.0,-0.06,0.97,2.32,3.11,0.92,916.06,21.9,
4976196,-0.01,-0.06,0.96,2.44,2.75,0.73,916.03,21.9,
4976234,-0.0,-0.06,0.95,2.32,3.23,0.43,916.03,21.9,
4976272,-0.01,-0.06,0.94,2.44,2.56,0.43,916.07,21.9,
4976311,-0.0,-0.06,0.96,2.38,2.99,0.49,916.03,21.9,
4976361,-0.01,-0.06,0.96,2.5,2.81,0.37,916.04,21.89,
4976399,-0.01,-0.06,0.97,2.2,2.87,0.31,916.09,21.89,
4976437,-0.01,-0.06,0.96,2.32,3.17,0.24,916.07,21.9,
4976475,-0.0,-0.06,0.97,2.44,3.23,0.12,916.05,21.89,
4976514,-0.01,-0.07,0.96,2.32,3.36,0.12,916.03,21.9,
4976552,-0.01,-0.06,0.96,2.75,3.05,0.18,916.07,21.89,
4976590,-0.01,-0.06,0.96,2.75,2.99,0.12,916.01,21.9,
4976628,-0.01,-0.06,0.97,2.75,2.2,0.06,916.04,21.89,
4976667,-0.01,-0.06,0.98,2.69,2.38,-0.06,916.01,21.9,
4976705,-0.01,-0.06,0.96,2.81,2.44,-0.06,916.03,21.89,
4976755,-0.01,-0.05,0.96,2.81,2.26,-0.18,916.01,21.88,
4976793,-0.02,-0.06,0.93,2.69,2.87,-0.24,915.97,21.87,
4976831,-0.01,-0.06,0.91,2.69,2.99,-0.43,916.03,21.89,
4976870,-0.01,-0.06,0.92,2.38,3.17,-0.37,916.01,21.89,
4976908,-0.01,-0.06,0.91,2.32,3.11,-0.49,915.99,21.88,
4976946,-0.02,-0.06,0.92,2.2,3.42,-0.55,915.99,21.88,
4976984,-0.01,-0.06,0.91,2.08,3.23,-0.67,915.96,21.88,
4977023,-0.01,-0.06,0.93,2.08,3.11,-0.73,915.99,21.89,
4977061,-0.02,-0.06,0.92,2.14,2.81,-0.73,916.01,21.89,
4977099,-0.02,-0.06,0.93,2.01,2.87,-0.79,915.96,21.88,
4977149,-0.01,-0.06,0.94,2.26,2.81,-0.67,915.95,21.86,
4977188,-0.02,-0.06,0.93,2.26,2.5,-0.85,916.02,21.87,
4977226,-0.02,-0.05,0.95,2.32,2.87,-0.92,915.98,21.87,
4977264,-0.02,-0.06,0.93,2.38,3.11,-0.85,915.96,21.88,
4977302,-0.02,-0.05,0.95,2.62,2.99,-0.85,915.98,21.89,
4977341,-0.02,-0.05,0.94,2.75,3.42,-0.73,915.97,21.87,
4977379,-0.03,-0.05,0.96,2.99,3.17,-0.85,915.95,21.9,
4977417,-0.03,-0.06,0.96,3.48,3.78,-0.79,915.95,21.88,
4977456,-0.03,-0.05,0.97,3.78,3.48,-0.79,915.96,21.89,
4977506,-0.03,-0.06,0.95,3.97,4.03,-0.79,916.0,21.88,
4977544,-0.03,-0.06,0.95,4.33,4.21,-0.79,915.93,21.88,
4977582,-0.04,-0.06,0.93,4.21,4.46,-0.98,915.93,21.88,
4977620,-0.04,-0.06,0.91,4.09,4.46,-0.73,915.93,21.87,
4977659,-0.04,-0.06,0.9,4.15,4.52,-0.73,915.9,21.87,
4977697,-0.03,-0.06,0.87,3.91,4.39,-0.61,915.95,21.89,
4977735,-0.03,-0.06,0.85,3.97,4.33,-0.73,915.96,21.89,
4977773,-0.04,-0.06,0.84,3.85,4.39,-0.37,915.94,21.87,
4977812,-0.03,-0.06,0.86,3.85,4.21,-0.43,915.95,21.88,
4977862,-0.04,-0.05,0.86,3.48,4.15,-0.37,915.92,21.87,
4977900,-0.04,-0.05,0.87,3.36,4.21,-0.24,915.94,21.89,
4977938,-0.03,-0.06,0.85,2.93,4.46,-0.24,915.89,21.87,
4977977,-0.04,-0.05,0.89,2.87,4.21,-0.24,915.97,21.88,
4978015,-0.03,-0.06,0.91,2.69,5.07,0.0,915.96,21.89,
4978053,-0.03,-0.06,0.9,2.5,4.58,-0.06,915.92,21.88,
4978091,-0.04,-0.05,0.94,2.38,4.76,-0.18,915.94,21.88,
4978130,-0.03,-0.06,0.95,2.14,5.07,-0.06,915.92,21.89,
4978168,-0.03,-0.05,0.97,2.08,4.76,-0.06,915.91,21.89,
4978206,-0.02,-0.05,0.99,1.71,5.07,0.0,915.92,21.9,
4978256,-0.03,-0.05,0.99,2.01,5.37,-0.06,915.93,21.88,
4978295,-0.03,-0.05,1.02,2.14,5.19,0.12,915.93,21.89,
4978333,-0.03,-0.05,1.04,2.01,5.31,0.12,915.95,21.88,
4978371,-0.03,-0.05,1.07,2.2,5.07,0.12,915.9,21.9,
4978410,-0.02,-0.05,1.06,2.26,4.94,0.24,915.92,21.89,
4978448,-0.02,-0.05,1.07,2.26,4.76,0.24,915.94,21.89,
4978486,-0.03,-0.04,1.09,2.44,4.82,0.31,915.85,21.89,
4978524,-0.03,-0.04,1.09,2.56,4.58,0.24,915.93,21.9,
4978563,-0.04,-0.04,1.11,2.69,4.21,0.37,915.91,21.91,
4978601,-0.04,-0.05,1.09,2.75,4.15,0.37,915.85,21.89,
4978677,-0.03,-0.05,1.07,2.62,4.03,0.49,915.84,21.87,
4978715,-0.03,-0.04,1.09,2.75,3.48,0.43,915.84,21.87,
4978754,-0.03,-0.05,1.08,2.56,4.15,0.37,915.84,21.89,
4978844,-0.04,-0.05,1.08,2.75,3.66,0.61,915.78,21.85,
4978882,-0.04,-0.05,1.08,3.05,2.75,0.49,915.84,21.87,
4978920,-0.03,-0.05,1.08,2.81,2.14,0.43,915.87,21.87,
4978958,-0.05,-0.06,1.04,2.93,1.46,0.55,915.85,21.87,
4978997,-0.04,-0.05,1.05,2.93,1.04,0.61,915.85,21.87,
4979035,-0.04,-0.06,1.02,2.81,1.1,0.67,915.81,21.88,
4979085,-0.05,-0.05,0.95,2.75,0.12,0.73,915.8,21.87,
4979123,-0.05,-0.05,0.94,2.93,-0.37,0.92,915.89,21.88,
4979162,-0.05,-0.07,0.88,2.62,-0.18,0.85,915.78,21.87,
4979200,-0.05,-0.06,0.87,2.69,-1.04,0.92,915.85,21.88,
4979238,-0.05,-0.06,0.87,2.81,-0.37,1.16,915.84,21.88,
4979276,-0.07,-0.06,0.82,2.38,-0.61,0.85,915.82,21.88,
4979315,-0.07,-0.05,0.86,2.69,-0.67,1.4,915.81,21.89,
4979353,-0.05,-0.07,0.87,2.32,-0.37,1.34,915.84,21.88,
4979391,-0.05,-0.06,0.9,2.08,-0.31,1.34,915.78,21.89,
4979430,-0.07,-0.06,0.88,1.83,0.49,1.59,915.87,21.89,
4979480,-0.05,-0.06,0.91,1.83,1.22,1.71,915.79,21.88,
4979518,-0.06,-0.06,0.93,1.59,2.01,1.59,915.86,21.88,
4979556,-0.07,-0.06,0.94,1.65,2.26,1.89,915.86,21.89,
4979594,-0.07,-0.06,0.9,1.4,3.54,1.95,915.83,21.9,
4979632,-0.05,-0.05,0.92,1.71,3.6,1.83,915.79,21.89,
4979671,-0.05,-0.05,0.92,1.89,3.78,2.08,915.85,21.9,
4979709,-0.06,-0.06,0.91,1.77,3.85,2.2,915.85,21.9,
4979747,-0.06,-0.07,0.93,2.14,3.97,2.38,915.83,21.89,
4979786,-0.06,-0.06,0.91,2.08,3.78,2.38,915.87,21.9,
4979836,-0.07,-0.05,0.88,2.32,3.54,2.87,915.9,21.89,
4979874,-0.06,-0.06,0.92,2.26,3.3,2.99,915.82,21.9,
4979912,-0.04,-0.06,0.9,2.08,3.11,3.11,915.87,21.89,
4979950,-0.06,-0.06,0.92,2.5,2.56,3.23,915.86,21.9,
4979989,-0.05,-0.06,0.89,2.01,2.56,3.17,915.81,21.89,
4980027,-0.06,-0.05,0.93,2.2,2.08,3.36,915.82,21.89,
4980065,-0.05,-0.06,0.95,1.95,2.5,3.78,915.86,21.9,
4980104,-0.03,-0.06,0.95,1.77,2.32,3.6,915.87,21.9,
4980142,-0.05,-0.05,0.98,1.65,2.5,3.91,915.82,21.91,
4980180,-0.05,-0.06,0.96,1.34,2.01,4.03,915.84,21.9,
4980230,-0.05,-0.05,0.96,1.46,2.14,4.03,915.85,21.9,
4980268,-0.05,-0.06,0.96,1.59,1.89,4.03,915.9,21.9,
4980307,-0.04,-0.06,0.98,1.71,2.01,4.21,915.88,21.91,
4980345,-0.03,-0.05,0.99,1.71,2.01,4.27,915.83,21.89,
4980383,-0.04,-0.06,0.99,1.89,1.83,4.09,915.85,21.9,
4980421,-0.05,-0.06,0.98,1.83,2.26,4.33,915.93,21.91,
4980460,-0.05,-0.06,1.0,2.08,2.2,4.39,915.92,21.91,
4980498,-0.05,-0.06,0.98,2.08,2.14,4.52,915.92,21.91,
4980536,-0.04,-0.06,0.99,2.08,2.08,4.33,915.91,21.9,
4980574,-0.03,-0.07,0.94,1.71,2.87,4.52,915.93,21.9,
4980624,-0.03,-0.05,0.99,1.83,1.95,4.58,915.95,21.89,
4980663,-0.05,-0.07,0.94,1.65,2.62,4.94,915.94,21.91,
4980701,-0.03,-0.05,0.98,1.53,2.14,4.7,915.97,21.91,
4980739,-0.02,-0.06,1.0,1.53,2.32,4.64,915.96,21.91,
4980777,-0.02,-0.06,0.99,1.16,1.65,4.76,916.01,21.9,
4980816,-0.02,-0.06,1.01,1.4,1.77,4.76,915.98,21.9,
4980854,-0.01,-0.06,0.96,0.79,2.2,4.64,915.99,21.91,
4980892,-0.01,-0.05,1.01,1.22,2.26,4.58,916.01,21.91,
4980930,-0.02,-0.07,0.98,0.85,2.5,4.52,915.97,21.9,
4980980,-0.02,-0.06,1.05,1.16,2.08,4.15,916.01,21.9,
4981019,-0.01,-0.06,1.05,0.85,3.17,4.09,916.06,21.9,
4981057,-0.01,-0.06,1.07,1.22,2.75,4.03,916.01,21.89,
4981095,-0.01,-0.06,1.03,0.92,3.6,3.85,916.02,21.9,
4981134,-0.01,-0.05,1.04,0.79,3.78,3.91,915.98,21.9,
4981172,-0.01,-0.07,1.05,1.34,3.91,3.78,916.04,21.89,
4981210,-0.01,-0.07,1.0,1.22,4.03,3.66,916.0,21.91,
4981248,-0.01,-0.06,1.04,1.16,4.21,3.48,916.01,21.89,
4981286,0.0,-0.06,1.05,1.1,4.52,3.17,916.03,21.91,
4981325,-0.02,-0.07,1.03,1.04,4.46,3.3,916.0,21.91,
4981375,-0.01,-0.07,1.06,1.16,4.94,3.17,916.0,21.88,
4981413,-0.01,-0.06,1.04,0.98,4.27,2.93,915.96,21.9,
4981451,-0.0,-0.05,1.11,0.98,3.48,3.05,916.0,21.89,
4981490,-0.01,-0.07,1.05,0.55,3.42,2.93,915.99,21.9,
4981528,-0.02,-0.06,1.07,0.79,2.75,2.93,916.04,21.91,
4981566,-0.0,-0.06,1.06,0.43,2.62,2.93,916.03,21.92,
4981604,-0.01,-0.06,1.06,0.37,1.83,2.56,916.06,21.91,
4981643,-0.01,-0.06,1.06,0.37,2.08,2.69,916.01,21.9,
4981681,-0.01,-0.06,1.08,0.43,1.95,2.32,916.01,21.89,
4981719,-0.01,-0.07,1.08,0.49,2.08,2.38,915.97,21.9,
4981795,-0.01,-0.06,1.09,0.43,2.14,2.14,916.03,21.88,
4981834,-0.0,-0.07,1.08,0.43,1.83,1.83,915.98,21.87,
4981872,-0.01,-0.07,1.07,0.06,2.14,1.77,916.0,21.9,
4981962,-0.01,-0.06,1.1,0.24,1.28,1.83,916.01,21.85,
4982000,-0.02,-0.06,1.1,-0.12,1.59,1.53,916.05,21.87,
4982038,-0.01,-0.06,1.11,-0.06,1.46,1.59,916.0,21.87,
4982077,-0.01,-0.06,1.12,0.0,1.71,1.46,916.01,21.89,
4982115,-0.01,-0.06,1.11,0.06,1.59,1.28,916.01,21.88,
4982153,-0.02,-0.06,1.11,0.12,1.77,1.4,916.02,21.88,
4982203,-0.01,-0.06,1.09,0.06,1.1,1.16,916.01,21.88,
4982241,-0.02,-0.06,1.1,0.12,1.53,1.1,915.98,21.88,
4982280,-0.01,-0.06,1.12,-0.24,1.53,0.98,916.02,21.89,
4982318,-0.01,-0.06,1.17,-0.12,1.1,0.85,915.98,21.89,
4982356,-0.01,-0.05,1.14,-0.43,1.4,0.85,915.98,21.88,
4982394,-0.01,-0.05,1.21,0.0,0.92,0.79,916.02,21.89,
4982433,-0.01,-0.05,1.18,-0.24,2.08,0.85,916.03,21.9,
4982471,-0.01,-0.04,1.26,0.73,0.73,0.79,916.04,21.9,
4982509,-0.01,-0.07,1.18,0.31,1.71,0.61,916.0,21.89,
4982547,-0.03,-0.05,1.21,0.79,1.1,0.55,916.01,21.9,
4982597,-0.01,-0.06,1.15,0.49,1.34,0.67,915.99,21.88,
4982636,-0.01,-0.05,1.17,1.1,0.55,0.49,915.98,21.88,
4982674,-0.01,-0.06,1.15,0.79,1.04,0.49,915.96,21.89,
4982712,-0.02,-0.05,1.15,1.16,0.18,0.61,915.98,21.89,
4982750,-0.03,-0.06,1.15,1.34,0.12,0.67,915.98,21.89,
4982789,-0.02,-0.07,1.14,1.16,-0.31,0.67,915.93,21.88,
4982827,-0.02,-0.05,1.15,1.34,-0.43,0.73,916.0,21.89,
4982865,-0.01,-0.06,1.12,1.46,-0.43,0.55,915.89,21.87,
4982904,-0.02,-0.06,1.09,1.34,-0.06,0.67,915.94,21.89,
4982942,-0.01,-0.06,1.09,1.34,0.18,0.55,915.95,21.89,
4982992,-0.03,-0.05,1.09,1.65,0.49,0.67,915.92,21.87,
4983030,-0.02,-0.06,1.09,1.65,0.85,0.49,915.95,21.88,
4983069,-0.03,-0.06,1.09,1.83,1.46,0.43,915.89,21.89,
4983107,-0.03,-0.06,1.06,1.65,2.38,0.67,915.95,21.9,
4983145,-0.02,-0.06,1.09,2.08,2.44,0.43,915.92,21.9,
4983183,-0.02,-0.06,1.08,1.71,2.81,0.49,915.89,21.88,
4983222,-0.02,-0.06,1.06,1.77,2.81,0.49,915.87,21.89,
4983260,-0.03,-0.05,1.06,1.59,3.42,0.49,915.87,21.89,
4983298,-0.03,-0.06,1.04,1.59,3.36,0.61,915.83,21.9,
4983348,-0.03,-0.05,1.07,1.53,3.42,0.73,915.85,21.88,
4983386,-0.03,-0.05,1.07,1.77,3.17,0.73,915.82,21.89,
4983425,-0.01,-0.06,1.08,1.89,2.93,0.85,915.88,21.9,
4983463,-0.02,-0.05,1.06,1.65,2.87,0.92,915.88,21.9,
4983501,-0.02,-0.06,1.05,2.01,2.93,0.92,915.79,21.89,
4983539,-0.03,-0.06,1.03,2.01,3.3,0.92,915.85,21.89,
4983578,-0.02,-0.05,1.03,2.08,3.6,1.04,915.83,21.88,
4983616,-0.01,-0.05,1.02,1.95,3.85,0.85,915.8,21.89,
4983654,-0.01,-0.05,1.04,2.08,3.36,0.98,915.85,21.89,
4983692,-0.02,-0.06,1.0,1.89,3.85,0.98,915.82,21.88,
4983742,-0.02,-0.06,1.03,2.26,4.21,0.98,915.76,21.87,
4983781,-0.02,-0.06,0.98,2.08,4.52,0.92,915.76,21.87,
4983819,-0.03,-0.05,1.0,2.5,4.33,0.85,915.8,21.88,
4983857,-0.01,-0.06,0.96,2.38,5.19,0.98,915.76,21.87,
4983896,-0.02,-0.05,0.98,2.5,4.76,0.92,915.79,21.88,
4983934,-0.02,-0.06,0.95,2.38,5.07,1.04,915.74,21.87,
4983972,-0.03,-0.06,0.95,2.5,5.0,0.98,915.69,21.88,
4984010,-0.01,-0.06,0.97,2.69,5.68,1.04,915.72,21.88,
4984049,-0.01,-0.06,0.95,2.62,5.19,0.92,915.75,21.88,
4984087,-0.03,-0.06,0.95,2.93,5.31,1.22,915.7,21.87,
4984137,-0.01,-0.05,0.92,2.75,5.74,1.04,915.7,21.87,
4984175,-0.02,-0.05,0.95,2.81,5.98,0.92,915.7,21.88,
4984214,-0.02,-0.06,0.92,2.75,5.62,1.1,915.63,21.87,
4984252,-0.03,-0.06,0.96,3.17,5.25,1.04,915.68,21.87,
4984290,-0.02,-0.06,0.94,2.69,5.49,1.04,915.63,21.87,
4984329,-0.02,-0.05,0.98,2.93,4.58,1.16,915.62,21.88,
4984367,-0.02,-0.06,0.94,2.81,5.0,1.1,915.64,21.88,
4984405,-0.02,-0.05,0.98,2.87,4.33,1.16,915.62,21.89,
4984444,-0.01,-0.06,0.97,2.87,4.46,1.1,915.64,21.9,
4984493,-0.01,-0.05,0.94,2.81,3.66,1.04,915.58,21.87,
4984532,-0.02,-0.05,0.93,2.69,3.72,1.34,915.62,21.89,
4984570,-0.02,-0.06,0.92,2.87,3.11,0.98,915.57,21.89,
4984608,-0.01,-0.06,0.94,2.75,3.17,1.1,915.57,21.87,
4984647,-0.02,-0.05,0.93,2.75,2.75,1.04,915.56,21.88,
4984685,-0.02,-0.06,0.94,2.62,3.11,0.98,915.55,21.89,
4984723,-0.02,-0.06,0.94,2.62,3.66,1.04,915.55,21.89,
4984761,-0.02,-0.06,0.96,2.62,3.3,0.85,915.5,21.89,
4984800,-0.02,-0.06,0.94,2.75,3.78,0.73,915.55,21.89,
4984838,-0.02,-0.05,0.93,2.56,3.78,0.73,915.53,21.89,
4984914,-0.02,-0.05,0.89,2.38,3.36,0.67,915.52,21.86,
4984952,-0.03,-0.05,0.91,2.62,3.72,0.79,915.49,21.87,
4984991,-0.02,-0.06,0.91,2.2,4.39,0.73,915.46,21.87,
4985153,-0.0,-0.06,0.92,2.14,4.33,0.73,915.46,21.82,
4985191,-0.02,-0.06,0.88,2.01,3.91,0.73,915.49,21.84,
4985229,-0.03,-0.06,0.87,2.08,4.46,0.79,915.44,21.84,
4985268,-0.0,-0.05,0.9,2.38,4.46,0.61,915.48,21.86,
4985306,-0.01,-0.06,0.88,2.32,4.46,0.61,915.45,21.86,
4985344,-0.01,-0.06,0.89,2.2,4.15,0.61,915.48,21.86,
4985382,-0.02,-0.06,0.89,2.56,3.85,0.55,915.46,21.85,
4985432,-0.01,-0.06,0.86,2.5,4.15,0.49,915.4,21.84,
4985470,-0.02,-0.06,0.85,2.38,4.21,0.24,915.44,21.86,
4985509,-0.01,-0.06,0.83,2.14,4.15,0.24,915.47,21.86,
4985547,-0.0,-0.05,0.9,2.32,4.09,0.0,915.4,21.86,
4985585,-0.0,-0.06,0.84,1.89,4.52,0.12,915.4,21.87,
4985623,-0.01,-0.05,0.94,2.32,3.66,-0.06,915.39,21.87,
4985662,-0.01,-0.06,0.91,1.71,4.46,-0.18,915.38,21.87,
4985700,-0.01,-0.06,0.95,1.89,4.15,-0.31,915.39,21.87,
4985738,-0.02,-0.05,0.95,1.83,4.88,-0.24,915.36,21.86,
4985788,-0.02,-0.06,0.97,2.01,4.76,-0.31,915.38,21.86,
4985827,-0.02,-0.06,0.95,1.83,4.76,-0.49,915.34,21.87,
4985865,-0.01,-0.05,0.97,1.89,4.39,-0.73,915.38,21.87,
4985903,-0.02,-0.06,0.94,2.08,4.58,-0.55,915.38,21.89,
4985941,-0.01,-0.05,0.97,1.95,3.78,-0.61,915.39,21.89,
4985980,-0.01,-0.07,0.97,2.08,3.72,-0.79,915.35,21.89,
4986018,-0.01,-0.06,1.0,2.32,2.87,-0.73,915.36,21.89,
4986056,-0.03,-0.06,0.95,1.89,2.99,-0.73,915.34,21.88,
4986095,-0.02,-0.05,1.02,2.26,2.5,-0.79,915.32,21.89,
4986133,-0.01,-0.05,1.06,2.14,2.26,-0.98,915.29,21.89,
4986183,-0.01,-0.05,1.08,2.26,1.04,-1.04,915.32,21.87,
4986221,-0.03,-0.06,1.06,2.32,2.81,-0.98,915.3,21.88,
4986259,-0.01,-0.07,0.96,1.95,2.93,-1.1,915.35,21.88,
4986298,-0.02,-0.05,0.96,2.08,2.44,-1.1,915.35,21.89,
4986336,-0.01,-0.07,0.8,1.77,2.69,-1.16,915.31,21.88,
4986374,-0.01,-0.06,0.79,1.77,0.79,-1.4,915.27,21.88,
4986412,-0.04,-0.07,0.84,2.2,0.18,-1.28,915.31,21.89,
4986451,-0.01,-0.07,0.83,1.34,0.18,-1.4,915.23,21.88,
4986489,-0.03,-0.05,0.99,2.08,-0.55,-1.46,915.27,21.87,
4986539,-0.02,-0.06,1.03,1.4,-0.18,-1.22,915.27,21.88,
4986577,-0.03,-0.06,1.11,1.46,-0.92,-1.34,915.26,21.88,
4986615,-0.02,-0.06,1.16,1.28,0.61,-1.46,915.27,21.89,
4986654,-0.01,-0.05,1.21,1.53,0.06,-1.46,915.27,21.89,
4986692,-0.03,-0.05,1.2,1.53,-0.18,-1.53,915.28,21.89,
4986730,-0.03,-0.06,1.16,1.71,0.31,-1.59,915.26,21.89,
4986769,-0.03,-0.05,1.17,1.95,0.92,-1.65,915.25,21.89,
4986807,-0.03,-0.06,1.13,1.83,0.67,-1.65,915.23,21.89,
4986845,-0.04,-0.07,1.1,1.95,0.98,-1.77,915.25,21.89,
4986884,-0.03,-0.07,1.08,1.95,0.98,-1.77,915.25,21.89,
4986933,-0.01,-0.07,1.04,1.89,1.04,-1.71,915.22,21.89,
4986972,-0.02,-0.06,1.02,1.89,0.06,-1.83,915.22,21.89,
4987010,-0.03,-0.07,1.0,2.08,0.06,-1.83,915.17,21.9,
4987048,-0.05,-0.08,1.0,2.14,-0.43,-1.83,915.16,21.89,
4987087,-0.04,-0.07,0.99,2.14,-0.18,-1.71,915.17,21.9,
4987125,-0.03,-0.05,0.98,1.89,-0.79,-1.89,915.17,21.9,
4987163,-0.05,-0.06,0.98,1.59,-0.61,-1.71,915.17,21.9,
4987201,-0.06,-0.07,0.98,1.28,0.24,-1.71,915.15,21.89,
4987240,-0.05,-0.06,1.01,1.04,0.12,-1.65,915.14,21.89,
4987290,-0.07,-0.05,0.97,0.73,0.98,-1.4,915.2,21.89,
4987328,-0.06,-0.04,1.01,0.79,2.01,-1.16,915.12,21.88,
4987366,-0.06,-0.07,0.99,0.49,2.75,-0.98,915.15,21.89,
4987405,-0.06,-0.06,1.04,0.49,2.69,-0.85,915.13,21.89,
4987443,-0.02,-0.07,1.05,0.37,2.87,-0.73,915.16,21.89,
4987481,-0.04,-0.06,1.03,0.0,3.11,-0.67,915.15,21.89,
4987519,-0.05,-0.06,1.08,0.24,2.69,-0.43,915.15,21.88,
4987558,-0.05,-0.07,1.03,0.31,2.62,-0.24,915.14,21.88,
4987596,-0.05,-0.04,1.12,1.04,0.55,-0.18,915.13,21.9,
4987646,-0.05,-0.07,1.11,1.1,0.12,0.24,915.14,21.88,
4987684,-0.04,-0.06,1.15,1.16,-1.28,0.12,915.1,21.88,
4987723,-0.03,-0.06,1.22,1.59,-0.12,0.43,915.08,21.89,
4987761,-0.04,-0.08,1.09,1.1,-0.18,0.55,915.08,21.88,
4987799,-0.04,-0.03,1.22,1.89,-0.92,0.49,915.08,21.88,
4987838,-0.05,-0.07,1.1,1.53,1.71,0.43,915.05,21.89,
4987876,-0.03,-0.06,1.14,2.08,0.12,0.49,915.1,21.89,
4987914,-0.03,-0.07,1.1,2.14,1.28,0.49,915.07,21.89,
4987953,-0.03,-0.06,1.05,2.2,1.83,0.31,915.09,21.89,
4987991,-0.04,-0.07,1.08,2.32,3.6,0.37,915.07,21.9,
4988067,-0.03,-0.06,1.08,1.83,4.52,0.18,915.0,21.86,
4988105,-0.04,-0.07,1.01,1.1,6.16,0.24,915.02,21.87,
4988143,-0.03,-0.05,1.07,1.28,5.68,0.37,915.0,21.87,
4988233,-0.05,-0.06,1.04,1.53,5.74,0.31,915.03,21.84,
4988272,-0.03,-0.08,0.98,1.28,6.29,0.67,915.0,21.85,
4988310,-0.04,-0.07,0.94,1.46,4.46,0.55,915.0,21.86,
4988348,-0.05,-0.06,0.94,1.65,4.58,0.67,914.99,21.86,
4988386,-0.04,-0.07,0.9,1.53,4.76,0.85,914.99,21.87,
4988424,-0.02,-0.07,0.91,1.46,3.97,0.73,915.01,21.88,
4988463,-0.04,-0.07,0.94,1.53,4.09,0.98,914.98,21.88,
4988513,-0.03,-0.07,0.93,1.28,3.72,1.16,914.96,21.86,
4988551,-0.03,-0.07,0.93,1.4,3.42,1.16,914.92,21.86,
4988589,-0.04,-0.07,0.88,1.53,3.17,1.1,914.95,21.87,
4988628,-0.01,-0.08,0.89,1.71,3.17,1.04,914.95,21.87,
4988666,-0.02,-0.08,0.86,1.77,3.54,1.1,914.94,21.87,
4988704,-0.02,-0.06,0.91,1.71,2.14,1.28,914.94,21.87,
4988743,-0.02,-0.07,0.99,2.01,2.01,1.1,914.86,21.88,
4988781,-0.02,-0.08,0.99,1.16,1.77,1.16,914.89,21.89,
4988819,-0.03,-0.07,1.12,1.34,1.34,0.92,914.93,21.88,
4988869,-0.02,-0.06,1.14,0.79,2.5,0.79,914.86,21.87,
4988907,-0.02,-0.06,1.24,0.73,2.99,0.85,914.84,21.87,
4988946,-0.04,-0.06,1.18,0.06,4.94,0.92,914.87,21.88,
4988984,-0.04,-0.05,1.27,0.73,4.58,0.73,914.86,21.89,
4989022,-0.03,-0.05,1.19,-0.18,5.68,0.73,914.85,21.89,
4989060,-0.03,-0.04,1.2,0.73,4.21,0.92,914.86,21.89,
4989099,-0.02,-0.07,1.13,0.92,4.21,1.1,914.92,21.89,
4989137,-0.01,-0.07,1.07,1.34,2.26,1.1,914.86,21.88,
4989175,-0.04,-0.06,1.0,1.89,1.46,1.4,914.85,21.89,
4989214,-0.02,-0.07,0.92,1.53,0.92,1.34,914.78,21.88,
4989264,-0.02,-0.06,0.91,1.53,0.55,1.22,914.83,21.87,
4989302,-0.01,-0.07,0.87,0.98,1.34,1.16,914.79,21.89,
4989340,-0.02,-0.06,0.91,0.79,1.1,1.1,914.79,21.89,
4989378,-0.03,-0.07,0.89,0.43,1.71,0.98,914.8,21.89,
4989417,-0.03,-0.07,0.91,0.43,1.4,1.04,914.76,21.89,
4989455,-0.01,-0.07,0.92,0.18,2.14,1.04,914.76,21.9,
4989493,-0.02,-0.07,0.91,0.18,2.5,0.79,914.77,21.89,
4989531,-0.04,-0.06,0.92,0.43,3.05,0.98,914.76,21.88,
4989570,-0.02,-0.06,0.92,0.31,3.66,0.73,914.72,21.9,
4989608,-0.02,-0.07,0.93,0.55,4.58,0.73,914.71,21.9,
4989658,-0.02,-0.06,0.89,0.67,5.07,0.73,914.72,21.88,
4989696,-0.03,-0.07,0.87,0.79,5.98,0.67,914.7,21.9,
4989735,-0.03,-0.07,0.84,1.04,6.47,0.49,914.75,21.89,
4989773,-0.02,-0.06,0.85,1.34,6.53,0.55,914.69,21.88,
4989811,-0.04,-0.07,0.81,1.4,7.81,0.61,914.64,21.89,
4989850,-0.01,-0.07,0.84,1.46,7.75,0.43,914.69,21.89,
4989888,-0.03,-0.06,0.86,1.83,7.08,0.43,914.67,21.88,
4989926,-0.02,-0.07,0.86,1.77,6.9,0.49,914.64,21.89,
4989964,-0.01,-0.06,0.88,1.89,6.35,0.55,914.67,21.89,
4990014,-0.03,-0.07,0.86,1.89,5.68,0.49,914.6,21.87,
4990053,-0.03,-0.07,0.81,1.71,4.76,0.43,914.67,21.89,
4990091,-0.02,-0.06,0.88,2.01,3.66,0.55,914.63,21.89,
4990129,-0.05,-0.07,0.8,1.59,3.23,0.43,914.63,21.89,
4990168,-0.03,-0.06,0.85,2.38,2.2,0.49,914.6,21.9,
4990206,-0.03,-0.09,0.77,2.26,3.17,0.31,914.54,21.88,
4990244,-0.03,-0.07,0.81,2.38,1.46,0.37,914.56,21.88,
4990282,-0.03,-0.08,0.81,2.75,2.38,0.55,914.58,21.87,
4990321,-0.04,-0.07,0.76,2.08,2.5,0.31,914.65,21.9,
4990359,-0.05,-0.06,0.83,3.05,1.77,0.31,914.48,21.89,
4990409,-0.04,-0.07,0.78,2.2,1.89,0.55,914.54,21.88,
4990447,-0.02,-0.06,0.82,2.56,1.65,0.37,914.52,21.89,
4990486,-0.04,-0.07,0.79,2.01,1.89,0.49,914.52,21.89,
4990524,-0.04,-0.07,0.83,2.56,1.89,0.43,914.57,21.89,
4990562,-0.04,-0.08,0.79,2.08,2.75,0.49,914.53,21.89,
4990601,-0.05,-0.06,0.84,2.26,2.14,0.43,914.56,21.89,
4990639,-0.04,-0.08,0.81,2.32,2.93,0.49,914.52,21.88,
4990677,-0.04,-0.08,0.84,2.14,1.89,0.55,914.54,21.89,
4990716,-0.04,-0.08,0.82,2.14,1.28,0.67,914.51,21.9,
4990754,-0.03,-0.06,0.88,1.71,0.12,0.67,914.56,21.9,
4990804,-0.05,-0.08,0.88,1.4,0.43,0.73,914.5,21.87,
4990842,-0.04,-0.07,0.95,1.4,-0.55,0.85,914.5,21.88,
4990881,-0.04,-0.08,0.99,1.46,0.79,0.79,914.46,21.89,
4990919,-0.04,-0.06,1.01,1.04,-0.06,0.79,914.51,21.88,
4990957,-0.04,-0.06,1.08,1.65,0.49,0.79,914.52,21.89,
4990995,-0.05,-0.08,1.0,0.61,1.59,0.85,914.48,21.89,
4991034,-0.04,-0.05,1.15,1.28,0.24,0.67,914.53,21.89,
4991072,-0.03,-0.07,1.09,0.55,2.62,0.79,914.53,21.89,
4991110,-0.03,-0.05,1.17,0.98,1.4,0.67,914.49,21.9,
4991186,-0.04,-0.06,1.19,0.92,2.01,0.85,914.53,21.86,
4991225,-0.02,-0.06,1.2,0.98,2.69,0.79,914.5,21.87,
4991263,-0.03,-0.05,1.16,0.98,2.32,0.61,914.52,21.87,
4991353,-0.04,-0.06,1.11,0.85,2.2,0.92,914.51,21.84,
4991391,-0.03,-0.05,1.18,1.4,1.28,0.67,914.46,21.85,
4991429,-0.02,-0.07,1.07,0.92,1.4,0.67,914.51,21.87,
4991468,-0.05,-0.05,1.11,1.34,0.24,0.85,914.51,21.88,
4991506,-0.03,-0.07,1.0,1.22,1.1,0.73,914.46,21.87,
4991544,-0.03,-0.07,0.96,1.46,0.24,0.73,914.48,21.88,
4991583,-0.03,-0.06,1.0,1.4,-0.06,0.61,914.41,21.87,
4991633,-0.04,-0.06,0.99,1.22,-0.61,1.1,914.44,21.87,
4991671,-0.04,-0.07,1.03,1.4,-0.98,0.79,914.41,21.87,
4991709,-0.04,-0.07,1.02,1.22,-0.98,0.85,914.46,21.88,
4991747,-0.04,-0.07,1.03,1.28,-1.04,0.85,914.33,21.87,
4991786,-0.03,-0.07,1.0,1.04,-0.98,0.98,914.48,21.89,
4991824,-0.05,-0.06,1.03,1.28,-1.1,0.85,914.39,21.88,
4991862,-0.05,-0.07,1.0,1.1,0.06,0.85,914.42,21.88,
4991901,-0.05,-0.07,1.02,1.28,-0.06,0.92,914.39,21.89,
4991939,-0.05,-0.07,1.0,1.59,0.79,1.16,914.43,21.89,
4991989,-0.06,-0.06,0.99,1.89,0.73,0.98,914.41,21.87,
4992027,-0.05,-0.08,0.99,1.46,0.85,1.46,914.36,21.89,
4992065,-0.05,-0.06,1.0,1.4,0.43,1.46,914.38,21.9,
4992104,-0.06,-0.06,1.03,1.28,0.79,1.34,914.37,21.89,
4992142,-0.06,-0.07,1.04,1.28,0.61,1.65,914.39,21.9,
4992180,-0.05,-0.06,1.07,1.53,0.98,1.59,914.36,21.89,
4992219,-0.05,-0.06,1.04,1.65,0.92,1.77,914.34,21.9,
4992257,-0.05,-0.06,1.1,1.83,0.67,1.59,914.34,21.9,
4992295,-0.06,-0.07,1.06,1.53,1.59,1.77,914.3,21.89,
4992333,-0.05,-0.06,1.13,1.71,1.59,1.95,914.29,21.9,
4992383,-0.06,-0.06,1.14,1.46,1.34,2.2,914.29,21.89,
4992422,-0.07,-0.05,1.18,1.4,1.28,2.01,914.31,21.9,
4992460,-0.06,-0.06,1.17,1.34,1.71,2.44,914.3,21.9,
4992498,-0.06,-0.06,1.17,1.59,1.22,2.62,914.32,21.89,
4992537,-0.07,-0.05,1.13,1.46,2.38,2.69,914.27,21.9,
4992575,-0.05,-0.05,1.16,1.83,3.3,2.93,914.29,21.89,
4992613,-0.06,-0.07,1.09,1.89,4.46,2.75,914.28,21.9,
4992652,-0.05,-0.07,1.07,2.56,5.0,2.93,914.23,21.88,
4992690,-0.04,-0.07,1.04,2.93,5.49,2.81,914.25,21.9,
4992728,-0.05,-0.08,0.95,2.62,5.31,2.93,914.25,21.89,
4992778,-0.06,-0.06,0.95,2.87,5.07,3.23,914.23,21.88,
4992816,-0.05,-0.07,0.93,2.81,5.37,3.05,914.23,21.9,
4992855,-0.06,-0.06,0.94,2.5,5.13,3.23,914.17,21.89,
4992893,-0.05,-0.06,0.95,2.32,4.76,3.3,914.18,21.89,
4992931,-0.05,-0.06,0.96,2.08,4.64,3.54,914.12,21.89,
4992970,-0.05,-0.07,0.99,1.95,4.64,3.78,914.16,21.89,
4993008,-0.06,-0.06,1.02,1.83,4.64,3.85,914.13,21.88,
4993046,-0.08,-0.07,1.0,1.89,5.86,3.78,914.15,21.88,
4993084,-0.07,-0.06,1.0,1.77,6.53,3.97,914.16,21.89,
4993135,-0.06,-0.07,1.01,1.34,7.32,4.27,914.06,21.87,
4993173,-0.06,-0.06,0.95,1.34,8.36,4.27,914.07,21.87,
4993211,-0.06,-0.06,0.99,1.83,9.03,4.39,914.16,21.9,
4993250,-0.04,-0.07,0.93,1.77,9.58,4.46,914.14,21.9,
4993288,-0.06,-0.06,0.93,2.62,9.28,4.52,914.19,21.89,
4993326,-0.05,-0.08,0.82,3.17,10.86,4.76,914.13,21.89,
4993364,-0.03,-0.06,0.77,2.81,10.07,4.64,914.14,21.89,
4993403,-0.03,-0.07,0.72,3.85,10.44,4.82,914.17,21.9,
4993441,-0.01,-0.08,0.63,3.42,9.58,4.52,914.16,21.89,
4993479,-0.03,-0.07,0.63,3.78,7.81,4.7,914.13,21.9,
4993530,-0.01,-0.08,0.59,3.3,6.35,4.64,914.19,21.89,
4993568,-0.01,-0.08,0.65,3.42,4.64,4.58,914.12,21.89,
4993606,-0.01,-0.08,0.64,3.05,3.23,4.64,914.15,21.89,
4993644,-0.01,-0.08,0.66,2.87,2.14,4.58,914.16,21.9,
4993683,-0.02,-0.07,0.68,2.56,0.85,4.33,914.16,21.9,
4993721,0.0,-0.08,0.73,2.38,0.24,4.39,914.16,21.89,
4993759,-0.01,-0.08,0.77,2.26,0.55,4.09,914.16,21.9,
4993798,-0.01,-0.08,0.8,1.89,0.55,4.03,914.16,21.9,
4993836,-0.0,-0.08,0.85,1.65,0.79,3.78,914.09,21.89,
4993874,-0.01,-0.08,0.86,1.04,1.46,3.54,914.15,21.9,
4993924,-0.01,-0.08,0.9,1.04,1.65,3.42,914.19,21.9,
4993963,-0.02,-0.07,0.91,0.67,2.32,3.17,914.17,21.9,
4994001,-0.01,-0.07,0.94,0.49,2.93,2.87,914.17,21.9,
4994039,-0.0,-0.07,0.98,0.43,3.11,2.81,914.12,21.88,
4994078,-0.01,-0.07,1.0,0.43,3.6,2.81,914.13,21.9,
4994116,-0.01,-0.07,0.99,0.31,4.33,2.81,914.2,21.89,
4994154,-0.0,-0.07,1.02,0.79,4.82,2.5,914.2,21.9,
4994192,0.0,-0.07,1.01,0.98,4.64,2.32,914.21,21.9,
4994231,-0.01,-0.06,1.02,1.46,4.46,2.26,914.22,21.9,
4994307,-0.0,-0.07,1.01,2.32,5.49,1.95,914.19,21.88,
4994345,0.0,-0.07,0.98,2.44,6.16,1.95,914.22,21.88,
4994383,-0.01,-0.06,0.98,2.69,6.65,1.83,914.18,21.88,
4994473,0.0,-0.07,1.0,2.81,7.93,1.53,914.22,21.86,
4994511,-0.0,-0.07,0.99,2.87,8.67,1.53,914.14,21.87,
4994550,-0.0,-0.07,0.98,2.99,8.79,1.46,914.2,21.87,
4994588,0.01,-0.06,0.97,3.23,9.09,1.4,914.16,21.87,
4994626,0.01,-0.07,0.97,3.23,9.03,1.4,914.21,21.86,
4994664,0.0,-0.07,0.97,3.42,9.34,1.22,914.13,21.88,
4994703,-0.0,-0.07,0.96,3.6,9.95,1.16,914.15,21.87,
4994753,0.01,-0.06,0.97,3.85,9.64,1.04,914.17,21.87,
4994791,0.01,-0.07,0.94,3.85,9.95,0.98,914.17,21.87,
4994829,0.01,-0.07,0.93,4.09,9.58,1.04,914.15,21.87,
4994867,0.01,-0.06,0.93,4.21,9.58,0.92,914.18,21.87,
4994906,0.0,-0.07,0.91,4.15,9.03,0.85,914.17,21.89,
4994944,0.01,-0.07,0.96,4.46,8.48,0.73,914.14,21.87,
4994982,0.01,-0.07,0.95,4.27,8.54,0.73,914.15,21.87,
4995020,0.02,-0.07,0.95,4.27,7.81,0.61,914.17,21.88,
4995059,0.01,-0.06,0.92,4.09,7.51,0.73,914.17,21.87,
4995097,0.0,-0.07,0.93,4.46,6.65,0.61,914.18,21.89,
4995147,0.01,-0.08,0.89,4.09,6.04,0.55,914.15,21.86,
4995185,0.01,-0.07,0.93,4.46,5.19,0.31,914.16,21.87,
4995223,0.0,-0.08,0.86,4.15,5.98,0.31,914.14,21.87,
4995262,-0.01,-0.07,0.85,4.09,5.25,0.37,914.18,21.88,
4995300,0.01,-0.08,0.87,3.91,5.86,0.31,914.16,21.89,
4995338,0.01,-0.07,0.83,3.66,6.1,0.12,914.19,21.88,
4995376,0.0,-0.06,0.86,3.91,5.68,0.06,914.22,21.89,
4995415,0.01,-0.08,0.85,3.42,6.9,0.06,914.19,21.88,
4995453,0.01,-0.07,0.9,3.36,6.65,-0.12,914.17,21.87,
4995491,0.0,-0.07,0.91,3.3,7.39,0.0,914.16,21.89,
4995541,0.01,-0.06,0.92,2.99,7.51,-0.24,914.15,21.86,
4995579,0.01,-0.07,0.92,2.87,8.67,-0.43,914.13,21.88,
4995618,0.01,-0.07,0.9,2.69,8.67,-0.31,914.14,21.88,
4995656,0.01,-0.07,0.93,2.75,8.97,-0.55,914.2,21.88,
4995694,0.02,-0.07,0.93,2.56,9.58,-0.37,914.2,21.89,
4995733,0.02,-0.07,0.93,2.75,9.77,-0.61,914.22,21.88,
4995771,0.01,-0.07,0.91,2.81,9.7,-0.73,914.19,21.88,
4995809,0.01,-0.07,0.92,2.99,9.16,-0.73,914.2,21.87,
4995847,0.01,-0.07,0.9,2.99,9.52,-0.85,914.2,21.87,
4995897,0.03,-0.07,0.92,2.99,8.61,-1.04,914.23,21.87,
4995936,0.02,-0.07,0.89,2.56,9.4,-1.1,914.19,21.87,
4995974,0.02,-0.07,0.91,2.62,9.58,-1.16,914.17,21.88,
4996012,0.02,-0.08,0.92,2.56,9.95,-1.34,914.18,21.86,
4996050,0.0,-0.07,0.91,2.44,9.34,-1.4,914.26,21.87,
4996089,0.01,-0.08,0.9,2.32,9.52,-1.28,914.21,21.87,
4996127,0.02,-0.07,0.88,2.69,9.7,-1.59,914.23,21.87,
4996165,0.02,-0.08,0.87,2.5,9.58,-1.65,914.28,21.87,
4996204,0.02,-0.08,0.85,2.56,9.22,-1.77,914.23,21.87,
4996242,0.02,-0.07,0.83,2.2,9.46,-1.89,914.21,21.86,
4996292,0.01,-0.07,0.86,2.26,9.7,-2.14,914.23,21.87,
4996330,0.02,-0.07,0.87,2.14,9.58,-2.14,914.25,21.86,
4996368,0.02,-0.08,0.9,1.83,9.16,-2.44,914.26,21.89,
4996407,0.02,-0.07,0.88,1.4,9.83,-2.5,914.24,21.88,
4996445,0.02,-0.07,0.93,1.22,9.46,-2.56,914.28,21.88,
4996483,0.01,-0.08,0.91,1.04,9.83,-2.69,914.29,21.88,
4996521,0.02,-0.07,0.93,0.92,8.42,-2.93,914.27,21.89,
4996560,0.01,-0.07,0.94,0.67,8.18,-3.3,914.31,21.9,
4996598,0.02,-0.07,0.91,0.31,7.69,-3.3,914.26,21.87,
4996636,0.02,-0.07,0.98,0.49,6.77,-3.42,914.32,21.86,
4996686,0.02,-0.08,0.96,-0.06,6.47,-3.6,914.32,21.87,
4996725,0.02,-0.07,0.99,-0.24,5.86,-3.72,914.36,21.87,
4996763,0.02,-0.07,0.99,-0.55,5.55,-4.03,914.35,21.87,
4996801,0.01,-0.07,1.02,-0.55,5.13,-4.27,914.36,21.87,
4996839,0.01,-0.06,1.05,-0.85,5.19,-4.39,914.38,21.88,
4996878,0.01,-0.06,1.1,-0.67,4.88,-4.64,914.37,21.87,
4996916,0.01,-0.07,1.15,-0.67,4.94,-4.82,914.38,21.88,
4996954,0.01,-0.06,1.17,-0.85,4.58,-4.82,914.42,21.87,
4996993,0.0,-0.06,1.22,-0.85,4.09,-5.0,914.37,21.88,
4997042,0.01,-0.05,1.21,-0.98,4.03,-5.25,914.34,21.86,
4997081,0.01,-0.05,1.27,-0.79,3.72,-5.49,914.36,21.88,
4997119,0.01,-0.06,1.28,-0.92,4.21,-5.37,914.39,21.87,
4997157,-0.01,-0.06,1.3,-0.73,4.15,-5.74,914.34,21.87,
4997196,-0.0,-0.06,1.28,-0.92,4.64,-5.86,914.39,21.87,
4997234,-0.01,-0.05,1.29,-0.55,5.07,-5.98,914.4,21.87,
4997272,-0.02,-0.05,1.23,-0.24,5.25,-6.04,914.39,21.86,
4997311,-0.01,-0.06,1.21,-0.18,4.88,-6.1,914.39,21.87,
4997349,0.0,-0.06,1.17,-0.31,4.94,-6.47,914.34,21.88,
4997387,-0.01,-0.06,1.15,-0.18,4.82,-6.35,914.38,21.87,
4997463,0.0,-0.07,1.17,-0.43,4.33,-6.41,914.35,21.83,
4997502,-0.01,-0.06,1.18,-0.43,2.38,-6.53,914.33,21.84,
4997540,-0.01,-0.07,1.16,-0.49,2.5,-6.59,914.43,21.88,
4997630,-0.01,-0.07,1.07,-1.22,2.99,-6.96,914.39,21.83,
4997668,-0.01,-0.07,1.0,-1.53,3.36,-6.9,914.38,21.83,
4997706,-0.01,-0.07,1.03,-1.28,3.72,-7.51,914.43,21.85,
4997745,-0.02,-0.08,0.95,-1.65,4.58,-7.39,914.39,21.85,
4997783,-0.01,-0.07,0.97,-1.95,3.36,-7.45,914.39,21.85,
4997821,-0.02,-0.07,0.99,-2.44,2.93,-7.63,914.37,21.86,
4997871,-0.03,-0.07,1.02,-2.87,2.69,-7.63,914.42,21.85,
4997909,-0.02,-0.08,1.03,-3.11,3.36,-7.75,914.41,21.85,
4997948,-0.04,-0.07,1.03,-3.54,3.91,-7.81,914.42,21.86,
4997986,-0.03,-0.07,1.07,-3.17,3.85,-7.81,914.4,21.85,
4998024,-0.04,-0.07,1.03,-3.3,5.92,-7.87,914.4,21.86,
4998063,-0.04,-0.07,1.02,-2.93,5.98,-8.0,914.44,21.87,
4998101,-0.05,-0.06,1.07,-2.69,6.04,-8.06,914.37,21.87,
4998139,-0.04,-0.07,1.04,-2.14,6.41,-7.93,914.37,21.84,
4998177,-0.03,-0.06,1.11,-1.95,6.04,-7.87,914.33,21.85,
4998227,-0.05,-0.06,1.1,-1.95,5.49,-7.63,914.38,21.85,
4998266,-0.04,-0.06,1.14,-1.95,4.21,-7.81,914.4,21.87,
4998304,-0.06,-0.07,1.1,-2.08,4.39,-7.69,914.39,21.87,
4998342,-0.06,-0.05,1.18,-1.53,3.6,-7.32,914.32,21.86,
4998381,-0.04,-0.07,1.19,-1.71,3.97,-7.26,914.28,21.86,
4998419,-0.07,-0.06,1.21,-1.22,2.14,-7.32,914.27,21.86,
4998457,-0.08,-0.06,1.19,-1.71,3.85,-7.08,914.28,21.87,
4998495,-0.06,-0.07,1.18,-1.89,3.23,-6.84,914.24,21.86,
4998533,-0.06,-0.04,1.21,-1.71,2.32,-6.65,914.25,21.86,
4998572,-0.1,-0.06,1.16,-1.46,2.56,-6.29,914.25,21.87,
4998622,-0.07,-0.06,1.25,-1.04,2.2,-6.29,914.23,21.86,
4998660,-0.08,-0.05,1.18,-1.1,2.5,-6.1,914.22,21.86,
4998698,-0.1,-0.04,1.26,-0.31,0.73,-5.8,914.23,21.87,
4998736,-0.08,-0.08,1.12,-0.67,3.54,-5.8,914.21,21.87,
4998775,-0.09,-0.04,1.2,-0.37,2.99,-5.92,914.22,21.86,
4998813,-0.09,-0.06,1.1,-0.24,4.52,-5.55,914.22,21.87,
4998851,-0.1,-0.06,1.02,-0.06,4.03,-5.43,914.22,21.86,
4998890,-0.1,-0.06,1.05,0.18,5.49,-5.37,914.26,21.87,
4998928,-0.07,-0.08,1.0,0.06,5.25,-4.88,914.23,21.85,
4998978,-0.12,-0.05,1.03,0.67,4.46,-4.58,914.16,21.86,
4999016,-0.1,-0.06,1.0,0.73,4.76,-4.21,914.18,21.86,
4999054,-0.07,-0.07,0.98,0.49,3.72,-4.15,914.17,21.85,
4999093,-0.1,-0.06,0.99,0.73,2.56,-3.91,914.13,21.86,
4999131,-0.1,-0.08,0.91,0.43,2.62,-3.42,914.21,21.85,
4999169,-0.09,-0.06,0.92,0.61,1.1,-3.3,914.16,21.86,
4999208,-0.12,-0.05,0.91,0.67,0.43,-2.87,914.16,21.87,
4999246,-0.1,-0.06,0.9,0.37,0.24,-2.5,914.22,21.86,
4999284,-0.09,-0.07,0.92,0.06,-0.79,-2.26,914.18,21.86,
4999334,-0.1,-0.06,0.96,0.37,-1.71,-1.65,914.15,21.85,
4999372,-0.09,-0.08,0.93,0.18,-2.01,-1.59,914.21,21.85,
4999411,-0.1,-0.05,1.03,0.61,-2.69,-1.46,914.16,21.84,
4999449,-0.08,-0.08,1.01,0.31,-2.14,-1.16,914.25,21.85,
4999487,-0.08,-0.06,1.03,0.37,-2.75,-0.98,914.19,21.86,
4999526,-0.09,-0.06,1.02,0.18,-2.75,-0.67,914.24,21.86,
4999564,-0.09,-0.06,1.06,0.49,-3.05,-0.67,914.29,21.86,
4999602,-0.06,-0.06,1.06,0.0,-2.5,-0.49,914.28,21.86,
4999640,-0.07,-0.07,1.12,0.49,-2.69,-0.31,914.25,21.86,
4999679,-0.06,-0.09,1.1,0.31,-1.04,-0.18,914.25,21.88,
4999729,-0.06,-0.05,1.13,0.55,-0.55,-0.49,914.27,21.84,
4999767,-0.08,-0.06,1.08,0.06,0.79,-0.31,914.32,21.85,
4999805,-0.06,-0.06,1.08,0.12,0.49,-0.43,914.26,21.84,
4999844,-0.06,-0.06,1.08,-0.18,1.59,-0.49,914.35,21.87,
4999882,-0.06,-0.07,1.06,-0.12,2.32,-0.55,914.32,21.86,
4999920,-0.05,-0.06,1.06,-0.49,2.38,-0.49,914.27,21.87,
4999958,-0.05,-0.06,1.07,-0.31,2.75,-0.37,914.33,21.87,
4999997,-0.05,-0.06,1.07,-0.31,2.93,-0.67,914.32,21.88,
5000035,-0.04,-0.07,1.07,-0.06,2.81,-0.55,914.31,21.87,
5000085,-0.05,-0.06,1.04,-0.12,1.04,-0.67,914.29,21.87,
5000123,-0.05,-0.06,1.06,0.12,0.61,-0.67,914.37,21.88,
5000162,-0.05,-0.05,1.07,0.31,-0.31,-0.61,914.27,21.87,
5000200,-0.05,-0.08,1.13,1.04,-1.4,-0.49,914.29,21.87,
5000238,-0.05,-0.08,1.0,0.92,-1.4,-0.79,914.37,21.87,
5000276,-0.06,-0.06,1.04,1.28,-1.22,-0.73,914.33,21.87,
5000315,-0.05,-0.07,0.96,1.16,-0.79,-0.61,914.38,21.88,
5000353,-0.06,-0.07,0.9,1.53,-1.77,-0.55,914.37,21.87,
5000391,-0.07,-0.08,0.92,1.59,-1.59,-0.49,914.33,21.88,
5000467,-0.05,-0.07,0.97,1.34,-3.3,-0.24,914.33,21.84,
5000506,-0.06,-0.06,0.97,1.1,-4.09,-0.61,914.33,21.88,
5000544,-0.06,-0.08,1.0,1.1,-3.78,-0.31,914.34,21.86,
5000634,-0.05,-0.07,1.02,0.79,-4.39,-0.43,914.36,21.83,
5000672,-0.05,-0.07,1.0,-0.06,-4.15,-0.43,914.36,21.85,
5000710,-0.03,-0.07,1.13,0.24,-5.43,-0.55,914.4,21.86,
5000749,-0.03,-0.08,1.07,-0.98,-5.07,-0.73,914.39,21.86,
5000787,-0.05,-0.06,1.14,-0.79,-6.47,-0.55,914.41,21.86,
5000825,-0.04,-0.07,1.08,-1.83,-5.07,-0.61,914.37,21.86,
5000864,-0.03,-0.06,1.09,-1.22,-6.9,-0.73,914.4,21.86,
5000914,-0.03,-0.07,1.0,-1.65,-5.98,-0.85,914.45,21.85,
5000952,-0.04,-0.07,1.02,-1.4,-6.47,-0.98,914.43,21.86,
5000990,-0.03,-0.06,1.0,-1.83,-5.0,-1.16,914.41,21.86,
5001029,-0.03,-0.05,1.11,-1.04,-5.92,-1.28,914.48,21.86,
5001067,-0.05,-0.08,1.01,-1.65,-3.36,-1.28,914.49,21.88,
5001105,-0.06,-0.05,1.06,-0.73,-3.97,-1.59,914.46,21.87,
5001143,-0.04,-0.07,1.06,-0.55,-1.89,-1.59,914.5,21.87,
5001182,-0.03,-0.05,1.03,-0.67,-1.59,-1.71,914.5,21.86,
5001220,-0.05,-0.04,1.08,0.18,-0.24,-1.89,914.52,21.87,
5001270,-0.05,-0.06,1.01,-0.31,1.1,-1.89,914.58,21.86,
5001308,-0.04,-0.05,1.14,0.49,1.46,-2.08,914.5,21.85,
5001347,-0.04,-0.08,1.07,-0.12,2.69,-2.01,914.56,21.89,
5001385,-0.04,-0.05,1.15,0.55,2.56,-2.01,914.5,21.86,
5001423,-0.03,-0.05,1.14,0.31,4.09,-2.01,914.49,21.86,
5001462,-0.03,-0.05,1.19,0.73,2.5,-2.08,914.51,21.86,
5001500,-0.08,-0.04,1.21,1.28,2.38,-1.89,914.49,21.86,
5001538,-0.07,-0.05,1.19,1.95,1.46,-1.53,914.5,21.87,
5001576,-0.05,-0.06,1.23,2.62,0.24,-1.53,914.5,21.87,
5001626,-0.07,-0.06,1.11,3.48,-1.16,-1.4,914.55,21.86,
5001665,-0.05,-0.06,1.09,3.97,-1.53,-1.28,914.5,21.86,
5001703,-0.05,-0.07,0.98,4.03,-1.4,-1.16,914.48,21.86,
5001741,-0.05,-0.06,0.96,4.46,-2.87,-0.85,914.44,21.86,
5001779,-0.06,-0.07,0.89,4.33,-2.93,-0.67,914.51,21.86,
5001818,-0.07,-0.07,0.84,4.46,-2.69,-0.67,914.45,21.86,
5001856,-0.04,-0.06,0.81,4.46,-3.05,-0.61,914.47,21.87,
5001894,-0.05,-0.07,0.78,3.72,-2.99,-0.37,914.46,21.86,
5001933,-0.07,-0.07,0.8,3.78,-2.69,-0.31,914.51,21.87,
5001983,-0.06,-0.09,0.8,2.99,-1.53,-0.06,914.44,21.85,
5002021,-0.06,-0.07,0.82,2.69,-1.34,-0.18,914.47,21.86,
5002059,-0.08,-0.07,0.81,1.65,-0.61,0.12,914.51,21.86,
5002098,-0.05,-0.06,0.86,1.4,-0.24,0.18,914.5,21.86,
5002136,-0.06,-0.07,0.86,0.85,0.73,0.18,914.51,21.85,
5002174,-0.06,-0.06,0.92,0.67,0.67,0.37,914.57,21.87,
5002213,-0.05,-0.07,0.94,0.43,1.46,0.61,914.56,21.89,
5002251,-0.06,-0.07,0.95,0.37,1.59,0.43,914.54,21.87,
5002289,-0.05,-0.07,0.97,0.31,2.2,0.61,914.57,21.87,
5002328,-0.05,-0.06,0.97,0.31,2.2,0.73,914.55,21.87,
5002378,-0.04,-0.06,1.0,0.49,2.26,0.92,914.57,21.87,
5002416,-0.05,-0.06,1.0,0.31,2.26,0.92,914.62,21.87,
5002454,-0.04,-0.05,1.04,0.67,2.62,1.1,914.61,21.87,
5002492,-0.04,-0.07,1.01,0.55,2.75,1.04,914.54,21.86,
5002531,-0.06,-0.05,1.03,0.79,2.14,1.34,914.57,21.85,
5002569,-0.04,-0.06,1.03,0.67,2.44,1.28,914.55,21.87,
5002607,-0.04,-0.06,1.05,0.67,2.5,1.34,914.56,21.87,
5002646,-0.05,-0.06,1.07,0.85,2.62,1.71,914.6,21.87,
5002684,-0.04,-0.05,1.08,0.67,2.26,1.53,914.51,21.87,
5002722,-0.05,-0.04,1.12,1.1,2.2,1.53,914.55,21.87,
5002772,-0.04,-0.05,1.15,1.04,1.65,1.83,914.61,21.86,
5002811,-0.04,-0.05,1.18,0.92,1.77,1.71,914.6,21.86,
5002849,-0.04,-0.05,1.21,1.16,1.95,1.71,914.53,21.87,
5002887,-0.03,-0.06,1.19,1.22,2.14,1.71,914.55,21.87,
5002925,-0.03,-0.05,1.2,1.71,2.14,1.77,914.56,21.87,
5002964,-0.02,-0.05,1.15,1.89,2.62,1.83,914.6,21.87,
5003002,-0.03,-0.05,1.15,1.95,2.56,1.83,914.55,21.88,
5003040,-0.04,-0.04,1.14,2.14,2.44,1.95,914.55,21.87,
5003079,-0.04,-0.05,1.11,2.32,2.08,2.14,914.55,21.87,
5003129,-0.04,-0.07,1.09,2.38,2.44,1.95,914.56,21.86,
5003167,-0.04,-0.06,1.08,2.5,2.32,1.95,914.53,21.87,
5003205,-0.04,-0.06,1.07,2.44,2.38,2.01,914.52,21.87,
5003243,-0.03,-0.06,1.08,2.2,2.14,2.08,914.57,21.87,
5003282,-0.04,-0.06,1.08,1.77,1.71,2.08,914.62,21.89,
5003320,-0.02,-0.05,1.09,1.59,1.53,2.2,914.55,21.89,
5003358,-0.01,-0.05,1.09,1.59,1.77,2.14,914.57,21.87,
5003397,-0.03,-0.06,1.09,1.59,1.59,2.01,914.57,21.87,
5003435,-0.03,-0.07,1.09,1.22,1.34,2.08,914.55,21.88,
5003473,-0.02,-0.06,1.09,1.4,1.1,2.2,914.53,21.87,
5003549,-0.03,-0.06,1.08,1.59,0.61,2.01,914.54,21.84,
5003587,-0.04,-0.07,1.07,1.53,0.55,1.89,914.57,21.86,
5003626,-0.04,-0.07,1.06,1.77,1.16,2.14,914.53,21.86,
5003716,-0.04,-0.07,1.0,2.01,0.67,2.14,914.51,21.83,
5003754,-0.03,-0.07,0.99,2.01,0.73,1.89,914.55,21.86,
5003792,-0.02,-0.07,0.99,2.08,0.67,2.14,914.54,21.86,
5003830,-0.04,-0.07,0.97,1.95,0.85,2.2,914.47,21.85,
5003869,-0.02,-0.08,0.96,1.77,0.92,2.14,914.5,21.86,
5003907,-0.02,-0.08,0.95,1.65,0.85,2.01,914.57,21.86,
5003945,-0.02,-0.07,0.96,1.4,1.22,2.14,914.52,21.88,
5003996,-0.03,-0.07,0.96,1.59,0.85,1.95,914.54,21.86,
5004034,-0.04,-0.05,0.99,1.59,1.16,1.89,914.55,21.87,
5004072,-0.02,-0.06,0.99,1.34,1.77,1.89,914.48,21.88,
5004110,-0.03,-0.06,1.0,1.46,1.59,2.08,914.5,21.87,
5004149,-0.03,-0.06,0.99,1.22,1.77,2.01,914.52,21.87,
5004187,-0.01,-0.06,1.01,1.28,2.08,2.08,914.52,21.87,
5004225,-0.03,-0.07,1.0,1.1,1.65,2.26,914.5,21.87,
5004263,-0.03,-0.05,1.04,1.4,1.4,2.44,914.5,21.88,
5004302,-0.02,-0.06,1.03,1.71,1.53,2.32,914.52,21.88,
5004352,-0.02,-0.05,1.02,1.77,0.92,2.32,914.5,21.87,
5004390,-0.02,-0.06,1.01,1.95,0.73,2.44,914.53,21.89,
5004428,-0.02,-0.07,0.99,2.08,0.79,2.5,914.55,21.89,
5004467,-0.02,-0.06,0.99,2.14,0.43,2.26,914.49,21.88,
5004505,-0.02,-0.07,0.97,2.26,0.49,2.56,914.51,21.88,
5004543,-0.01,-0.07,0.98,2.32,0.49,2.32,914.48,21.88,
5004581,-0.01,-0.06,1.0,2.32,1.04,2.32,914.5,21.87,
5004620,-0.01,-0.06,0.98,2.44,1.1,2.44,914.5,21.87,
5004658,-0.02,-0.06,0.98,2.69,1.1,2.32,914.48,21.87,
5004696,-0.02,-0.06,0.96,2.75,1.65,2.26,914.51,21.89,
5004746,-0.02,-0.05,0.94,2.87,1.95,2.08,914.5,21.87,
5004784,-0.02,-0.06,0.91,3.05,2.56,2.01,914.5,21.87,
5004823,-0.02,-0.06,0.91,3.36,3.05,2.01,914.48,21.86,
5004861,-0.01,-0.07,0.9,3.3,3.66,2.01,914.48,21.87,
5004899,-0.01,-0.07,0.89,3.17,3.97,1.95,914.5,21.87,
5004938,-0.02,-0.06,0.9,3.05,4.33,2.01,914.48,21.88,
5004976,-0.01,-0.07,0.89,2.75,4.82,1.89,914.43,21.87,
5005014,-0.01,-0.06,0.89,2.38,4.58,1.83,914.49,21.87,
5005052,-0.01,-0.07,0.89,2.44,4.58,2.01,914.48,21.88,
5005091,-0.01,-0.07,0.89,2.26,4.7,1.95,914.4,21.87,
5005141,-0.01,-0.07,0.89,2.14,4.58,1.83,914.41,21.86,
5005179,-0.01,-0.07,0.9,2.14,4.09,2.01,914.4,21.86,
5005217,-0.01,-0.07,0.91,1.71,3.66,2.01,914.39,21.85,
5005256,-0.01,-0.07,0.89,1.71,3.42,1.89,914.41,21.87,
5005294,-0.0,-0.06,0.91,1.65,2.81,1.89,914.39,21.86,
5005332,0.0,-0.06,0.91,1.46,2.08,1.83,914.4,21.85,
5005370,-0.0,-0.07,0.93,1.59,1.4,1.65,914.38,21.86,
5005409,0.0,-0.07,0.94,1.4,1.16,1.65,914.37,21.86,
5005447,0.0,-0.06,0.95,1.46,0.98,1.53,914.42,21.86,
5005497,-0.0,-0.06,0.95,1.46,0.55,1.28,914.38,21.86,
5005535,-0.01,-0.07,0.96,1.53,0.85,1.16,914.4,21.86,
5005573,-0.01,-0.06,0.98,1.46,1.16,1.28,914.44,21.85,
5005612,-0.01,-0.06,0.98,1.83,1.46,0.92,914.4,21.86,
5005650,-0.01,-0.06,0.98,2.01,2.01,0.92,914.45,21.87,
5005688,-0.0,-0.06,0.99,2.2,2.44,0.92,914.45,21.87,
5005727,-0.0,-0.06,0.99,2.44,2.87,0.85,914.42,21.87,
5005765,0.0,-0.06,0.99,2.62,2.5,0.85,914.35,21.88,
5005803,-0.01,-0.06,0.98,2.81,2.99,0.67,914.37,21.87,
5005842,-0.0,-0.05,0.99,2.81,3.17,0.67,914.44,21.87,
5005891,-0.01,-0.06,0.97,3.17,3.23,0.67,914.39,21.87,
5005930,-0.01,-0.06,0.96,3.17,3.42,0.49,914.47,21.87,
5005968,-0.01,-0.06,0.95,3.54,3.78,0.55,914.45,21.87,
5006006,-0.01,-0.07,0.92,3.42,4.27,0.55,914.48,21.87,
5006045,-0.0,-0.06,0.93,3.48,4.09,0.37,914.46,21.87,
5006083,-0.01,-0.07,0.9,3.48,4.7,0.37,914.47,21.88,
5006121,-0.01,-0.06,0.89,3.42,4.46,0.31,914.35,21.87,
5006160,-0.0,-0.06,0.91,3.23,4.46,0.31,914.4,21.87,
5006198,-0.0,-0.06,0.9,2.87,4.33,0.37,914.43,21.88,
5006236,-0.01,-0.06,0.92,2.75,4.09,0.31,914.4,21.86,
5006286,-0.01,-0.06,0.91,2.44,4.09,0.37,914.38,21.85,
5006324,-0.01,-0.07,0.93,2.32,3.48,0.24,914.39,21.86,
5006363,-0.01,-0.06,0.92,2.26,3.42,0.24,914.39,21.85,
5006401,-0.0,-0.06,0.94,2.5,3.17,0.12,914.44,21.87,
5006439,-0.0,-0.06,0.94,2.44,3.11,0.12,914.41,21.86,
5006477,-0.0,-0.06,0.95,3.05,2.32,0.12,914.42,21.87,
5006516,-0.01,-0.06,0.93,2.99,2.32,0.12,914.42,21.87,
5006554,-0.01,-0.06,0.93,3.36,1.65,0.12,914.37,21.87,
5006592,-0.01,-0.06,0.91,3.23,1.65,0.06,914.41,21.87,
5006670,-0.01,-0.07,0.88,3.17,1.34,-0.12,914.36,21.84,
5006708,-0.01,-0.06,0.88,2.87,1.4,-0.18,914.42,21.85,
5006746,-0.01,-0.06,0.87,2.62,1.83,-0.31,914.37,21.85,
5006837,-0.0,-0.06,0.87,2.08,2.5,-0.49,914.43,21.83,
5006875,-0.01,-0.06,0.9,2.2,2.75,-0.61,914.4,21.83,
5006913,-0.02,-0.06,0.91,1.77,2.93,-0.67,914.36,21.83,
5006951,-0.02,-0.06,0.93,1.89,3.11,-0.61,914.41,21.85,
5006990,-0.02,-0.06,0.94,2.08,3.36,-0.67,914.42,21.84,
5007028,-0.01,-0.06,0.95,1.89,3.11,-0.49,914.43,21.83,
5007066,-0.02,-0.05,0.99,2.14,2.81,-0.55,914.38,21.83,
5007116,-0.02,-0.06,0.97,2.08,2.75,-0.55,914.48,21.84,
5007155,-0.02,-0.06,0.99,2.56,2.14,-0.31,914.43,21.84,
5007193,-0.03,-0.06,0.94,2.44,2.32,-0.43,914.42,21.85,
5007231,-0.03,-0.06,0.94,2.69,2.08,-0.43,914.44,21.85,
5007270,-0.02,-0.06,0.93,2.75,2.26,-0.37,914.48,21.84,
5007308,-0.02,-0.07,0.89,2.69,2.5,-0.31,914.44,21.84,
5007346,-0.01,-0.06,0.91,2.75,2.44,-0.24,914.47,21.85,
5007385,-0.02,-0.06,0.93,2.62,2.38,-0.06,914.42,21.85,
5007423,-0.03,-0.06,0.91,2.56,2.38,-0.06,914.4,21.85,
5007473,-0.03,-0.06,0.94,2.69,2.62,-0.12,914.43,21.83,
5007511,-0.02,-0.06,0.94,2.62,2.56,-0.12,914.44,21.83,
5007549,-0.02,-0.06,0.96,2.44,2.44,-0.06,914.43,21.86,
5007588,-0.01,-0.06,0.93,2.62,3.05,-0.12,914.49,21.86,
5007626,-0.03,-0.05,0.95,2.56,3.11,0.0,914.45,21.86,
5007664,-0.02,-0.06,0.94,2.5,3.17,0.06,914.4,21.85,
5007703,-0.02,-0.06,0.96,2.5,2.87,0.12,914.46,21.87,
5007741,-0.02,-0.06,0.96,2.44,3.42,0.06,914.45,21.86,
5007779,-0.02,-0.06,0.97,2.44,2.99,0.24,914.49,21.87,
5007817,-0.02,-0.06,0.96,2.08,3.66,0.24,914.49,21.86,
5007867,-0.03,-0.06,0.95,2.38,3.91,0.12,914.48,21.85,
5007906,-0.03,-0.06,0.95,2.08,4.21,0.31,914.51,21.85,
5007944,-0.02,-0.06,0.94,2.26,4.39,0.24,914.48,21.87,
5007982,-0.03,-0.06,0.95,2.14,4.52,0.37,914.48,21.86,
5008021,-0.03,-0.06,0.95,2.14,4.64,0.43,914.45,21.86,
5008059,-0.02,-0.06,0.95,1.95,4.46,0.43,914.51,21.86,
5008097,-0.02,-0.06,0.96,2.01,4.64,0.49,914.48,21.86,
5008135,-0.02,-0.06,0.96,1.95,4.58,0.67,914.52,21.87,
5008174,-0.03,-0.06,1.0,1.95,4.33,0.61,914.53,21.86,
5008212,-0.02,-0.06,1.0,1.95,4.33,0.61,914.53,21.87,
5008262,-0.03,-0.06,1.01,2.08,4.21,0.67,914.48,21.86,
5008300,-0.02,-0.06,1.01,1.95,4.39,0.79,914.47,21.86,
5008338,-0.02,-0.06,1.01,2.2,4.39,0.79,914.51,21.86,
5008377,-0.03,-0.06,1.01,2.08,4.46,0.85,914.5,21.86,
5008415,-0.03,-0.06,1.01,2.08,4.27,0.98,914.51,21.86,
5008453,-0.02,-0.06,1.0,2.08,4.46,0.92,914.55,21.86,
5008491,-0.02,-0.06,1.0,2.14,4.46,0.98,914.56,21.86,
5008530,-0.01,-0.06,1.01,2.2,4.58,0.92,914.49,21.86,
5008568,-0.03,-0.06,0.98,2.14,4.33,0.92,914.49,21.87,
5008618,-0.02,-0.06,0.99,2.2,4.39,1.1,914.52,21.85,
5008656,-0.02,-0.06,0.98,2.2,4.27,1.16,914.55,21.87,
5008695,-0.01,-0.06,0.98,2.32,3.91,1.34,914.56,21.86,
5008733,-0.02,-0.06,0.96,2.26,3.85,1.1,914.55,21.86,
5008771,-0.02,-0.06,0.99,2.08,3.36,1.1,914.5,21.86,
5008809,-0.02,-0.06,0.99,2.01,3.05,1.1,914.57,21.85,
5008848,-0.02,-0.06,1.01,2.2,2.81,1.04,914.55,21.87,
5008886,-0.02,-0.06,1.02,2.08,3.11,1.1,914.6,21.87,
5008924,-0.02,-0.06,1.04,2.14,2.75,0.92,914.52,21.86,
5008963,-0.01,-0.07,1.03,2.01,2.32,0.92,914.54,21.86,
5009013,-0.02,-0.06,1.0,2.01,1.71,1.16,914.58,21.85,
5009051,-0.02,-0.07,0.98,2.2,1.89,1.04,914.55,21.84,
5009089,-0.02,-0.07,0.95,2.14,0.79,0.79,914.62,21.85,
5009127,-0.03,-0.06,0.92,2.2,1.04,0.98,914.59,21.86,
5009166,-0.01,-0.06,0.89,2.08,1.28,0.98,914.57,21.85,
5009204,-0.01,-0.07,0.91,2.32,1.34,0.79,914.58,21.85,
5009242,-0.02,-0.07,0.88,2.14,0.73,0.92,914.59,21.86,
5009281,-0.02,-0.06,0.89,1.77,0.92,0.85,914.55,21.85,
5009319,-0.01,-0.07,0.86,1.53,1.16,0.61,914.57,21.86,
5009357,-0.0,-0.07,0.92,1.22,0.55,0.61,914.54,21.85,
5009407,-0.01,-0.07,0.93,0.92,0.67,0.61,914.62,21.85,
5009446,-0.02,-0.07,0.97,0.92,1.04,0.49,914.59,21.86,
5009484,-0.02,-0.06,1.01,0.79,1.89,0.31,914.62,21.85,
5009522,-0.02,-0.06,1.05,1.04,1.65,0.31,914.61,21.86,
5009560,-0.02,-0.07,1.05,1.22,1.89,0.18,914.59,21.86,
5009599,-0.03,-0.06,1.05,1.22,1.89,0.24,914.61,21.85,
5009637,-0.03,-0.06,1.04,1.28,2.81,0.31,914.59,21.87,
5009675,-0.02,-0.06,1.02,1.34,2.32,0.24,914.67,21.86,
5009714,-0.03,-0.07,1.03,1.28,2.01,0.24,914.6,21.85,
5009790,-0.02,-0.06,1.02,1.4,2.26,0.31,914.67,21.83,
5009828,-0.02,-0.06,1.01,1.16,2.01,0.43,914.69,21.84,
5009866,-0.03,-0.06,1.0,1.16,1.46,0.43,914.62,21.84,
5009956,-0.02,-0.06,1.02,1.16,1.28,0.49,914.68,21.82,
5009995,-0.02,-0.06,1.01,1.1,1.22,0.37,914.69,21.82,
5010033,-0.02,-0.06,1.01,0.92,1.71,0.37,914.67,21.81,
5010071,-0.02,-0.07,1.02,0.92,1.83,0.43,914.64,21.82,
5010109,-0.02,-0.07,1.01,1.1,1.77,0.43,914.7,21.82,
5010148,-0.02,-0.06,1.01,1.04,2.14,0.37,914.73,21.83,
5010186,-0.02,-0.06,1.02,1.04,2.14,0.43,914.67,21.82,
5010236,-0.02,-0.06,1.01,1.16,2.26,0.37,914.68,21.81,
5010274,-0.03,-0.06,1.03,1.22,2.69,0.37,914.7,21.82,
5010313,-0.01,-0.07,1.01,1.04,3.05,0.24,914.75,21.82,
5010351,-0.02,-0.06,1.04,1.34,2.75,0.12,914.76,21.82,
5010389,-0.02,-0.07,1.0,1.04,3.48,0.37,914.7,21.82,
5010427,-0.02,-0.06,1.02,1.34,3.42,0.37,914.74,21.82,
5010466,-0.03,-0.06,1.01,1.28,3.6,0.31,914.72,21.84,
5010504,-0.03,-0.07,1.02,1.4,3.11,0.37,914.74,21.84,
5010542,-0.02,-0.07,1.03,1.28,3.3,0.49,914.7,21.83,
5010581,-0.02,-0.06,1.02,1.4,3.42,0.43,914.67,21.83,
5010631,-0.02,-0.07,1.02,1.53,3.23,0.43,914.72,21.83,
5010669,-0.02,-0.07,1.02,1.46,3.17,0.55,914.75,21.84,
5010707,-0.03,-0.06,1.0,1.46,3.11,0.67,914.72,21.83,
5010746,-0.03,-0.07,0.98,1.71,2.93,0.61,914.76,21.84,
5010784,-0.02,-0.07,0.98,1.71,2.5,0.67,914.79,21.85,
5010822,-0.02,-0.07,0.97,1.77,2.26,0.61,914.72,21.85,
5010860,-0.02,-0.07,0.95,2.01,2.5,0.79,914.78,21.84,
5010899,-0.02,-0.07,0.95,1.95,3.3,0.79,914.76,21.84,
5010937,-0.03,-0.06,0.94,1.89,3.17,0.73,914.79,21.85,
5010987,-0.04,-0.07,0.91,2.01,3.54,0.98,914.75,21.83,
5011025,-0.03,-0.07,0.94,2.14,3.05,0.79,914.76,21.84,
5011063,-0.02,-0.07,0.94,2.01,3.42,0.98,914.71,21.83,
5011102,-0.04,-0.07,0.94,1.89,3.42,0.92,914.81,21.85,
5011140,-0.03,-0.07,0.93,1.71,3.72,0.98,914.76,21.84,
5011178,-0.02,-0.07,0.95,1.59,3.78,1.16,914.79,21.84,
5011217,-0.03,-0.07,0.95,1.4,3.97,1.16,914.73,21.85,
5011255,-0.03,-0.07,0.93,1.16,3.78,1.28,914.76,21.85,
5011293,-0.03,-0.06,0.96,1.1,3.85,0.98,914.72,21.85,
5011331,-0.02,-0.07,0.96,1.04,3.66,1.28,914.78,21.85,
5011381,-0.02,-0.07,0.97,0.98,3.42,1.28,914.8,21.84,
5011420,-0.03,-0.06,0.97,1.16,3.54,1.46,914.79,21.86,
5011458,-0.03,-0.07,0.99,1.1,3.6,1.16,914.77,21.85,
5011496,-0.02,-0.07,0.99,1.1,3.17,1.22,914.84,21.86,
5011535,-0.02,-0.06,1.0,1.28,3.17,1.53,914.81,21.86,
5011573,-0.02,-0.07,0.99,1.53,3.3,1.4,914.79,21.85,
5011611,-0.02,-0.06,0.99,1.34,3.42,1.34,914.83,21.85,
5011649,-0.02,-0.07,1.01,1.59,3.11,1.28,914.77,21.85,
5011688,-0.02,-0.07,1.0,1.53,2.75,1.46,914.81,21.85,
5011738,-0.02,-0.07,1.0,1.59,2.69,1.22,914.83,21.83,
5011776,-0.02,-0.07,0.99,1.65,2.5,1.28,914.8,21.84,
5011815,-0.01,-0.07,0.98,1.71,2.5,1.34,914.83,21.84,
5011853,-0.02,-0.07,0.97,1.95,2.38,1.28,914.86,21.85,
5011891,-0.02,-0.07,0.96,1.95,2.62,1.28,914.84,21.85,
5011929,-0.02,-0.06,0.97,1.83,2.38,1.22,914.86,21.84,
5011968,-0.02,-0.07,0.99,1.95,2.38,1.16,914.86,21.84,
5012006,-0.01,-0.08,0.98,2.08,2.08,1.16,914.88,21.85,
5012044,-0.02,-0.07,1.0,2.01,2.01,1.04,914.84,21.85,
5012082,-0.02,-0.07,1.0,2.14,1.95,0.98,914.85,21.86,
5012132,-0.03,-0.07,0.98,2.26,1.71,0.92,914.88,21.84,
5012171,-0.02,-0.07,0.98,2.38,1.83,0.85,914.82,21.85,
5012209,-0.01,-0.07,0.95,2.44,1.95,0.79,914.89,21.86,
5012247,-0.01,-0.07,0.92,2.56,1.71,0.73,914.89,21.86,
5012286,-0.01,-0.07,0.91,2.75,1.95,0.55,914.9,21.86,
5012324,-0.01,-0.07,0.91,2.87,2.14,0.37,914.83,21.86,
5012362,-0.02,-0.07,0.94,2.81,1.71,0.67,914.89,21.85,
5012400,-0.02,-0.07,0.94,2.81,1.46,0.43,914.9,21.86,
5012439,-0.02,-0.07,0.94,2.62,1.53,0.31,914.89,21.86,
5012477,-0.02,-0.07,0.95,2.81,1.95,0.24,914.9,21.86,
5012527,-0.02,-0.07,0.97,2.62,2.44,0.24,914.9,21.84,
5012565,-0.04,-0.07,0.96,2.38,2.56,0.24,914.87,21.84,
5012604,-0.03,-0.07,0.96,2.38,2.99,0.18,914.93,21.86,
5012642,-0.04,-0.07,0.95,2.2,3.23,0.31,914.89,21.86,
5012680,-0.03,-0.08,0.94,2.26,2.81,0.12,914.93,21.87,
5012718,-0.02,-0.07,0.93,2.01,2.69,0.18,914.91,21.85,
5012757,-0.04,-0.06,0.92,2.08,2.56,0.24,914.93,21.86,
5012795,-0.02,-0.07,0.94,2.01,2.14,0.37,914.89,21.86,
5012833,-0.03,-0.07,0.94,2.08,1.95,0.31,914.95,21.86,
5012909,-0.03,-0.08,0.94,1.95,1.83,0.43,915.01,21.83,
5012948,-0.03,-0.08,0.95,2.01,1.71,0.43,914.87,21.83,
5012986,-0.03,-0.07,0.94,1.83,1.65,0.43,914.98,21.84,
5013076,-0.03,-0.07,0.96,2.01,1.89,0.49,914.97,21.81,
5013114,-0.02,-0.07,0.98,1.95,2.08,0.43,914.95,21.81,
5013152,-0.04,-0.07,0.95,1.83,2.69,0.37,914.95,21.82,
5013191,-0.04,-0.06,1.0,1.89,2.69,0.49,914.98,21.85,
5013229,-0.03,-0.08,0.96,1.46,3.85,0.43,914.96,21.83,
5013267,-0.03,-0.06,1.01,1.4,2.69,0.49,914.99,21.83,
5013306,-0.02,-0.06,1.02,1.28,2.99,0.61,915.01,21.84,
5013356,-0.02,-0.07,1.03,1.34,1.65,0.55,915.02,21.83,
5013394,-0.01,-0.07,1.03,1.1,2.14,0.61,915.03,21.84,
5013432,-0.01,-0.06,1.0,0.79,0.98,0.55,915.04,21.85,
5013470,-0.02,-0.06,1.02,0.73,0.55,0.61,915.04,21.84,
5013509,-0.03,-0.07,0.98,0.61,-0.18,0.61,915.06,21.84,
5013547,-0.03,-0.07,1.05,0.92,-0.92,0.55,915.0,21.84,
5013585,-0.01,-0.07,1.03,0.24,-0.61,0.55,915.04,21.84,
5013624,-0.02,-0.06,1.07,0.61,-1.71,0.55,915.09,21.84,
5013662,-0.03,-0.07,1.04,0.67,-0.98,0.55,915.05,21.84,
5013700,-0.02,-0.07,1.02,1.1,-1.71,0.43,915.02,21.84,
5013750,-0.03,-0.07,0.98,1.22,-1.65,0.67,915.08,21.84,
5013788,-0.04,-0.06,0.97,1.46,-2.14,0.43,915.08,21.84,
5013827,-0.03,-0.07,0.92,1.22,-1.4,0.61,915.05,21.83,
5013865,-0.03,-0.06,0.97,1.83,-2.14,0.55,915.14,21.86,
5013903,-0.04,-0.08,0.96,1.59,-1.1,0.79,915.05,21.84,
5013942,-0.04,-0.07,0.97,1.46,-0.85,0.73,915.04,21.83,
5013980,-0.04,-0.06,1.0,1.77,-0.18,0.79,915.12,21.84,
5014018,-0.05,-0.07,0.93,1.59,0.18,0.92,915.12,21.85,
5014056,-0.04,-0.06,0.98,1.71,-0.43,0.79,915.11,21.85,
5014106,-0.03,-0.08,0.92,1.65,0.55,1.04,915.16,21.85,
5014145,-0.06,-0.07,0.94,1.89,0.43,1.28,915.09,21.85,
5014183,-0.04,-0.07,0.88,1.71,1.04,1.28,915.12,21.85,
5014221,-0.05,-0.07,0.91,1.95,0.49,1.34,915.13,21.84,
5014260,-0.05,-0.07,0.89,1.46,1.34,1.65,915.15,21.86,
5014298,-0.04,-0.06,0.9,1.71,0.73,1.71,915.13,21.85,
5014336,-0.05,-0.06,0.89,1.83,0.92,1.95,915.15,21.85,
5014375,-0.05,-0.07,0.87,1.83,0.92,1.95,915.07,21.84,
5014413,-0.05,-0.06,0.93,2.01,0.61,2.14,915.18,21.85,
5014451,-0.04,-0.07,0.9,1.4,1.28,2.32,915.16,21.85,
5014501,-0.05,-0.07,0.95,1.77,1.46,2.32,915.19,21.85,
5014540,-0.04,-0.07,0.92,1.28,2.62,2.69,915.2,21.85,
5014578,-0.03,-0.06,0.95,1.34,1.89,2.75,915.19,21.86,
5014616,-0.04,-0.07,0.92,1.16,2.62,2.81,915.2,21.86,
5014654,-0.04,-0.07,0.96,1.22,2.69,2.87,915.22,21.86,
5014693,-0.03,-0.07,0.95,1.1,3.11,2.99,915.22,21.86,
5014731,-0.05,-0.06,0.95,1.34,2.69,3.11,915.21,21.86,
5014769,-0.04,-0.07,0.97,1.4,3.36,3.17,915.23,21.85,
5014808,-0.03,-0.07,0.97,1.53,4.21,3.23,915.28,21.86,
5014846,-0.02,-0.07,0.96,1.65,4.46,3.05,915.27,21.86,
5014896,-0.04,-0.06,0.93,1.71,4.52,3.6,915.26,21.86,
5014934,-0.03,-0.07,0.94,1.59,5.92,3.48,915.28,21.86,
5014973,-0.02,-0.07,0.95,1.95,5.25,3.6,915.24,21.86,
5015011,-0.04,-0.07,0.99,2.14,4.82,3.72,915.28,21.86,
5015049,-0.03,-0.07,0.95,1.83,5.92,3.66,915.34,21.85,
5015088,-0.01,-0.06,1.01,2.2,5.62,3.72,915.32,21.86,
5015126,-0.03,-0.07,0.95,1.95,5.68,4.03,915.32,21.86,
5015164,-0.03,-0.07,0.96,2.32,4.88,4.33,915.34,21.87,
5015203,-0.01,-0.06,0.93,1.89,5.98,4.03,915.34,21.86,
5015253,0.0,-0.06,0.99,2.38,3.78,4.27,915.37,21.86,
5015291,-0.02,-0.08,0.92,1.83,4.03,4.27,915.38,21.85,
5015329,-0.03,-0.07,0.97,2.08,3.72,4.39,915.38,21.85,
5015368,0.01,-0.08,0.96,1.77,4.82,4.21,915.35,21.86,
5015406,-0.01,-0.07,0.93,1.53,3.97,4.15,915.41,21.86,
5015444,-0.02,-0.07,0.97,1.46,4.7,4.03,915.43,21.86,
5015483,0.01,-0.07,0.98,0.98,4.7,3.91,915.41,21.86,
5015521,0.02,-0.06,1.05,1.16,3.91,3.85,915.41,21.85,
5015559,-0.01,-0.07,1.0,1.1,4.52,3.85,915.45,21.86,
5015597,-0.01,-0.06,0.99,1.22,4.03,3.91,915.42,21.85,
5015647,-0.0,-0.08,0.99,1.4,4.52,3.72,915.49,21.86,
5015686,-0.02,-0.06,0.99,1.46,3.72,3.85,915.45,21.85,
5015724,-0.03,-0.06,1.01,2.08,3.23,3.85,915.46,21.85,
5015762,-0.03,-0.08,0.92,1.4,4.27,3.85,915.51,21.86,
5015801,-0.01,-0.06,1.01,1.65,3.11,3.78,915.45,21.85,
5015839,0.01,-0.08,0.97,0.92,4.03,3.66,915.56,21.86,
5015877,-0.02,-0.07,1.01,1.28,2.5,3.85,915.52,21.85,
5015915,-0.01,-0.07,0.99,1.34,3.42,3.78,915.61,21.87,
5015954,0.02,-0.07,0.99,1.22,3.42,3.72,915.53,21.86,
5015992,-0.0,-0.07,0.99,1.53,3.05,3.66,915.53,21.86,
5016068,-0.0,-0.07,1.01,1.59,2.62,3.48,915.54,21.83,
5016106,0.01,-0.07,0.96,1.1,2.81,3.36,915.55,21.84,
5016144,-0.0,-0.07,0.98,1.4,2.87,3.3,915.57,21.85,
5016234,-0.01,-0.08,0.99,0.98,4.33,3.05,915.57,21.82,
5016273,-0.01,-0.08,1.0,1.1,4.33,3.05,915.61,21.82,
5016311,0.01,-0.07,0.99,0.92,4.33,2.87,915.6,21.84,
5016349,0.01,-0.06,1.04,1.04,4.15,2.81,915.62,21.83,
5016388,0.01,-0.08,1.02,0.92,4.7,2.75,915.61,21.85,
5016426,0.0,-0.07,1.04,0.98,3.48,2.56,915.67,21.84,
5016476,0.0,-0.07,1.08,0.67,4.64,2.62,915.58,21.83,
5016514,-0.0,-0.06,1.1,0.73,4.15,2.5,915.64,21.84,
5016552,0.02,-0.07,1.15,0.85,4.09,2.26,915.7,21.86,
5016591,0.01,-0.07,1.13,0.98,3.85,2.08,915.72,21.85,
5016629,0.01,-0.07,1.11,0.85,3.97,1.89,915.69,21.84,
5016667,0.0,-0.06,1.12,1.34,3.66,2.01,915.69,21.85,
5016706,0.01,-0.07,1.08,1.28,3.36,1.83,915.69,21.85,
5016744,-0.0,-0.07,1.06,1.28,2.44,1.53,915.65,21.85,
5016782,-0.01,-0.08,1.06,1.34,2.87,1.53,915.67,21.86,
5016820,0.01,-0.08,1.05,1.28,2.44,1.4,915.66,21.83,
5016870,0.0,-0.07,1.04,0.98,2.56,1.28,915.73,21.84,
5016909,0.0,-0.07,1.04,0.92,2.69,1.28,915.76,21.86,
5016947,0.01,-0.08,1.03,0.85,2.62,0.98,915.73,21.84,
5016985,0.0,-0.07,1.05,0.92,2.26,0.79,915.74,21.86,
5017023,-0.0,-0.07,1.05,0.55,1.95,0.85,915.73,21.85,
5017062,-0.01,-0.07,1.04,0.61,1.83,0.79,915.8,21.85,
5017100,0.0,-0.07,1.05,0.61,1.65,0.67,915.76,21.84,
5017138,0.01,-0.07,1.06,0.49,1.53,0.43,915.77,21.85,
5017176,-0.01,-0.07,1.05,0.43,1.71,0.55,915.84,21.86,
5017215,-0.01,-0.06,1.06,0.92,1.95,0.43,915.8,21.86,
5017265,-0.0,-0.07,1.06,1.4,1.83,0.49,915.84,21.84,
5017303,-0.01,-0.07,1.04,1.28,1.65,0.24,915.82,21.84,
5017341,-0.0,-0.07,1.0,1.53,1.83,0.31,915.8,21.84,
5017379,-0.01,-0.07,1.0,1.46,2.08,0.06,915.79,21.85,
5017418,-0.0,-0.07,1.0,1.65,1.83,0.0,915.83,21.85,
5017456,-0.01,-0.07,0.99,1.65,1.46,0.12,915.88,21.85,
5017494,-0.01,-0.08,0.98,1.53,1.95,0.0,915.82,21.84,
5017532,-0.01,-0.07,0.98,1.4,2.14,-0.12,915.82,21.85,
5017571,-0.0,-0.06,1.02,1.46,2.14,-0.37,915.82,21.85,
5017609,-0.01,-0.07,1.0,1.53,2.2,-0.12,915.85,21.85,
5017659,-0.01,-0.07,1.01,1.59,2.75,-0.24,915.82,21.84,
5017697,-0.01,-0.07,1.0,1.59,3.05,-0.31,915.86,21.85,
5017735,-0.02,-0.07,0.99,1.46,2.69,-0.43,915.82,21.84,
5017774,-0.01,-0.06,1.01,1.28,2.93,-0.43,915.84,21.85,
5017812,-0.01,-0.07,1.01,1.28,3.36,-0.37,915.86,21.86,
5017850,-0.02,-0.07,1.03,1.34,2.93,-0.37,915.88,21.84,
5017889,-0.02,-0.06,1.02,1.34,3.36,-0.37,915.87,21.84,
5017927,-0.01,-0.06,1.05,1.46,3.23,-0.55,915.87,21.83,
5017965,-0.02,-0.06,1.05,1.53,3.78,-0.55,915.88,21.84,
5018015,-0.01,-0.06,1.06,1.77,3.91,-0.55,915.87,21.83,
5018053,-0.03,-0.07,1.05,1.65,4.33,-0.67,915.92,21.83,
5018091,-0.02,-0.06,1.05,1.71,4.27,-0.61,915.87,21.84,
5018130,-0.02,-0.07,1.07,1.83,4.15,-0.61,915.9,21.85,
5018168,-0.02,-0.07,1.03,1.83,4.09,-0.73,915.91,21.83,
5018206,-0.03,-0.06,1.07,2.01,4.21,-0.67,915.94,21.85,
5018244,-0.02,-0.07,1.03,1.89,4.82,-0.61,915.95,21.85,
5018283,-0.03,-0.06,1.07,2.2,4.46,-0.73,915.92,21.85,
5018321,-0.04,-0.06,1.04,2.14,5.0,-0.49,915.94,21.86,
5018359,-0.02,-0.07,1.01,2.2,5.31,-0.67,915.95,21.85,
5018409,-0.04,-0.06,1.01,2.2,5.92,-0.55,915.92,21.82,
5018447,-0.03,-0.06,0.99,1.95,5.68,-0.43,915.96,21.85,
5018486,-0.02,-0.07,1.01,2.14,5.86,-0.43,915.94,21.84,
5018524,-0.03,-0.08,0.98,1.46,6.16,-0.43,915.95,21.84,
5018562,-0.02,-0.06,1.0,1.53,5.55,-0.31,915.95,21.84,
5018600,-0.03,-0.07,1.0,1.53,5.55,-0.31,915.98,21.86,
5018639,-0.03,-0.06,1.01,1.4,5.31,-0.24,915.94,21.84,
5018677,-0.03,-0.07,1.02,1.53,4.94,-0.12,915.89,21.84,
5018715,-0.03,-0.07,1.0,1.34,4.52,-0.24,915.97,21.85,
5018765,-0.02,-0.06,1.04,1.53,4.39,-0.12,915.95,21.83,
5018803,-0.02,-0.07,1.02,1.34,4.27,-0.12,915.97,21.82,
5018842,-0.03,-0.06,1.04,1.16,3.72,0.12,915.94,21.85,
5018880,-0.03,-0.07,1.0,1.04,3.6,0.06,915.94,21.84,
5018918,-0.04,-0.06,1.01,0.98,2.93,0.06,915.94,21.83,
5018957,-0.03,-0.06,1.01,0.67,2.87,0.24,915.94,21.85,
5018995,-0.04,-0.06,1.01,0.79,2.62,0.0,915.93,21.84,
5019033,-0.04,-0.07,1.01,0.55,2.99,0.0,915.9,21.84,
5019071,-0.03,-0.06,1.02,0.31,3.17,0.12,915.93,21.84,
5019110,-0.04,-0.06,1.03,0.49,3.97,0.12,915.98,21.84,
5019186,-0.03,-0.07,1.02,0.49,3.6,0.18,915.96,21.81,
5019224,-0.04,-0.06,1.01,0.67,3.78,0.24,916.03,21.83,
5019262,-0.03,-0.06,1.01,0.79,3.97,0.0,916.01,21.82,
5019352,-0.04,-0.06,1.02,1.1,3.91,0.37,916.0,21.79,
5019390,-0.03,-0.08,1.02,1.22,4.21,0.12,916.06,21.81,
5019429,-0.04,-0.06,1.02,1.16,3.85,0.24,916.05,21.81,
5019467,-0.04,-0.05,1.07,1.46,3.48,0.24,916.06,21.81,
5019505,-0.03,-0.06,1.03,1.53,3.91,0.37,915.98,21.81,
5019544,-0.03,-0.06,1.08,1.95,3.6,0.24,916.04,21.82,
5019594,-0.04,-0.06,1.03,1.95,3.48,0.61,916.06,21.81,
5019632,-0.04,-0.06,1.04,2.08,2.93,0.49,916.02,21.81,
5019670,-0.04,-0.06,1.04,2.08,3.05,0.43,916.05,21.81,
5019708,-0.04,-0.06,1.03,2.44,2.62,0.61,916.07,21.83,
5019747,-0.03,-0.07,1.0,2.44,3.05,0.67,915.99,21.82,
5019785,-0.03,-0.06,1.01,2.69,2.5,0.43,916.06,21.82,
5019823,-0.04,-0.06,0.96,2.38,3.17,0.55,916.02,21.83,
5019862,-0.03,-0.06,0.96,2.75,2.56,0.61,916.05,21.83,
5019900,-0.03,-0.07,0.95,2.99,2.93,0.61,916.03,21.83,
5019938,-0.03,-0.07,0.93,2.75,3.23,0.73,916.04,21.85,
5019988,-0.03,-0.06,0.93,2.75,3.72,0.67,916.05,21.83,
5020026,-0.03,-0.07,0.89,2.87,4.21,0.67,916.02,21.83,
5020065,-0.02,-0.07,0.87,2.87,4.52,0.73,916.05,21.84,
5020103,-0.02,-0.07,0.86,3.23,4.7,0.61,916.05,21.83,
5020141,-0.02,-0.07,0.81,2.93,4.39,0.61,916.04,21.83,
5020179,-0.03,-0.06,0.85,3.36,3.97,0.55,916.03,21.83,
5020218,-0.02,-0.08,0.81,3.11,4.27,0.55,916.05,21.83,
5020256,-0.02,-0.07,0.86,3.11,2.69,0.73,916.09,21.83,
5020294,-0.01,-0.07,0.87,2.99,1.95,0.73,916.1,21.84,
5020333,-0.02,-0.06,0.89,2.62,0.92,0.73,916.08,21.84,
5020383,-0.02,-0.06,0.94,2.32,0.12,0.67,916.1,21.83,
5020421,-0.03,-0.07,0.96,2.32,-0.55,0.79,916.07,21.83,
5020459,-0.02,-0.06,0.98,2.14,-0.73,0.67,916.04,21.83,
5020498,-0.02,-0.06,1.01,2.2,-1.1,0.79,916.15,21.84,
5020536,-0.02,-0.06,1.03,2.2,-1.28,0.61,916.08,21.83,
5020574,-0.02,-0.03,1.03,2.75,-1.59,0.61,916.09,21.83,
5020612,-0.03,-0.06,1.02,2.93,-1.59,0.61,916.1,21.84,
5020651,-0.02,-0.06,1.01,3.05,-1.59,0.55,916.06,21.83,
5020689,-0.03,-0.06,0.99,3.23,-1.53,0.55,916.15,21.85,
5020739,-0.04,-0.06,0.93,3.11,-0.79,0.55,916.11,21.82,
5020777,-0.04,-0.06,0.91,3.6,-0.43,0.55,916.14,21.83,
5020816,-0.03,-0.06,0.87,3.54,-0.31,0.49,916.14,21.84,
5020854,-0.04,-0.06,0.84,3.72,0.06,0.61,916.15,21.85,
5020892,-0.04,-0.06,0.82,3.66,0.61,0.49,916.1,21.84,
5020930,-0.03,-0.07,0.82,3.72,0.61,0.49,916.16,21.84,
5020969,-0.04,-0.07,0.82,3.48,1.04,0.73,916.12,21.85,
5021007,-0.05,-0.07,0.84,3.17,1.77,0.67,916.11,21.84,
5021045,-0.04,-0.06,0.86,2.93,2.08,0.85,916.18,21.84,
5021084,-0.04,-0.06,0.86,2.69,2.38,0.79,916.16,21.84,
5021134,-0.05,-0.06,0.85,2.56,3.3,0.98,916.16,21.83,
5021172,-0.04,-0.06,0.88,2.56,3.91,0.85,916.21,21.82,
5021210,-0.04,-0.06,0.86,2.32,4.33,0.98,916.16,21.83,
5021248,-0.05,-0.06,0.88,2.26,4.82,1.22,916.21,21.84,
5021287,-0.04,-0.06,0.9,2.26,5.31,1.1,916.23,21.84,
5021325,-0.03,-0.06,0.92,2.26,5.0,1.28,916.14,21.83,
5021363,-0.04,-0.06,0.91,1.95,5.37,1.46,916.17,21.84,
5021402,-0.03,-0.06,0.91,1.89,5.49,1.34,916.23,21.85,
5021440,-0.03,-0.06,0.93,2.2,5.74,1.46,916.2,21.84,
5021490,-0.03,-0.06,0.96,2.2,5.37,1.65,916.26,21.83,
5021528,-0.03,-0.06,0.97,2.14,5.62,1.77,916.26,21.83,
5021567,-0.03,-0.06,0.98,2.14,5.25,1.83,916.31,21.85,
5021605,-0.03,-0.06,1.0,2.14,5.07,2.2,916.22,21.83,
5021643,-0.01,-0.06,1.0,2.01,4.64,2.08,916.29,21.84,
5021682,-0.02,-0.06,1.03,2.26,4.33,1.95,916.3,21.85,
5021720,-0.03,-0.05,1.02,2.38,4.58,2.08,916.32,21.85,
5021758,-0.03,-0.06,1.01,2.5,4.33,1.95,916.26,21.84,
5021797,-0.03,-0.06,1.02,2.38,4.33,2.01,916.32,21.84,
5021835,-0.03,-0.06,0.99,2.56,4.58,2.08,916.36,21.84,
5021885,-0.02,-0.06,1.01,2.69,4.21,2.14,916.3,21.83,
5021923,-0.02,-0.06,0.99,2.44,4.21,2.14,916.33,21.83,
5021962,-0.02,-0.06,1.0,2.93,3.72,2.08,916.32,21.83,
5022000,-0.02,-0.07,0.96,2.87,4.15,2.38,916.37,21.84,
5022038,-0.02,-0.06,0.96,2.99,3.36,2.26,916.39,21.84,
5022076,-0.02,-0.07,0.95,2.81,3.11,2.38,916.36,21.84,
5022115,-0.02,-0.06,0.93,2.87,2.87,2.26,916.36,21.84,
5022153,-0.02,-0.06,0.96,3.05,3.05,2.2,916.42,21.84,
5022191,-0.01,-0.07,0.92,2.75,3.36,2.32,916.37,21.83,
5022230,-0.02,-0.06,0.95,2.93,2.69,2.08,916.42,21.85,
5022306,-0.02,-0.06,0.95,2.62,2.99,2.01,916.41,21.82,
5022344,-0.01,-0.07,0.94,2.38,3.23,1.89,916.4,21.83,
5022382,-0.02,-0.06,0.96,2.44,2.5,1.95,916.38,21.82,
5022472,-0.02,-0.06,0.99,2.38,2.5,1.77,916.48,21.81,
5022510,-0.02,-0.06,0.98,2.2,2.81,1.89,916.55,21.81,
5022549,-0.02,-0.06,1.01,2.44,2.14,1.59,916.45,21.81,
5022587,-0.02,-0.07,0.98,2.14,2.56,1.77,916.46,21.82,
5022625,-0.02,-0.06,1.0,2.2,2.26,1.65,916.47,21.83,
5022664,-0.02,-0.06,0.99,2.26,3.05,1.4,916.48,21.82,
5022714,-0.02,-0.06,1.02,2.14,3.36,1.46,916.4,21.81,
5022752,-0.01,-0.07,1.01,1.83,4.46,1.28,916.53,21.82,
5022790,-0.02,-0.07,1.05,1.71,4.52,1.16,916.53,21.83,
5022829,-0.02,-0.06,1.08,1.46,5.25,1.16,916.54,21.83,
5022867,-0.01,-0.06,1.09,1.65,4.88,0.92,916.53,21.83,
5022905,-0.01,-0.05,1.12,1.4,4.27,0.92,916.55,21.83,
5022944,-0.0,-0.05,1.15,1.65,3.85,1.04,916.51,21.83,
5022982,-0.0,-0.06,1.15,1.34,3.42,1.04,916.54,21.83,
5023020,-0.01,-0.06,1.17,1.53,2.75,1.04,916.63,21.83,
5023058,-0.01,-0.06,1.16,1.46,2.5,0.79,916.59,21.85,
5023108,-0.01,-0.05,1.16,1.65,1.77,0.79,916.59,21.83,
5023146,-0.01,-0.06,1.1,1.77,1.71,0.73,916.53,21.84,
5023185,-0.01,-0.06,1.09,1.83,1.16,0.73,916.61,21.83,
5023223,-0.0,-0.06,1.09,1.89,1.4,0.55,916.63,21.84,
5023261,-0.02,-0.06,1.06,2.01,1.34,0.43,916.59,21.84,
5023299,-0.02,-0.06,1.08,2.01,1.34,0.49,916.62,21.84,
5023338,-0.01,-0.07,1.03,1.95,1.77,0.31,916.59,21.84,
5023376,-0.01,-0.06,1.05,1.89,1.22,0.24,916.65,21.85,
5023414,-0.01,-0.06,1.03,1.59,1.53,0.24,916.66,21.84,
5023453,-0.02,-0.06,1.03,1.89,1.34,0.12,916.6,21.84,
5023502,-0.01,-0.06,1.02,1.71,1.77,0.12,916.64,21.83,
5023541,-0.02,-0.06,1.05,1.34,1.1,0.12,916.63,21.85,
5023579,-0.02,-0.06,1.05,1.4,1.65,0.0,916.68,21.84,
5023617,-0.01,-0.06,1.06,1.46,1.28,0.0,916.66,21.83,
5023656,-0.02,-0.07,1.06,1.46,1.22,0.0,916.68,21.84,
5023694,-0.02,-0.06,1.04,1.34,0.79,-0.06,916.66,21.84,
5023732,-0.02,-0.06,1.03,1.59,1.34,-0.12,916.65,21.83,
5023770,-0.01,-0.07,1.0,1.53,1.34,-0.31,916.64,21.84,
5023808,-0.03,-0.06,1.01,1.71,0.67,-0.31,916.7,21.85,
5023858,-0.03,-0.07,0.98,1.83,0.73,-0.31,916.65,21.83,
5023897,-0.02,-0.06,1.0,1.89,0.67,-0.31,916.71,21.84,
5023935,-0.03,-0.07,1.02,1.83,0.85,-0.24,916.65,21.83,
5023973,-0.03,-0.07,1.01,2.08,1.16,-0.31,916.65,21.84,
5024012,-0.04,-0.07,1.04,2.44,1.46,-0.37,916.66,21.83,
5024050,-0.03,-0.07,1.04,2.14,2.14,-0.37,916.68,21.85,
5024088,-0.02,-0.06,1.02,2.08,1.34,-0.31,916.71,21.84,
5024126,-0.05,-0.06,1.03,2.08,1.77,-0.24,916.66,21.85,
5024165,-0.04,-0.07,1.03,1.83,2.2,-0.31,916.72,21.85,
5024203,-0.03,-0.07,1.05,2.01,2.08,-0.31,916.72,21.85,
5024253,-0.04,-0.06,1.06,1.95,2.32,-0.12,916.72,21.84,
5024291,-0.04,-0.06,1.07,1.83,2.2,-0.06,916.67,21.83,
5024330,-0.04,-0.07,1.07,1.83,2.32,-0.06,916.73,21.84,
5024368,-0.04,-0.06,1.09,1.65,2.01,0.06,916.71,21.84,
5024406,-0.05,-0.06,1.07,1.65,2.62,0.12,916.76,21.85,
5024444,-0.04,-0.07,1.07,1.65,2.93,0.06,916.74,21.84,
5024483,-0.04,-0.06,1.08,1.71,3.6,0.12,916.75,21.84,
5024521,-0.04,-0.06,1.06,1.65,3.97,0.24,916.75,21.84,
5024559,-0.04,-0.06,1.06,1.59,3.91,0.18,916.75,21.83,
5024609,-0.05,-0.06,1.04,1.83,4.27,0.31,916.8,21.83,
5024647,-0.04,-0.06,1.03,1.89,4.27,0.31,916.7,21.82,
5024686,-0.05,-0.06,1.0,1.89,4.21,0.43,916.69,21.81,
5024724,-0.04,-0.07,0.98,2.14,3.85,0.37,916.73,21.83,
5024762,-0.03,-0.06,0.98,2.44,3.6,0.55,916.7,21.83,
5024801,-0.04,-0.07,0.96,2.26,3.78,0.55,916.75,21.83,
5024839,-0.03,-0.07,0.95,2.2,3.48,0.61,916.74,21.83,
5024877,-0.05,-0.06,0.98,2.38,2.69,0.79,916.75,21.84,
5024915,-0.04,-0.07,0.96,2.14,3.11,0.85,916.73,21.84,
5024954,-0.04,-0.07,1.0,2.44,2.93,0.79,916.75,21.84,
5025004,-0.05,-0.07,0.95,2.08,2.87,0.98,916.72,21.82,
5025042,-0.04,-0.07,0.94,2.26,2.08,0.98,916.8,21.84,
5025080,-0.04,-0.07,0.91,2.26,2.69,1.1,916.77,21.85,
5025118,-0.05,-0.07,0.91,2.26,2.26,1.22,916.75,21.84,
5025157,-0.05,-0.07,0.93,2.2,2.32,1.22,916.71,21.84,
5025195,-0.05,-0.06,0.94,1.95,2.75,1.53,916.73,21.84,
5025233,-0.04,-0.07,0.96,1.71,3.11,1.53,916.74,21.83,
5025272,-0.06,-0.07,0.95,1.77,2.93,1.65,916.71,21.83,
5025310,-0.05,-0.06,0.94,1.77,3.11,1.71,916.77,21.84,
5025348,-0.05,-0.07,0.93,1.71,3.3,1.77,916.75,21.85,
5025497,-0.04,-0.06,0.99,1.77,3.05,2.32,916.82,21.78,
5025536,-0.04,-0.07,0.99,1.53,3.11,2.56,916.84,21.79,
5025574,-0.04,-0.07,1.01,1.71,3.3,2.5,916.8,21.81,
5025664,-0.04,-0.06,1.04,1.83,3.36,2.87,916.85,21.78,
5025702,-0.04,-0.07,1.04,2.01,3.6,2.69,916.82,21.78,
5025740,-0.03,-0.07,1.03,2.14,3.66,2.75,916.8,21.79,
5025779,-0.04,-0.06,1.03,2.38,3.97,2.87,916.87,21.8,
5025817,-0.03,-0.06,1.01,2.26,3.85,2.93,916.78,21.8,
5025855,-0.02,-0.07,1.02,2.14,3.6,2.93,916.85,21.8,
5025905,-0.04,-0.07,1.03,2.26,3.3,2.99,916.88,21.79,
5025944,-0.02,-0.07,1.03,2.2,3.66,3.11,916.9,21.81,
5025982,-0.03,-0.07,1.03,2.14,3.48,2.93,916.84,21.79,
5026020,-0.03,-0.07,1.04,2.38,3.36,3.23,916.84,21.8,
5026058,-0.02,-0.07,1.04,2.44,3.23,2.93,916.88,21.81,
5026097,-0.03,-0.07,1.03,2.14,3.11,2.99,916.93,21.81,
5026135,-0.03,-0.07,1.0,2.2,2.5,3.05,916.89,21.81,
5026173,-0.02,-0.07,1.01,2.26,1.83,2.99,916.9,21.81,
5026212,-0.02,-0.07,0.95,1.89,2.2,2.81,916.9,21.8,
5026250,-0.03,-0.06,0.99,2.01,1.46,2.99,916.86,21.82,
5026300,-0.03,-0.08,0.96,1.77,1.71,3.17,916.86,21.8,
5026338,-0.02,-0.07,0.98,1.77,1.16,2.99,916.85,21.81,
5026376,-0.03,-0.07,0.96,1.77,1.59,2.81,916.9,21.81,
5026415,-0.02,-0.07,0.95,1.77,1.22,2.87,916.92,21.82,
5026453,-0.02,-0.07,0.96,1.46,1.59,2.81,916.88,21.81,
5026491,-0.02,-0.08,0.94,1.53,1.59,2.81,916.89,21.81,
5026529,-0.02,-0.07,0.96,1.65,1.46,2.75,916.91,21.82,
5026568,-0.02,-0.07,0.94,1.4,1.83,2.62,916.97,21.82,
5026606,-0.01,-0.07,0.98,1.46,1.59,2.62,916.98,21.82,
5026644,-0.01,-0.07,0.99,1.34,1.95,2.81,916.87,21.82,
5026694,-0.01,-0.07,1.01,1.53,1.83,2.44,916.96,21.82,
5026733,-0.01,-0.07,1.01,1.34,2.2,2.32,916.96,21.82,
5026771,0.0,-0.07,1.05,1.34,1.71,2.26,916.98,21.82,
5026809,-0.0,-0.07,1.06,1.28,1.83,1.95,916.94,21.82,
5026847,-0.0,-0.07,1.07,1.53,1.16,2.14,917.01,21.82,
5026886,-0.0,-0.07,1.08,1.46,1.22,1.89,916.99,21.82,
5026924,0.0,-0.07,1.05,1.46,0.85,1.89,916.95,21.83,
5026962,-0.0,-0.07,1.06,1.53,0.79,1.83,916.99,21.84,
5027000,0.0,-0.07,1.02,1.53,0.92,1.59,917.01,21.84,
5027050,-0.0,-0.07,1.01,1.4,1.46,1.34,916.91,21.81,
5027089,0.0,-0.08,0.98,1.53,1.95,1.22,917.03,21.83,
5027127,-0.01,-0.07,0.98,1.4,1.83,0.98,917.0,21.82,
5027165,-0.03,-0.07,0.97,1.4,2.32,0.79,917.0,21.83,
5027203,0.0,-0.07,0.99,1.46,1.89,0.73,916.95,21.82,
5027242,-0.0,-0.07,1.0,1.46,2.08,0.79,916.99,21.83,
5027280,-0.0,-0.08,0.99,1.34,2.32,0.67,917.0,21.82,
5027318,-0.0,-0.07,0.98,1.4,2.44,0.43,917.04,21.83,
5027356,-0.0,-0.07,0.97,1.71,2.32,0.37,916.97,21.83,
5027395,-0.01,-0.08,0.96,1.95,2.2,0.37,917.0,21.83,
5027445,-0.01,-0.08,0.94,1.71,2.5,0.18,917.04,21.81,
5027483,-0.01,-0.07,0.97,1.83,2.32,0.18,916.98,21.83,
5027521,-0.01,-0.08,0.97,1.65,2.26,0.18,917.05,21.82,
5027559,-0.01,-0.07,1.0,1.59,2.14,-0.12,916.97,21.82,
5027598,-0.01,-0.07,1.03,1.34,2.5,-0.12,917.05,21.83,
5027636,-0.01,-0.07,1.05,1.53,2.75,-0.12,917.05,21.83,
5027674,-0.01,-0.07,1.06,1.34,3.23,-0.24,917.06,21.82,
5027712,-0.02,-0.07,1.06,1.22,2.87,-0.49,917.05,21.84,
5027751,-0.01,-0.07,1.09,1.34,3.11,-0.49,917.06,21.83,
5027789,-0.01,-0.07,1.08,1.34,3.42,-0.61,917.04,21.83,
5027839,-0.01,-0.07,1.05,1.53,3.36,-0.55,917.07,21.82,
5027877,-0.01,-0.07,1.0,1.46,3.11,-0.61,917.06,21.82,
5027915,-0.01,-0.07,0.97,1.71,3.3,-0.79,917.03,21.82,
5027954,-0.01,-0.08,0.93,1.71,3.48,-0.73,916.99,21.81,
5027992,-0.01,-0.08,0.92,1.59,2.87,-0.67,917.06,21.83,
5028030,-0.03,-0.07,0.95,1.65,2.69,-0.67,917.02,21.82,
5028069,-0.02,-0.08,0.95,1.34,3.36,-0.85,917.01,21.83,
5028107,-0.02,-0.08,1.0,1.46,2.93,-0.73,917.01,21.83,
5028145,-0.02,-0.08,0.99,1.34,2.93,-0.73,917.02,21.82,
5028195,-0.03,-0.07,0.97,1.34,3.17,-0.79,917.05,21.82,
5028233,-0.02,-0.08,0.97,1.4,3.36,-0.79,917.02,21.82,
5028272,-0.03,-0.07,0.98,1.28,2.99,-0.67,917.04,21.82,
5028310,-0.03,-0.08,0.94,1.04,3.36,-0.79,917.05,21.83,
5028348,-0.03,-0.07,0.96,0.98,3.66,-0.92,917.01,21.81,
5028386,-0.03,-0.07,0.97,0.92,3.85,-0.79,917.0,21.82,
5028425,-0.04,-0.07,0.97,1.04,3.42,-0.61,916.99,21.82,
5028463,-0.05,-0.08,0.96,0.98,3.66,-0.61,916.97,21.83,
5028501,-0.04,-0.07,0.99,1.04,3.66,-0.49,917.01,21.82,
5028540,-0.03,-0.08,0.96,1.22,4.09,-0.37,917.04,21.83,
5028615,-0.04,-0.08,0.96,1.16,3.85,-0.18,917.07,21.8,
5028654,-0.04,-0.08,0.96,1.1,3.48,-0.18,917.03,21.81,
5028692,-0.04,-0.07,1.0,0.67,3.23,0.06,917.03,21.81,
5028782,-0.04,-0.07,1.01,0.55,2.5,0.24,917.03,21.78,
5028820,-0.03,-0.08,0.99,0.24,2.99,0.24,917.04,21.8,
5028859,-0.04,-0.07,1.03,0.61,2.32,0.37,917.05,21.81,
5028897,-0.05,-0.07,0.99,0.43,2.69,0.24,917.01,21.8,
5028935,-0.04,-0.07,1.02,0.49,2.08,0.61,917.08,21.79,
5028973,-0.04,-0.07,1.02,0.37,2.62,0.49,917.06,21.81,
5029024,-0.03,-0.06,1.05,0.61,2.2,0.61,917.06,21.8,
5029062,-0.04,-0.07,1.02,0.43,2.69,0.73,917.03,21.79,
5029100,-0.04,-0.07,1.04,0.55,2.2,0.73,917.13,21.81,
5029138,-0.04,-0.07,1.03,0.61,2.44,0.85,917.09,21.81,
5029176,-0.04,-0.08,1.03,0.79,1.95,0.98,917.05,21.81,
5029215,-0.04,-0.07,1.01,0.85,2.44,0.85,917.04,21.8,
5029253,-0.03,-0.07,1.0,0.85,2.81,0.92,917.14,21.82,
5029291,-0.04,-0.07,1.02,0.85,2.81,1.04,917.11,21.82,
5029329,-0.04,-0.07,1.01,0.55,2.56,1.22,917.06,21.81,
5029368,-0.04,-0.07,1.02,0.61,2.62,1.16,917.11,21.82,
5029418,-0.03,-0.07,1.02,0.49,2.2,1.16,917.05,21.8,
5029456,-0.05,-0.07,1.01,0.67,1.95,1.28,917.11,21.81,
5029494,-0.04,-0.08,0.99,0.85,1.95,1.34,917.09,21.82,
5029532,-0.04,-0.07,1.0,0.85,1.89,1.53,917.08,21.81,
5029571,-0.04,-0.07,1.0,0.92,1.95,1.46,917.11,21.82,
5029609,-0.05,-0.07,1.01,1.04,2.32,1.59,917.08,21.82,
5029647,-0.04,-0.07,1.01,0.98,2.81,1.53,917.11,21.84,
5029685,-0.05,-0.07,1.02,0.98,2.99,1.65,917.06,21.83,
5029724,-0.05,-0.07,1.04,0.98,3.3,1.71,917.08,21.83,
5029774,-0.04,-0.07,1.04,0.92,4.21,1.89,917.13,21.82,
5029812,-0.04,-0.07,1.05,1.22,4.21,2.08,917.09,21.83,
5029850,-0.03,-0.07,1.06,1.28,4.03,2.2,917.04,21.83,
5029888,-0.03,-0.07,1.05,1.65,4.09,2.08,917.08,21.83,
5029927,-0.03,-0.06,1.07,1.59,3.85,2.26,917.1,21.84,
5029965,-0.04,-0.07,1.06,1.34,3.72,2.32,917.11,21.83,
5030003,-0.04,-0.07,1.06,1.77,3.3,2.5,917.1,21.83,
5030041,-0.04,-0.07,1.05,1.65,3.42,2.62,917.15,21.83,
5030080,-0.03,-0.06,1.02,1.71,3.36,2.69,917.14,21.83,
5030118,-0.03,-0.07,1.03,1.89,2.99,2.75,917.11,21.83,
5030168,-0.03,-0.07,1.0,1.83,3.42,2.81,917.15,21.84,
5030206,-0.03,-0.07,1.02,1.46,3.23,2.81,917.14,21.84,
5030244,-0.04,-0.07,1.01,1.22,3.17,2.93,917.12,21.82,
5030283,-0.03,-0.07,1.03,1.04,2.75,2.93,917.1,21.82,
5030321,-0.04,-0.07,1.0,0.85,2.99,2.81,917.08,21.83,
5030359,-0.03,-0.07,1.02,0.92,2.5,2.93,917.12,21.83,
5030397,-0.03,-0.07,1.0,0.67,2.93,2.93,917.12,21.84,
5030436,-0.03,-0.07,1.01,0.79,2.81,2.87,917.13,21.84,
5030474,-0.02,-0.07,1.03,0.61,3.23,2.87,917.1,21.83,
5030512,-0.02,-0.07,1.02,0.67,3.23,2.99,917.12,21.82,
5030562,-0.02,-0.07,1.07,1.16,2.75,2.81,917.22,21.83,
5030600,-0.02,-0.07,1.06,1.22,2.87,2.69,917.17,21.83,
5030639,-0.02,-0.06,1.08,1.34,2.38,2.87,917.14,21.82,
5030677,-0.02,-0.07,1.07,1.53,2.75,2.87,917.15,21.82,
5030715,-0.03,-0.07,1.03,1.28,2.38,2.81,917.13,21.82,
5030753,-0.03,-0.07,1.06,1.59,2.38,2.81,917.2,21.82,
5030792,-0.02,-0.07,1.04,1.77,1.95,2.75,917.11,21.82,
5030830,-0.02,-0.07,1.04,2.08,1.89,2.75,917.18,21.83,
5030868,-0.03,-0.07,1.02,2.08,1.95,2.75,917.2,21.83,
5030918,-0.02,-0.07,1.02,2.62,1.95,2.62,917.18,21.82,
5030956,-0.03,-0.08,1.0,2.56,1.89,2.81,917.17,21.82,
5030995,-0.03,-0.07,1.0,2.62,1.65,2.62,917.12,21.82,
5031033,-0.02,-0.07,0.99,2.56,1.83,2.62,917.18,21.82,
5031071,-0.02,-0.07,0.96,2.5,1.95,2.69,917.15,21.84,
5031110,-0.02,-0.07,0.96,2.62,1.95,2.69,917.21,21.84,
5031148,-0.02,-0.07,0.94,2.56,2.08,2.62,917.17,21.82,
5031186,-0.02,-0.07,0.96,2.56,2.14,2.44,917.16,21.83,
5031224,-0.01,-0.07,0.94,2.5,2.32,2.44,917.17,21.84,
5031263,-0.02,-0.07,0.97,2.56,1.59,2.38,917.16,21.83,
5031313,-0.02,-0.07,0.97,2.26,1.77,2.26,917.1,21.81,
5031351,-0.02,-0.07,0.98,2.26,1.28,2.26,917.2,21.83,
5031389,-0.01,-0.07,0.97,2.14,1.28,2.2,917.16,21.84,
5031427,-0.02,-0.07,0.97,2.26,1.1,2.2,917.16,21.83,
5031466,-0.01,-0.07,0.98,1.89,1.53,2.14,917.2,21.84,
5031504,-0.01,-0.07,0.99,1.95,1.1,2.14,917.16,21.83,
5031542,-0.01,-0.07,1.02,2.14,1.34,1.95,917.18,21.84,
5031580,-0.01,-0.07,0.98,2.08,1.46,1.89,917.17,21.83,
5031619,-0.02,-0.06,1.02,2.2,0.61,1.65,917.22,21.85,
5031657,-0.0,-0.07,1.01,2.14,1.1,1.77,917.23,21.84,
5031733,-0.01,-0.07,1.02,2.26,1.65,1.65,917.18,21.81,
5031771,-0.0,-0.07,1.0,2.32,0.85,1.65,917.16,21.82,
5031809,-0.01,-0.07,1.05,2.69,0.31,1.4,917.18,21.81,
5031899,-0.02,-0.06,0.99,2.62,1.59,1.53,917.18,21.79,
5031938,-0.01,-0.07,1.01,2.56,1.53,1.22,917.17,21.81,
5031976,-0.02,-0.07,0.98,2.75,1.89,1.34,917.14,21.8,
5032014,-0.0,-0.07,0.98,2.75,2.5,1.34,917.16,21.81,
5032053,-0.01,-0.06,0.97,3.05,2.38,1.28,917.26,21.82,
5032091,-0.01,-0.07,0.94,3.05,2.32,1.22,917.16,21.82,
5032141,-0.01,-0.07,0.95,2.99,2.26,1.1,917.19,21.81,
5032179,-0.01,-0.07,0.92,2.75,3.05,1.04,917.13,21.81,
5032217,-0.01,-0.07,0.94,2.93,2.81,1.04,917.14,21.81,
5032256,-0.01,-0.07,0.9,2.69,3.42,0.92,917.16,21.82,
5032294,-0.01,-0.07,0.93,2.93,2.81,0.98,917.19,21.81,
5032332,-0.01,-0.08,0.92,2.69,3.6,1.04,917.17,21.82,
5032370,-0.01,-0.07,0.9,2.87,2.69,0.85,917.14,21.83,
5032409,-0.02,-0.07,0.93,2.87,3.11,0.92,917.15,21.83,
5032447,-0.01,-0.07,0.92,2.87,3.23,0.79,917.17,21.83,
5032485,-0.02,-0.07,0.96,3.11,3.11,0.79,917.17,21.83,
5032535,-0.01,-0.07,0.95,2.93,3.72,0.73,917.16,21.82,
5032574,-0.01,-0.07,0.96,2.81,3.66,0.98,917.13,21.83,
5032612,-0.02,-0.07,0.94,2.87,3.78,0.79,917.17,21.82,
5032650,-0.02,-0.07,0.93,2.99,4.09,0.92,917.2,21.83,
5032688,-0.01,-0.07,0.93,2.69,4.15,0.79,917.12,21.83,
5032727,-0.01,-0.08,0.96,2.93,4.21,0.73,917.13,21.83,
5032765,-0.01,-0.08,0.95,2.93,4.21,0.79,917.11,21.82,
5032803,-0.01,-0.07,0.97,2.93,3.91,0.61,917.12,21.83,
5032841,-0.01,-0.08,0.94,2.75,4.21,0.55,917.18,21.84,
5032880,-0.02,-0.08,0.93,2.62,3.97,0.55,917.2,21.83,
5032930,-0.02,-0.07,0.93,2.56,3.91,0.49,917.17,21.82,
5032968,-0.01,-0.07,0.95,2.5,3.23,0.55,917.14,21.83,
5033006,-0.01,-0.07,0.96,2.38,2.81,0.67,917.13,21.83,
5033045,-0.02,-0.07,0.96,2.32,2.81,0.67,917.12,21.82,
5033083,-0.02,-0.08,0.97,2.2,2.62,0.61,917.21,21.84,
5033121,-0.01,-0.07,0.98,1.95,2.56,0.61,917.17,21.83,
5033159,-0.01,-0.07,0.98,1.95,2.38,0.61,917.16,21.84,
5033198,-0.02,-0.08,0.96,1.89,3.11,0.61,917.17,21.83,
5033236,-0.02,-0.07,0.97,1.71,3.54,0.37,917.16,21.83,
5033286,-0.01,-0.07,0.95,1.53,3.66,0.61,917.18,21.82,
5033324,-0.02,-0.08,0.95,1.65,3.66,0.31,917.16,21.82,
5033363,-0.01,-0.07,0.96,1.59,3.97,0.49,917.19,21.83,
5033401,-0.01,-0.07,0.97,1.77,3.85,0.37,917.15,21.83,
5033439,-0.03,-0.07,0.98,1.65,3.72,0.37,917.19,21.83,
5033477,-0.02,-0.07,1.01,1.59,3.78,0.43,917.16,21.84,
5033516,-0.02,-0.07,1.02,1.53,4.03,0.49,917.2,21.83,
5033554,-0.02,-0.07,1.05,1.71,3.36,0.43,917.21,21.84,
5033592,-0.02,-0.07,1.04,1.65,3.78,0.49,917.24,21.84,
5033630,-0.03,-0.07,1.05,1.65,3.23,0.61,917.23,21.85,
5033680,-0.02,-0.07,1.06,1.65,3.72,0.61,917.21,21.83,
5033719,-0.02,-0.07,1.03,1.83,3.3,0.49,917.2,21.82,
5033757,-0.02,-0.07,1.01,1.89,3.97,0.49,917.23,21.83,
5033795,-0.02,-0.07,0.99,1.77,4.03,0.55,917.27,21.82,
5033833,-0.02,-0.07,1.0,1.71,3.97,0.37,917.2,21.82,
5033872,-0.01,-0.07,0.99,1.65,4.33,0.61,917.2,21.82,
5033910,-0.02,-0.07,0.99,1.59,4.33,0.55,917.22,21.82,
5033948,-0.01,-0.07,1.0,1.59,4.33,0.55,917.13,21.82,
5033987,-0.02,-0.07,1.0,1.53,4.46,0.55,917.22,21.83,
5034025,-0.02,-0.07,1.01,1.59,4.03,0.55,917.26,21.82,
5034075,-0.02,-0.07,1.0,1.46,3.97,0.49,917.2,21.81,
5034113,-0.02,-0.07,1.0,1.4,3.42,0.61,917.23,21.8,
5034151,-0.01,-0.07,1.0,1.59,3.11,0.55,917.18,21.81,
5034190,-0.01,-0.07,0.99,1.46,3.05,0.43,917.24,21.82,
5034228,-0.02,-0.07,1.01,1.53,2.56,0.55,917.2,21.82,
5034266,-0.02,-0.07,1.03,1.83,2.93,0.61,917.27,21.82,
5034305,-0.01,-0.07,1.02,1.46,2.69,0.49,917.21,21.82,
5034343,-0.01,-0.07,1.04,1.71,2.69,0.43,917.24,21.82,
5034381,-0.02,-0.08,1.01,1.59,2.62,0.67,917.25,21.82,
5034431,-0.02,-0.07,1.0,1.46,3.05,0.49,917.27,21.81,
5034469,-0.02,-0.07,0.99,1.65,2.69,0.49,917.3,21.82,
5034507,-0.02,-0.07,0.98,1.46,2.5,0.55,917.23,21.82,
5034546,-0.02,-0.07,0.98,1.46,2.93,0.37,917.24,21.83,
5034584,-0.02,-0.07,1.01,1.4,2.81,0.49,917.27,21.83,
5034622,-0.01,-0.07,1.0,1.22,2.99,0.43,917.17,21.83,
5034661,-0.02,-0.07,1.02,1.46,2.44,0.43,917.24,21.82,
5034699,-0.02,-0.07,1.01,1.34,2.81,0.37,917.21,21.82,
5034737,-0.02,-0.07,1.01,1.53,2.87,0.37,917.25,21.82,
5034775,-0.02,-0.07,1.0,1.16,2.75,0.31,917.2,21.83,
5034852,-0.02,-0.07,1.02,1.28,2.56,0.24,917.23,21.79,
5034890,-0.02,-0.07,1.04,1.4,2.14,0.31,917.24,21.81,
5034928,-0.01,-0.07,1.04,1.22,2.32,0.31,917.22,21.81,
5035018,-0.02,-0.07,1.04,1.28,2.44,0.49,917.21,21.79,
5035056,-0.02,-0.07,1.04,1.46,2.56,0.31,917.25,21.79,
5035094,-0.02,-0.07,1.01,1.59,2.81,0.24,917.28,21.79,
5035133,-0.03,-0.07,1.03,1.59,3.17,0.24,917.24,21.79,
5035171,-0.02,-0.08,1.04,1.65,3.54,0.24,917.24,21.8,
5035209,-0.02,-0.07,1.03,1.65,3.6,0.18,917.27,21.81,
5035247,-0.02,-0.07,1.03,1.71,3.54,0.18,917.2,21.81,
5035297,-0.02,-0.08,1.0,1.53,3.66,0.37,917.2,21.79,
5035336,-0.02,-0.06,0.99,1.4,2.93,0.37,917.2,21.82,
5035374,-0.02,-0.07,0.98,1.53,3.48,0.18,917.21,21.8,
5035412,-0.02,-0.07,0.94,1.04,3.3,0.18,917.22,21.81,
5035450,-0.03,-0.07,1.03,1.53,2.38,0.31,917.21,21.82,
5035489,-0.02,-0.08,0.99,1.1,3.36,0.18,917.26,21.82,
5035527,-0.03,-0.07,1.02,1.46,2.87,0.18,917.21,21.81,
5035565,-0.02,-0.07,1.05,1.34,3.54,0.18,917.24,21.82,
5035604,-0.02,-0.07,1.03,1.59,3.3,0.18,917.22,21.82,
5035653,-0.03,-0.07,1.05,1.53,3.85,0.18,917.23,21.81,
5035692,-0.02,-0.07,1.06,1.71,3.91,0.06,917.23,21.82,
5035730,-0.02,-0.07,1.07,1.83,3.97,0.18,917.21,21.81,
5035768,-0.02,-0.07,1.07,2.01,3.85,0.12,917.26,21.82,
5035806,-0.01,-0.06,1.08,2.01,3.85,0.24,917.21,21.81,
5035845,-0.02,-0.07,1.04,1.95,3.97,0.12,917.22,21.81,
5035883,-0.03,-0.07,1.04,2.2,3.66,0.37,917.25,21.82,
5035921,-0.02,-0.07,1.03,2.08,3.97,0.18,917.24,21.82,
5035959,-0.02,-0.07,1.03,2.2,3.91,0.24,917.23,21.82,
5035998,-0.02,-0.07,1.02,2.08,4.03,0.24,917.26,21.83,
5036048,-0.03,-0.07,1.01,2.2,3.97,0.24,917.24,21.82,
5036086,-0.02,-0.07,1.03,2.14,3.85,0.18,917.22,21.82,
5036124,-0.02,-0.07,1.01,2.26,4.21,0.12,917.26,21.84,
5036162,-0.02,-0.07,1.0,2.08,4.15,0.18,917.22,21.83,
5036201,-0.02,-0.07,0.98,2.2,4.27,0.18,917.19,21.82,
5036239,-0.03,-0.08,0.96,2.32,4.64,0.18,917.24,21.83,
5036277,-0.02,-0.07,0.95,2.5,4.64,0.06,917.19,21.82,
5036315,-0.02,-0.07,0.95,2.44,5.19,0.06,917.17,21.82,
5036354,-0.03,-0.07,0.96,2.38,5.19,0.12,917.22,21.83,
5036392,-0.02,-0.08,0.95,2.62,5.31,0.0,917.17,21.83,
5036442,-0.03,-0.07,0.93,2.69,5.92,0.06,917.19,21.82,
5036480,-0.03,-0.07,0.92,2.75,5.92,-0.12,917.21,21.82,
5036518,-0.02,-0.07,0.87,2.56,6.04,0.06,917.22,21.83,
5036557,-0.03,-0.07,0.85,2.81,5.86,0.0,917.18,21.82,
5036595,-0.02,-0.08,0.84,2.56,6.04,0.12,917.2,21.82,
5036633,-0.02,-0.08,0.83,2.56,5.55,0.0,917.17,21.83,
5036671,-0.03,-0.07,0.82,2.62,5.0,0.06,917.1,21.83,
5036710,-0.02,-0.07,0.83,2.44,4.82,0.0,917.14,21.82,
5036748,-0.01,-0.08,0.83,2.5,4.52,0.18,917.19,21.83,
5036798,-0.01,-0.07,0.83,2.26,4.21,0.18,917.19,21.81,
5036836,-0.03,-0.08,0.82,1.95,3.97,0.06,917.17,21.82,
5036875,-0.02,-0.08,0.85,1.65,3.6,0.12,917.19,21.82,
5036913,-0.02,-0.07,0.87,1.71,3.11,0.0,917.2,21.83,
5036951,-0.03,-0.07,0.86,1.59,3.91,0.12,917.2,21.82,
5036989,-0.02,-0.07,0.88,1.59,3.54,-0.12,917.16,21.82,
5037028,-0.01,-0.07,0.9,1.53,3.66,-0.06,917.19,21.82,
5037066,-0.02,-0.08,0.91,1.53,3.42,-0.12,917.18,21.82,
5037104,-0.03,-0.08,0.92,1.59,3.78,0.0,917.15,21.81,
5037142,-0.03,-0.07,0.92,1.71,3.6,-0.12,917.2,21.83,
5037192,-0.02,-0.07,0.93,1.65,3.85,-0.06,917.18,21.81,
5037231,-0.01,-0.07,0.92,1.53,3.97,-0.24,917.21,21.82,
5037269,-0.01,-0.07,0.96,1.65,4.15,-0.24,917.2,21.81,
5037307,-0.01,-0.07,0.99,1.77,3.6,-0.18,917.19,21.81,
5037345,-0.02,-0.07,1.01,1.65,3.17,-0.31,917.14,21.81,
5037384,-0.03,-0.07,1.03,1.4,2.87,-0.31,917.21,21.82,
5037422,-0.02,-0.07,1.03,1.53,2.93,-0.24,917.23,21.82,
5037460,-0.02,-0.07,1.03,1.59,2.5,-0.31,917.19,21.81,
5037498,-0.02,-0.07,1.02,1.71,2.32,-0.49,917.21,21.83,
5037548,-0.01,-0.06,0.99,1.53,2.32,-0.37,917.23,21.81,
5037587,-0.03,-0.06,0.98,1.71,2.38,-0.67,917.24,21.82,
5037625,-0.02,-0.07,0.97,1.77,2.62,-0.43,917.28,21.83,
5037663,-0.01,-0.07,0.99,1.83,1.83,-0.61,917.3,21.83,
5037702,-0.01,-0.07,0.96,1.65,1.95,-0.79,917.22,21.82,
5037740,-0.02,-0.07,0.97,1.83,1.89,-0.67,917.23,21.83,
5037778,-0.01,-0.07,0.97,1.65,1.89,-0.79,917.27,21.83,
5037817,-0.02,-0.07,1.0,1.95,1.22,-0.79,917.27,21.83,
5037855,-0.02,-0.07,0.96,1.77,1.83,-1.04,917.24,21.81,
5037893,-0.02,-0.07,0.98,1.77,1.16,-0.92,917.27,21.83,
5037969,-0.02,-0.06,1.01,1.71,0.49,-1.04,917.27,21.78,
5038007,-0.03,-0.07,1.01,1.59,0.79,-1.04,917.22,21.79,
5038046,-0.01,-0.07,1.03,1.4,0.98,-1.4,917.25,21.81,
5038136,-0.04,-0.05,1.0,1.04,0.67,-1.22,917.22,21.76,
5038174,-0.04,-0.06,1.03,0.73,1.28,-1.22,917.24,21.77,
5038212,-0.0,-0.06,1.08,1.04,0.49,-1.28,917.26,21.79,
5038250,-0.03,-0.06,1.08,1.34,0.98,-1.34,917.25,21.78,
5038289,-0.04,-0.06,1.11,1.77,1.1,-0.98,917.22,21.78,
5038327,-0.02,-0.06,1.07,1.53,1.89,-1.22,917.29,21.79,
5038377,-0.03,-0.06,1.12,1.95,1.95,-1.34,917.31,21.77,
5038415,-0.03,-0.07,1.07,1.83,2.01,-1.28,917.25,21.79,
5038454,-0.04,-0.06,1.08,2.32,2.26,-1.4,917.27,21.8,
5038492,-0.03,-0.06,1.07,2.14,3.23,-1.53,917.26,21.79,
5038530,-0.05,-0.06,1.06,2.44,3.66,-1.1,917.3,21.8,
5038568,-0.04,-0.06,1.04,2.56,3.85,-1.28,917.28,21.8,
5038607,-0.04,-0.07,1.03,2.69,4.15,-1.34,917.33,21.8,
5038645,-0.04,-0.05,1.02,2.62,4.15,-1.16,917.33,21.81,
5038683,-0.03,-0.06,1.0,2.56,4.03,-1.1,917.25,21.81,
5038722,-0.04,-0.06,0.99,2.69,4.21,-1.1,917.24,21.81,
5038772,-0.04,-0.07,0.96,2.62,4.15,-0.79,917.29,21.79,
5038810,-0.05,-0.07,0.97,2.62,3.23,-0.79,917.26,21.81,
5038848,-0.04,-0.06,0.96,2.32,3.3,-0.79,917.24,21.81,
5038886,-0.04,-0.06,0.97,2.26,2.93,-0.73,917.21,21.82,
5038925,-0.05,-0.07,0.96,2.2,3.05,-0.61,917.24,21.82,
5038963,-0.04,-0.07,0.96,1.95,2.93,-0.37,917.28,21.82,
5039001,-0.05,-0.06,0.95,2.01,2.44,-0.31,917.26,21.82,
5039040,-0.05,-0.07,0.91,1.83,2.5,-0.06,917.24,21.81,
5039078,-0.03,-0.06,0.93,1.95,2.2,-0.12,917.28,21.81,
5039128,-0.04,-0.07,0.89,1.77,1.71,0.12,917.3,21.8,
5039166,-0.04,-0.07,0.92,1.77,0.98,0.18,917.23,21.8,
5039204,-0.04,-0.07,0.92,1.65,1.65,0.18,917.3,21.8,
5039243,-0.04,-0.07,0.91,1.95,0.92,0.18,917.26,21.81,
5039281,-0.05,-0.07,0.88,1.95,1.34,0.18,917.3,21.8,
5039319,-0.04,-0.07,0.88,1.77,1.04,0.31,917.27,21.81,
5039358,-0.04,-0.07,0.89,1.65,1.4,0.37,917.31,21.81,
5039396,-0.02,-0.07,0.89,1.22,1.65,0.43,917.27,21.81,
5039434,-0.04,-0.07,0.94,1.83,1.28,0.37,917.24,21.8,
5039472,-0.03,-0.07,0.95,1.65,1.53,0.55,917.25,21.81,
5039522,-0.04,-0.06,0.96,1.77,1.4,0.43,917.23,21.79,
5039561,-0.04,-0.07,0.95,1.71,2.01,0.49,917.28,21.79,
5039599,-0.03,-0.06,0.98,1.89,1.83,0.49,917.33,21.8,
5039637,-0.05,-0.06,0.97,1.89,2.32,0.49,917.29,21.79,
5039675,-0.04,-0.06,1.0,2.2,2.62,0.61,917.33,21.8,
5039714,-0.04,-0.07,0.99,1.95,3.42,0.55,917.32,21.81,
5039752,-0.04,-0.06,0.99,2.08,3.05,0.61,917.3,21.8,
5039790,-0.05,-0.07,1.0,2.32,2.75,0.92,917.28,21.79,
5039829,-0.05,-0.06,0.96,2.32,2.99,0.85,917.31,21.8,
5039867,-0.03,-0.06,1.06,2.81,2.87,0.79,917.33,21.81,
5039917,-0.03,-0.06,1.0,2.32,2.01,0.98,917.25,21.79,
5039955,-0.06,-0.07,1.03,2.81,2.26,1.4,917.27,21.79,
5039993,-0.04,-0.08,0.96,2.38,2.44,1.4,917.3,21.8,
5040032,-0.05,-0.06,1.01,2.62,0.73,1.28,917.34,21.8,
5040070,-0.06,-0.07,0.96,2.2,1.71,1.53,917.26,21.8,
5040108,-0.04,-0.07,0.93,2.56,1.77,1.59,917.34,21.81,
5040147,-0.04,-0.07,0.92,2.38,2.56,1.77,917.26,21.81,
5040185,-0.04,-0.07,0.89,2.69,1.46,1.77,917.33,21.81,
5040223,-0.06,-0.07,0.91,2.62,1.83,1.89,917.3,21.8,
5040273,-0.04,-0.07,0.92,2.75,2.01,2.01,917.33,21.79,
5040311,-0.04,-0.08,0.92,2.56,2.2,2.2,917.3,21.8,
5040350,-0.05,-0.08,0.9,2.32,2.2,2.2,917.32,21.8,
5040388,-0.05,-0.07,0.91,2.44,2.93,2.2,917.37,21.81,
5040426,-0.03,-0.06,0.9,2.26,2.81,2.44,917.36,21.82,
5040464,-0.03,-0.07,0.88,2.14,2.62,2.56,917.37,21.82,
5040503,-0.04,-0.07,0.88,1.89,2.62,2.32,917.35,21.81,
5040541,-0.03,-0.07,0.93,2.08,2.99,2.5,917.36,21.82,
5040579,-0.02,-0.08,0.95,1.95,2.81,2.75,917.34,21.81,
5040618,-0.03,-0.07,0.97,1.77,2.14,2.38,917.42,21.82,
5040668,-0.04,-0.07,0.97,1.83,2.81,2.5,917.4,21.8,
5040706,-0.03,-0.07,0.98,1.71,2.75,2.69,917.41,21.82,
5040744,-0.03,-0.07,0.98,1.71,2.38,2.56,917.35,21.81,
5040782,-0.04,-0.07,0.97,2.01,2.87,2.69,917.46,21.82,
5040821,-0.03,-0.07,0.96,2.01,2.81,2.62,917.47,21.83,
5040859,-0.02,-0.07,0.99,2.14,2.32,2.56,917.43,21.82,
5040897,-0.02,-0.07,0.98,2.01,2.14,2.56,917.43,21.83,
5040936,-0.02,-0.08,0.97,1.77,2.87,2.5,917.42,21.82,
5040974,-0.02,-0.07,0.99,1.77,2.26,2.62,917.43,21.82,
5041012,-0.03,-0.07,0.97,1.83,2.44,2.5,917.44,21.82,
5041088,-0.02,-0.07,0.96,1.83,3.23,2.5,917.47,21.79,
5041126,-0.02,-0.07,0.97,2.2,2.93,2.44,917.49,21.81,
5041165,-0.01,-0.07,0.95,1.95,3.85,2.26,917.47,21.81,
5041255,-0.01,-0.07,0.91,1.65,4.15,2.14,917.45,21.78,
5041293,-0.03,-0.07,0.89,1.95,3.91,2.01,917.5,21.8,
5041331,-0.02,-0.08,0.88,1.53,4.46,2.08,917.45,21.81,
5041369,-0.01,-0.08,0.86,1.53,4.39,1.95,917.49,21.8,
5041408,-0.02,-0.08,0.87,1.53,3.97,2.01,917.52,21.81,
5041446,-0.02,-0.08,0.85,1.28,4.03,1.77,917.51,21.81,
5041496,-0.03,-0.07,0.87,1.4,3.6,1.71,917.54,21.8,
5041534,-0.02,-0.07,0.89,1.34,3.17,1.83,917.57,21.81,
5041572,-0.01,-0.08,0.9,1.46,2.81,1.71,917.54,21.81,
5041611,-0.01,-0.08,0.9,1.1,2.62,1.59,917.56,21.82,
5041649,-0.02,-0.07,0.91,1.46,1.83,1.71,917.55,21.82,
5041687,-0.03,-0.07,0.91,1.1,1.4,1.77,917.49,21.82,
5041726,-0.02,-0.06,0.94,1.34,0.92,1.83,917.63,21.83,
5041764,-0.02,-0.07,0.97,1.22,1.4,1.89,917.59,21.83,
5041802,-0.01,-0.07,1.0,1.04,1.59,1.71,917.59,21.82,
5041841,-0.01,-0.07,1.02,0.92,1.83,1.59,917.59,21.83,
5041891,-0.04,-0.06,1.03,1.59,1.04,1.71,917.62,21.81,
5041929,-0.01,-0.08,0.97,1.34,1.65,1.77,917.6,21.82,
5041967,-0.01,-0.06,0.99,1.89,0.61,1.34,917.69,21.83,
5042006,-0.02,-0.07,0.94,1.65,1.65,1.46,917.64,21.82,
5042044,-0.02,-0.07,0.94,2.26,1.53,1.4,917.62,21.81,
5042082,-0.01,-0.07,0.96,1.95,1.83,1.46,917.61,21.82,
5042121,-0.01,-0.07,0.97,1.89,1.89,1.28,917.66,21.82,
5042159,-0.03,-0.06,0.98,2.01,2.08,1.22,917.65,21.81,
5042197,-0.02,-0.08,0.95,1.89,2.87,1.1,917.7,21.82,
5042235,-0.02,-0.07,0.96,1.95,3.23,0.98,917.71,21.83,
5042285,-0.02,-0.07,0.94,2.01,4.09,0.85,917.64,21.8,
5042324,-0.02,-0.07,0.93,2.08,4.52,0.79,917.74,21.82,
5042362,-0.01,-0.07,0.93,2.38,4.7,0.85,917.7,21.83,
5042400,-0.02,-0.08,0.93,2.26,5.19,0.85,917.74,21.81,
5042438,-0.01,-0.07,0.85,2.32,5.07,0.73,917.73,21.83,
5042477,-0.02,-0.07,0.87,2.69,4.21,0.61,917.78,21.82,
5042515,0.0,-0.07,0.8,2.26,4.7,0.67,917.71,21.82,
5042553,0.0,-0.07,0.84,2.62,3.42,0.55,917.72,21.83,
5042591,-0.01,-0.08,0.82,2.62,3.36,0.61,917.71,21.83,
5042641,-0.01,-0.07,0.89,2.44,2.01,0.49,917.72,21.81,
5042680,-0.03,-0.08,0.89,2.2,1.95,0.43,917.73,21.81,
5042718,-0.01,-0.08,0.95,2.01,1.22,0.43,917.8,21.83,
5042756,-0.01,-0.08,0.98,1.89,2.08,0.24,917.79,21.82,
5042794,-0.01,-0.07,0.99,1.59,1.89,0.31,917.78,21.82,
5042833,-0.02,-0.07,1.03,2.01,2.14,0.31,917.82,21.83,
5042871,-0.01,-0.08,1.0,1.46,2.62,0.31,917.83,21.83,
5042909,-0.01,-0.07,1.03,1.83,1.77,0.18,917.82,21.83,
5042947,-0.02,-0.08,0.99,1.65,2.32,0.31,917.84,21.83,
5042986,-0.01,-0.07,1.01,1.95,1.71,0.24,917.82,21.83,
5043036,-0.01,-0.08,0.98,1.71,2.2,0.24,917.85,21.82,
5043074,-0.01,-0.07,1.0,1.65,1.95,-0.12,917.89,21.83,
5043112,-0.02,-0.08,1.0,1.65,2.62,0.0,917.85,21.83,
5043150,-0.02,-0.08,1.0,1.59,3.05,0.0,917.87,21.83,
5043189,-0.01,-0.07,1.03,1.71,3.17,-0.06,917.85,21.83,
5043227,-0.02,-0.07,0.97,1.59,3.3,-0.24,917.9,21.83,
5043265,-0.02,-0.08,1.01,1.89,2.87,-0.12,917.86,21.84,
5043304,0.0,-0.08,1.01,1.71,2.69,-0.31,917.92,21.83,
5043342,-0.01,-0.07,1.01,1.65,2.32,-0.12,917.95,21.85,
5043380,-0.02,-0.07,1.01,1.4,2.2,-0.12,917.94,21.84,
5043430,-0.02,-0.07,1.04,1.4,2.2,-0.24,917.93,21.83,
5043468,-0.0,-0.08,1.06,1.28,2.26,-0.12,917.93,21.84,
5043507,-0.02,-0.07,1.04,1.22,2.32,-0.12,917.98,21.84,
5043545,-0.02,-0.07,1.06,1.22,2.32,-0.12,917.97,21.83,
5043583,-0.02,-0.07,1.05,1.16,2.44,-0.24,917.98,21.83,
5043621,-0.03,-0.07,1.07,1.16,2.5,-0.49,917.97,21.83,
5043660,-0.02,-0.07,1.06,0.98,2.81,-0.24,917.91,21.82,
5043698,-0.01,-0.07,1.08,1.34,2.44,-0.43,918.03,21.84,
5043736,-0.02,-0.07,1.07,1.1,2.62,-0.43,918.05,21.84,
5043786,-0.02,-0.07,1.08,1.65,2.38,-0.37,918.06,21.83,
5043825,-0.02,-0.07,1.04,1.4,2.81,-0.31,918.01,21.82,
5043863,-0.02,-0.07,1.05,1.59,2.93,-0.24,918.03,21.82,
5043901,-0.02,-0.07,1.0,1.4,2.81,-0.43,918.02,21.83,
5043939,-0.02,-0.07,1.03,1.59,2.75,-0.43,918.07,21.83,
5043978,-0.02,-0.09,0.98,1.34,3.23,-0.43,918.07,21.84,
5044016,-0.02,-0.08,0.99,1.46,2.69,-0.49,918.03,21.82,
5044054,-0.02,-0.07,0.96,1.28,2.62,-0.37,918.04,21.83,
5044093,-0.02,-0.07,0.95,1.46,2.08,-0.37,918.08,21.83,
5044131,-0.02,-0.08,0.96,1.34,2.56,-0.37,918.04,21.82,
5044207,-0.02,-0.08,0.93,1.34,2.26,-0.55,918.07,21.8,
5044245,-0.03,-0.08,0.92,1.1,2.44,-0.55,918.06,21.81,
5044283,-0.02,-0.08,0.92,1.04,3.05,-0.49,918.13,21.82,
5044373,-0.03,-0.08,0.9,0.85,2.69,-0.43,918.15,21.77,
5044412,-0.03,-0.08,0.88,0.61,2.93,-0.31,918.11,21.79,
5044450,-0.03,-0.08,0.94,0.92,2.56,-0.37,918.15,21.81,
5044488,-0.02,-0.08,0.95,0.61,2.56,-0.24,918.12,21.8,
5044527,-0.02,-0.08,0.99,0.98,2.08,-0.43,918.09,21.79,
5044565,-0.01,-0.08,1.0,0.73,2.2,-0.24,918.1,21.8,
5044615,-0.03,-0.07,1.08,0.73,1.34,-0.31,918.1,21.79,
5044653,-0.03,-0.07,1.13,0.37,1.22,-0.18,918.06,21.8,
5044691,-0.02,-0.06,1.18,0.67,0.24,-0.18,918.11,21.81,
5044730,-0.05,-0.06,1.21,0.37,1.59,-0.24,918.14,21.81,
5044768,-0.03,-0.06,1.25,0.37,2.26,-0.18,918.16,21.8,
5044806,-0.03,-0.06,1.27,0.55,2.62,-0.18,918.18,21.82,
5044845,-0.04,-0.06,1.24,0.55,3.05,-0.37,918.24,21.83,
5044883,-0.04,-0.07,1.2,0.98,3.72,-0.24,918.24,21.81,
5044921,-0.02,-0.07,1.18,1.22,4.03,-0.18,918.22,21.82,
5044971,-0.02,-0.06,1.12,1.46,3.6,0.0,918.26,21.81,
5045009,-0.05,-0.07,1.1,1.53,3.85,-0.12,918.22,21.81,
5045048,-0.04,-0.08,1.08,1.4,3.91,-0.06,918.25,21.81,
5045086,-0.01,-0.08,1.09,1.65,2.99,0.06,918.18,21.82,
5045124,-0.02,-0.08,1.03,1.53,2.81,0.06,918.17,21.81,
5045162,-0.05,-0.06,1.02,1.53,2.87,0.24,918.21,21.82,
5045201,-0.02,-0.06,1.05,1.34,2.2,0.12,918.24,21.83,
5045239,-0.03,-0.07,1.05,1.34,0.98,0.37,918.17,21.81,
5045277,-0.04,-0.07,1.08,1.1,0.98,0.31,918.26,21.83,
5045316,-0.03,-0.07,1.14,1.46,1.34,0.24,918.28,21.84,
5045366,-0.03,-0.07,1.18,1.46,1.46,0.49,918.26,21.82,
5045404,-0.02,-0.06,1.25,1.83,0.61,0.55,918.25,21.82,
5045442,-0.03,-0.08,1.21,1.77,1.71,0.49,918.21,21.82,
5045481,-0.04,-0.06,1.21,1.89,1.46,0.55,918.26,21.82,
5045519,-0.03,-0.06,1.19,1.95,2.2,0.61,918.27,21.83,
5045557,-0.02,-0.07,1.17,2.26,1.1,0.43,918.29,21.83,
5045595,-0.04,-0.08,1.13,2.2,1.65,0.73,918.3,21.83,
5045634,-0.03,-0.08,1.09,2.2,1.71,0.79,918.27,21.82,
5045672,-0.04,-0.07,1.08,1.95,1.77,0.61,918.24,21.82,
5045710,-0.02,-0.07,1.07,2.08,2.38,0.73,918.28,21.82,
5045760,-0.01,-0.07,1.08,2.08,2.14,0.79,918.33,21.82,
5045799,-0.03,-0.07,1.07,2.08,2.08,0.67,918.32,21.83,
5045837,-0.03,-0.07,1.04,2.08,2.38,0.67,918.34,21.83,
5045875,-0.03,-0.07,1.02,1.95,2.62,0.67,918.32,21.83,
5045914,-0.02,-0.07,1.02,1.71,2.5,0.73,918.28,21.82,
5045952,-0.04,-0.08,1.0,1.65,2.32,0.73,918.29,21.83,
5045990,-0.03,-0.08,1.0,1.59,2.62,0.73,918.29,21.83,
5046029,-0.02,-0.07,0.98,1.59,2.87,0.73,918.35,21.82,
5046067,-0.02,-0.07,0.99,1.65,1.89,0.73,918.28,21.82,
5046117,-0.03,-0.08,0.95,1.34,2.93,0.79,918.3,21.81,
5046155,-0.02,-0.08,0.98,1.77,2.44,0.79,918.26,21.83,
5046194,-0.03,-0.08,0.96,1.4,2.5,0.85,918.33,21.82,
5046232,-0.03,-0.07,0.99,1.59,1.22,0.79,918.3,21.81,
5046270,-0.02,-0.08,0.98,1.4,1.89,0.98,918.3,21.81,
5046308,-0.02,-0.09,1.0,1.4,1.95,0.73,918.36,21.83,
5046347,-0.03,-0.08,0.94,1.22,3.05,0.79,918.31,21.81,
5046385,-0.03,-0.07,0.95,1.46,2.62,0.79,918.29,21.81,
5046423,-0.02,-0.07,0.94,1.34,3.36,0.79,918.3,21.82,
5046462,-0.04,-0.08,0.95,1.34,2.38,0.85,918.27,21.81,
5046512,-0.03,-0.08,0.97,1.34,3.11,0.85,918.29,21.79,
5046550,-0.03,-0.07,1.01,1.34,2.08,0.92,918.33,21.82,
5046588,-0.04,-0.08,0.98,1.22,2.2,0.92,918.33,21.82,
5046627,-0.04,-0.08,0.97,1.34,2.08,0.92,918.28,21.81,
5046665,-0.03,-0.07,0.98,1.22,2.5,0.73,918.34,21.82,
5046703,-0.02,-0.08,0.94,1.34,1.65,1.16,918.29,21.82,
5046742,-0.04,-0.07,0.95,1.46,0.98,0.85,918.3,21.83,
5046780,-0.04,-0.08,0.95,1.22,2.14,0.98,918.27,21.82,
5046818,-0.02,-0.07,1.0,1.16,1.53,1.16,918.28,21.82,
5046857,-0.04,-0.07,1.04,1.28,0.85,1.4,918.28,21.81,
5046907,-0.04,-0.08,1.0,1.1,1.77,1.4,918.29,21.81,
5046945,-0.03,-0.07,1.06,1.4,1.95,1.46,918.33,21.82,
5046983,-0.02,-0.08,1.02,1.22,2.32,1.65,918.37,21.83,
5047022,-0.04,-0.08,1.0,1.34,1.77,1.71,918.35,21.82,
5047060,-0.04,-0.08,0.98,1.34,2.81,1.59,918.36,21.82,
5047098,-0.03,-0.08,0.93,1.65,2.5,1.65,918.31,21.81,
5047136,-0.04,-0.07,0.91,1.53,2.32,1.65,918.25,21.82,
5047175,-0.04,-0.07,0.88,1.28,2.99,1.65,918.32,21.83,
5047213,-0.03,-0.07,0.95,1.53,3.36,1.89,918.31,21.83,
5047291,-0.05,-0.08,0.97,1.46,3.42,2.01,918.31,21.79,
5047329,-0.03,-0.09,0.94,1.1,4.39,1.89,918.35,21.81,
5047367,-0.04,-0.07,0.96,1.59,4.21,1.89,918.34,21.82,
5047457,-0.04,-0.08,0.97,1.65,4.88,2.14,918.33,21.78,
5047496,-0.04,-0.07,0.97,1.22,5.92,2.2,918.33,21.8,
5047534,-0.03,-0.07,1.05,1.65,5.19,2.32,918.3,21.8,
5047572,-0.03,-0.09,1.03,1.34,5.07,2.2,918.34,21.81,
5047611,-0.05,-0.08,1.06,1.83,3.66,2.5,918.31,21.81,
5047649,-0.05,-0.08,1.04,1.77,4.76,2.5,918.3,21.81,
5047687,-0.03,-0.08,1.0,2.01,3.78,2.44,918.3,21.8,
5047737,-0.05,-0.08,1.0,2.01,2.99,2.93,918.33,21.8,
5047776,-0.05,-0.08,0.95,2.08,2.99,2.99,918.34,21.81,
5047814,-0.05,-0.07,1.0,1.89,3.17,2.99,918.27,21.82,
5047852,-0.04,-0.07,0.99,1.71,3.78,3.11,918.31,21.82,
5047890,-0.03,-0.08,1.02,1.95,3.11,3.36,918.35,21.83,
5047929,-0.04,-0.08,1.01,1.77,2.93,3.23,918.32,21.82,
5047967,-0.03,-0.08,1.0,1.46,3.17,3.3,918.37,21.83,
5048005,-0.03,-0.07,1.01,1.4,2.44,3.6,918.39,21.82,
5048044,-0.03,-0.07,1.0,1.83,2.08,3.6,918.35,21.82,
5048082,-0.03,-0.08,0.96,1.83,2.44,3.48,918.39,21.82,
5048132,-0.02,-0.07,1.01,2.08,2.26,3.72,918.35,21.82,
5048170,-0.03,-0.08,0.98,2.44,2.2,3.78,918.35,21.81,
5048209,-0.03,-0.07,0.99,2.32,1.77,3.54,918.37,21.82,
5048247,-0.04,-0.08,0.99,2.26,2.75,3.66,918.37,21.83,
5048285,-0.02,-0.09,0.96,2.14,2.99,3.72,918.35,21.83,
5048324,-0.04,-0.08,0.98,2.14,2.75,3.6,918.32,21.83,
5048362,-0.03,-0.08,0.97,1.89,3.42,3.66,918.35,21.82,
5048400,-0.02,-0.08,1.01,1.83,3.72,3.54,918.36,21.83,
5048438,-0.03,-0.08,1.01,1.65,3.97,3.54,918.41,21.83,
5048489,-0.03,-0.08,1.04,1.71,4.33,3.6,918.42,21.82,
5048527,-0.02,-0.07,1.06,1.4,4.52,3.54,918.44,21.82,
5048565,-0.02,-0.08,1.05,1.28,4.27,3.6,918.37,21.81,
5048604,-0.02,-0.07,1.05,0.98,3.91,3.42,918.38,21.81,
5048642,-0.02,-0.08,1.05,1.16,3.66,3.6,918.36,21.82,
5048680,-0.02,-0.08,1.02,1.1,3.11,3.48,918.44,21.83,
5048718,-0.02,-0.07,1.05,1.4,2.93,3.6,918.38,21.83,
5048757,-0.02,-0.08,1.06,1.53,2.5,3.42,918.47,21.83,
5048795,-0.02,-0.08,1.05,1.53,2.38,3.6,918.44,21.84,
5048833,-0.02,-0.07,1.09,1.71,1.53,3.72,918.43,21.84,
5048883,-0.02,-0.07,1.07,1.71,1.53,3.48,918.4,21.81,
5048921,-0.02,-0.08,1.09,2.14,1.65,3.48,918.39,21.83,
5048960,-0.0,-0.09,1.02,1.77,2.14,3.48,918.41,21.83,
5048998,-0.01,-0.07,1.04,2.01,1.34,3.17,918.36,21.83,
5049036,-0.01,-0.07,0.99,1.53,2.32,3.17,918.34,21.84,
5049075,-0.02,-0.08,0.99,1.65,2.56,3.23,918.36,21.83,
5049113,-0.01,-0.08,1.03,1.65,2.62,2.81,918.44,21.83,
5049151,-0.01,-0.08,1.02,1.28,2.26,2.93,918.44,21.83,
5049190,-0.0,-0.07,1.04,1.28,1.89,2.93,918.38,21.84,
5049228,0.0,-0.08,1.01,1.22,1.46,2.75,918.43,21.83,
5049278,-0.01,-0.09,1.04,1.34,0.61,2.75,918.38,21.82,
5049316,0.01,-0.09,1.04,1.1,1.1,2.56,918.36,21.82,
5049355,-0.0,-0.07,1.05,1.22,0.98,2.44,918.4,21.83,
5049393,-0.01,-0.07,1.01,0.92,0.85,2.44,918.41,21.83,
5049431,-0.01,-0.07,1.03,0.79,1.34,2.26,918.41,21.83,
5049470,0.01,-0.08,1.03,0.61,1.71,2.01,918.43,21.83,
5049508,-0.0,-0.08,1.04,0.61,1.89,1.89,918.42,21.85,
5049546,0.0,-0.07,1.05,0.61,1.83,1.89,918.41,21.84,
5049584,0.02,-0.08,1.05,0.37,2.44,1.53,918.43,21.83,
5049634,0.02,-0.08,1.09,0.61,1.77,1.46,918.41,21.83,
5049673,-0.0,-0.09,1.07,0.24,1.4,1.59,918.43,21.83,
5049711,-0.0,-0.07,1.12,0.61,1.4,1.1,918.45,21.83,
5049749,0.01,-0.07,1.11,0.67,1.83,1.1,918.41,21.83,
5049788,0.01,-0.08,1.11,0.79,1.53,0.98,918.43,21.82,
5049826,-0.0,-0.07,1.06,0.61,1.95,0.73,918.39,21.81,
5049864,-0.0,-0.07,1.06,0.79,1.95,0.61,918.45,21.83,
5049902,0.01,-0.08,1.06,0.79,2.38,0.55,918.43,21.83,
5049941,-0.0,-0.08,1.05,0.98,2.75,0.49,918.45,21.84,
5049979,-0.01,-0.08,1.03,0.98,3.05,0.24,918.46,21.83,
5050029,-0.0,-0.07,1.05,1.22,2.75,0.24,918.39,21.82,
5050067,-0.0,-0.07,1.05,1.28,2.99,0.0,918.43,21.83,
5050105,0.0,-0.07,1.04,1.22,2.62,0.06,918.41,21.83,
5050144,-0.01,-0.08,1.08,1.34,2.62,-0.12,918.46,21.82,
5050182,-0.01,-0.08,1.04,0.98,3.05,-0.06,918.4,21.83,
5050220,-0.01,-0.07,1.05,1.28,2.93,-0.24,918.37,21.82,
5050259,-0.0,-0.07,1.0,1.22,3.97,-0.37,918.4,21.82,
5050297,-0.01,-0.07,1.0,1.83,3.85,-0.24,918.4,21.83,
5050335,-0.01,-0.09,0.99,2.08,3.85,-0.49,918.39,21.82,
5050374,-0.01,-0.07,0.98,2.32,3.54,-0.61,918.39,21.81,
5050450,-0.01,-0.08,0.93,2.69,3.48,-0.67,918.35,21.79,
5050488,-0.02,-0.08,0.94,2.75,2.99,-0.79,918.38,21.81,
5050526,-0.02,-0.07,0.92,2.62,3.17,-0.67,918.37,21.8,
5050617,-0.02,-0.08,0.91,2.26,2.56,-0.67,918.32,21.77,
5050655,-0.03,-0.08,0.91,2.26,2.62,-0.61,918.34,21.78,
5050693,-0.02,-0.08,0.93,2.26,2.69,-0.61,918.33,21.78,
5050731,-0.02,-0.08,0.94,2.2,2.93,-0.61,918.35,21.79,
5050770,-0.02,-0.08,0.93,2.26,2.87,-0.61,918.38,21.79,
5050808,-0.03,-0.08,0.92,2.32,3.05,-0.49,918.28,21.81,
5050858,-0.03,-0.08,0.95,2.14,3.85,-0.67,918.32,21.78,
5050897,-0.02,-0.07,0.96,2.14,4.27,-0.61,918.27,21.8,
5050935,-0.03,-0.07,0.96,2.08,4.33,-0.61,918.36,21.8,
5050973,-0.03,-0.07,0.94,1.95,4.88,-0.43,918.33,21.81,
5051011,-0.03,-0.07,0.98,2.01,4.94,-0.67,918.34,21.81,
5051050,-0.04,-0.08,0.98,2.01,5.19,-0.49,918.31,21.81,
5051088,-0.03,-0.07,0.98,1.95,5.25,-0.73,918.34,21.82,
5051126,-0.02,-0.07,1.0,2.01,5.8,-0.49,918.35,21.81,
5051165,-0.02,-0.08,0.99,2.26,5.49,-0.31,918.3,21.81,
5051203,-0.03,-0.08,0.99,2.32,5.31,-0.31,918.31,21.81,
5051253,-0.03,-0.07,1.02,2.62,5.19,-0.12,918.32,21.81,
5051291,-0.03,-0.07,1.01,2.56,4.33,0.06,918.32,21.81,
5051330,-0.03,-0.08,1.0,2.32,3.72,-0.06,918.32,21.8,
5051368,-0.04,-0.07,0.97,2.44,4.03,-0.06,918.31,21.8,
5051406,-0.03,-0.07,0.99,2.69,3.66,0.06,918.29,21.81,
5051444,-0.03,-0.07,0.97,2.81,3.3,0.24,918.32,21.81,
5051483,-0.05,-0.07,0.98,2.75,2.62,0.18,918.26,21.8,
5051521,-0.04,-0.08,0.99,2.81,3.66,0.37,918.34,21.79,
5051559,-0.03,-0.08,0.96,2.69,2.87,0.24,918.3,21.8,
5051609,-0.04,-0.07,0.95,2.81,2.93,0.43,918.3,21.79,
5051648,-0.03,-0.07,0.94,2.93,3.17,0.67,918.27,21.79,
5051686,-0.03,-0.07,0.96,2.87,3.54,0.49,918.23,21.79,
5051724,-0.04,-0.07,0.95,2.87,3.36,0.55,918.33,21.79,
5051762,-0.04,-0.07,0.96,2.93,3.48,0.49,918.3,21.8,
5051801,-0.03,-0.07,0.96,2.81,3.91,0.61,918.28,21.81,
5051839,-0.03,-0.07,0.97,2.75,3.85,0.61,918.3,21.79,
5051877,-0.04,-0.07,0.94,2.75,4.15,0.67,918.27,21.8,
5051915,-0.04,-0.07,0.94,2.99,4.21,0.85,918.34,21.81,
5051954,-0.04,-0.08,0.93,2.62,4.58,0.92,918.28,21.81,
5052004,-0.03,-0.07,0.93,2.99,3.91,0.92,918.26,21.79,
5052042,-0.03,-0.08,0.94,2.75,3.97,0.79,918.27,21.81,
5052080,-0.03,-0.08,0.94,2.5,3.66,1.1,918.28,21.79,
5052119,-0.02,-0.07,0.97,2.56,3.42,1.04,918.27,21.81,
5052157,-0.04,-0.07,0.96,2.44,3.48,0.98,918.27,21.8,
5052195,-0.04,-0.08,0.97,2.44,2.99,1.16,918.27,21.81,
5052234,-0.03,-0.08,0.96,2.44,3.48,1.28,918.32,21.81,
5052272,-0.03,-0.08,0.97,2.32,2.99,1.1,918.27,21.8,
5052310,-0.04,-0.07,0.95,2.32,3.48,1.1,918.3,21.81,
5052348,-0.03,-0.07,0.96,2.44,3.54,1.16,918.24,21.79,
5052398,-0.04,-0.08,0.97,2.38,3.91,1.16,918.27,21.79,
5052437,-0.03,-0.08,0.97,2.2,3.91,1.04,918.31,21.8,
5052475,-0.03,-0.07,0.98,2.44,4.03,1.1,918.3,21.81,
5052513,-0.03,-0.08,0.98,2.32,4.03,1.1,918.27,21.81,
5052552,-0.03,-0.07,1.0,2.44,3.42,1.16,918.25,21.8,
5052590,-0.02,-0.07,1.01,2.38,3.72,1.16,918.34,21.81,
5052628,-0.02,-0.08,1.01,2.38,3.42,1.34,918.31,21.81,
5052667,-0.03,-0.08,1.01,2.56,2.99,1.4,918.36,21.83,
5052705,-0.03,-0.07,0.98,2.5,2.93,1.16,918.29,21.81,
5052755,-0.03,-0.08,0.97,2.56,2.38,1.28,918.3,21.8,
5052793,-0.02,-0.07,0.96,2.56,1.65,1.4,918.28,21.81,
5052832,-0.03,-0.08,0.95,2.26,1.77,1.46,918.25,21.81,
5052870,-0.03,-0.07,0.96,2.38,2.08,1.34,918.26,21.82,
5052908,-0.02,-0.08,0.98,2.44,2.08,1.46,918.25,21.81,
5052947,-0.03,-0.07,0.99,2.26,1.83,1.53,918.29,21.81,
5052985,-0.02,-0.07,0.99,2.38,2.26,1.59,918.3,21.82,
5053023,-0.02,-0.07,0.97,2.44,2.14,1.46,918.31,21.82,
5053062,-0.03,-0.07,0.95,2.56,1.83,1.4,918.29,21.83,
5053100,-0.02,-0.08,0.93,2.44,1.89,1.34,918.22,21.82,
5053150,-0.03,-0.08,0.93,2.38,2.38,1.34,918.29,21.82,
5053188,-0.02,-0.08,0.94,2.26,1.77,1.28,918.24,21.82,
5053227,-0.03,-0.08,0.94,2.32,1.95,1.28,918.27,21.82,
5053265,-0.03,-0.08,0.93,2.14,2.14,1.22,918.29,21.82,
5053303,-0.02,-0.07,0.96,2.26,2.26,1.22,918.22,21.82,
5053342,-0.02,-0.07,0.97,2.26,2.01,1.28,918.32,21.83,
5053380,-0.04,-0.07,0.95,2.32,2.01,1.4,918.3,21.83,
5053418,-0.03,-0.07,0.96,2.32,1.83,1.28,918.27,21.83,
5053457,-0.02,-0.07,0.96,2.44,2.2,1.22,918.27,21.82,
5053495,-0.02,-0.07,0.95,2.69,1.83,1.28,918.25,21.83,
5053571,-0.03,-0.07,0.94,2.69,2.81,1.22,918.24,21.79,
5053609,-0.02,-0.07,0.95,3.05,2.62,1.04,918.31,21.81,
5053648,-0.02,-0.07,0.92,2.75,2.69,1.04,918.28,21.82,
5053738,-0.02,-0.08,0.95,2.44,2.62,1.04,918.33,21.79,
5053776,-0.03,-0.07,1.0,2.62,1.53,1.04,918.3,21.8,
5053814,-0.03,-0.08,0.94,2.26,2.75,1.1,918.33,21.81,
5053852,-0.02,-0.07,0.97,2.56,1.53,0.79,918.3,21.81,
5053891,-0.01,-0.07,0.94,2.14,2.14,0.85,918.37,21.83,
5053929,-0.03,-0.07,0.93,2.08,1.95,0.92,918.35,21.81,
5053979,-0.03,-0.08,0.94,2.01,2.69,0.92,918.31,21.81,
5054017,-0.02,-0.07,0.95,2.2,2.32,0.73,918.31,21.81,
5054055,-0.02,-0.07,0.97,2.32,2.01,0.85,918.29,21.81,
5054094,-0.01,-0.07,0.97,2.26,1.4,0.73,918.33,21.81,
5054132,-0.02,-0.07,0.97,2.32,1.4,0.79,918.31,21.83,
5054170,-0.01,-0.07,0.96,2.32,1.1,0.79,918.3,21.83,
5054209,-0.02,-0.07,0.96,2.26,1.04,0.61,918.32,21.82,
