timestamp,acc_x,acc_y,acc_z,rot_x,rot_y,rot_z,qfe,temp,Unnamed: 10
3455525,-0.0,-0.09,1.27,1.71,1.4,0.98,912.95,24.86,
3455563,-0.01,-0.09,1.26,1.77,0.92,0.92,912.98,24.85,
3455602,-0.01,-0.08,1.24,2.01,0.43,0.79,912.93,24.85,
3455640,0.01,-0.1,1.17,1.95,1.28,0.67,912.97,24.87,
3455678,0.0,-0.09,1.13,2.2,0.06,0.61,912.92,24.86,
3455716,-0.01,-0.1,1.06,2.2,0.79,0.37,912.93,24.86,
3455754,0.0,-0.09,1.06,2.62,0.67,0.12,912.95,24.87,
3455793,-0.01,-0.09,1.0,2.26,1.59,0.12,912.88,24.87,
3455843,-0.01,-0.09,0.98,2.26,0.85,-0.06,912.89,24.85,
3455881,-0.01,-0.1,0.96,2.01,1.89,-0.24,912.87,24.85,
3455919,-0.01,-0.1,0.9,1.71,1.77,-0.18,912.91,24.86,
3455957,-0.04,-0.09,0.95,2.44,0.92,-0.43,912.79,24.85,
3455995,-0.03,-0.11,0.9,2.26,2.62,-0.37,912.81,24.87,
3456034,0.01,-0.1,0.94,2.2,1.22,-0.37,912.8,24.86,
3456072,-0.03,-0.1,0.87,1.53,0.61,-0.18,912.83,24.86,
3456110,-0.06,-0.09,0.88,1.59,0.24,-0.37,912.75,24.85,
3456148,-0.02,-0.09,0.85,0.79,0.31,-0.43,912.77,24.85,
3456186,-0.03,-0.09,0.91,0.92,-0.37,-0.37,912.79,24.87,
3456236,-0.04,-0.1,0.86,0.43,0.92,-0.31,912.76,24.85,
3456275,-0.04,-0.08,0.94,0.61,1.34,-0.24,912.75,24.86,
3456313,-0.05,-0.1,0.94,0.49,2.26,-0.24,912.75,24.85,
3456351,-0.05,-0.09,1.0,0.98,2.32,-0.24,912.74,24.87,
3456389,-0.05,-0.09,1.05,1.46,2.99,-0.18,912.72,24.86,
3456427,-0.05,-0.08,1.05,1.34,3.91,-0.18,912.74,24.86,
3456466,-0.04,-0.08,1.09,1.65,4.82,0.06,912.76,24.86,
3456504,-0.05,-0.09,1.06,1.59,5.92,0.06,912.68,24.86,
3456542,-0.06,-0.08,1.1,2.26,6.1,0.12,912.7,24.87,
3456592,-0.04,-0.09,1.04,2.44,6.77,0.18,912.71,24.86,
3456630,-0.05,-0.08,1.08,2.81,6.16,0.24,912.68,24.86,
3456668,-0.06,-0.09,1.03,2.5,7.02,0.55,912.66,24.86,
3456706,-0.06,-0.08,1.09,3.36,6.16,0.61,912.7,24.85,
3456745,-0.05,-0.1,1.06,3.3,7.26,0.73,912.65,24.85,
3456783,-0.05,-0.08,1.11,3.48,5.98,1.16,912.58,24.86,
3456821,-0.07,-0.09,1.08,3.54,7.26,1.22,912.63,24.86,
3456859,-0.06,-0.09,1.08,3.36,7.08,1.22,912.61,24.87,
3456897,-0.04,-0.08,1.13,3.42,6.47,1.28,912.55,24.86,
3456936,-0.06,-0.09,1.06,2.93,6.1,1.46,912.59,24.87,
3456986,-0.05,-0.09,1.1,3.11,5.31,1.65,912.51,24.85,
3457024,-0.05,-0.09,1.09,2.75,5.31,1.71,912.53,24.86,
3457062,-0.05,-0.08,1.14,3.11,4.21,2.01,912.55,24.87,
3457100,-0.05,-0.09,1.09,2.69,4.52,2.26,912.53,24.86,
3457138,-0.06,-0.08,1.09,2.99,3.85,2.2,912.54,24.87,
3457176,-0.06,-0.09,1.04,2.93,3.72,2.38,912.5,24.86,
3457215,-0.06,-0.08,1.02,3.23,3.11,2.56,912.52,24.86,
3457253,-0.04,-0.09,0.97,3.11,3.72,2.62,912.5,24.87,
3457291,-0.04,-0.09,0.96,3.23,3.05,2.81,912.46,24.86,
3457329,-0.05,-0.09,0.91,3.17,2.75,2.87,912.48,24.87,
3457405,-0.06,-0.09,0.91,3.11,2.08,3.17,912.42,24.84,
3457443,-0.03,-0.09,0.95,3.17,1.71,3.05,912.38,24.85,
3457481,-0.03,-0.1,0.92,2.99,2.14,3.3,912.44,24.85,
3457571,-0.04,-0.09,0.89,2.87,2.93,3.42,912.41,24.82,
3457609,-0.05,-0.08,0.89,2.81,2.01,3.23,912.38,24.84,
3457648,-0.05,-0.09,0.89,2.87,2.81,3.54,912.38,24.84,
3457686,-0.05,-0.09,0.89,2.2,2.62,3.36,912.35,24.84,
3457724,-0.03,-0.1,0.95,1.89,3.11,3.6,912.38,24.84,
3457762,-0.04,-0.1,0.93,1.28,3.36,3.42,912.32,24.84,
3457812,-0.04,-0.09,0.98,1.1,2.99,3.66,912.36,24.85,
3457850,-0.04,-0.1,0.97,0.31,3.66,3.66,912.29,24.84,
3457889,-0.04,-0.08,0.98,0.43,3.78,3.54,912.28,24.85,
3457927,-0.03,-0.09,1.0,0.24,4.46,3.66,912.32,24.85,
3457965,-0.03,-0.1,0.98,0.31,4.52,3.66,912.36,24.85,
3458003,-0.05,-0.08,0.99,0.18,3.97,3.66,912.31,24.84,
3458041,-0.05,-0.09,1.01,0.55,4.33,3.78,912.3,24.86,
3458080,-0.02,-0.09,1.0,0.37,4.88,3.85,912.31,24.85,
3458118,-0.01,-0.07,1.06,0.24,4.52,3.66,912.36,24.86,
3458156,-0.01,-0.09,1.05,-0.12,5.07,3.78,912.28,24.85,
3458206,-0.03,-0.09,1.09,0.18,3.66,3.91,912.37,24.85,
3458244,-0.04,-0.09,1.07,0.06,4.7,3.85,912.3,24.85,
3458282,-0.03,-0.09,1.11,0.55,3.66,3.85,912.31,24.86,
3458321,-0.02,-0.1,1.04,0.37,3.78,3.54,912.29,24.87,
3458359,-0.03,-0.08,1.05,0.85,2.38,3.66,912.26,24.85,
3458397,-0.02,-0.09,1.02,1.16,2.5,3.85,912.33,24.86,
3458435,-0.02,-0.08,1.02,1.22,1.65,3.78,912.27,24.85,
3458474,-0.05,-0.09,0.99,1.22,2.38,3.78,912.25,24.87,
3458512,-0.03,-0.08,1.04,0.92,1.71,3.72,912.21,24.85,
3458550,-0.02,-0.09,1.08,1.16,1.89,3.6,912.2,24.87,
3458600,-0.02,-0.08,1.15,1.1,1.4,3.6,912.24,24.86,
3458638,-0.0,-0.09,1.13,0.79,3.05,3.6,912.18,24.85,
3458676,-0.02,-0.08,1.09,0.67,2.26,3.54,912.22,24.85,
3458715,-0.03,-0.08,1.11,0.98,1.53,3.48,912.25,24.87,
3458753,-0.03,-0.09,1.05,0.61,2.32,3.54,912.23,24.86,
3458791,-0.02,-0.08,1.04,0.85,1.59,3.36,912.17,24.86,
3458829,-0.02,-0.09,1.01,1.04,1.59,3.42,912.18,24.86,
3458867,-0.02,-0.09,1.0,1.22,1.22,3.17,912.2,24.86,
3458906,-0.01,-0.08,1.0,1.34,1.71,3.17,912.17,24.85,
3458955,-0.02,-0.08,0.96,1.4,1.89,2.93,912.14,24.85,
3458994,-0.03,-0.09,0.95,1.59,2.32,2.87,912.07,24.86,
3459032,-0.01,-0.08,0.92,1.1,3.05,2.69,912.17,24.86,
3459070,-0.02,-0.08,0.91,1.59,2.87,2.5,912.16,24.86,
3459108,-0.03,-0.09,0.89,1.46,3.42,2.75,912.08,24.86,
3459147,-0.03,-0.08,0.9,1.83,3.48,2.56,912.13,24.86,
3459185,-0.03,-0.08,0.93,1.83,3.72,2.75,912.07,24.87,
3459223,-0.02,-0.09,0.9,1.77,4.15,2.56,912.06,24.86,
3459261,-0.04,-0.07,0.95,2.01,3.54,2.56,912.1,24.86,
3459300,-0.02,-0.09,0.92,2.2,4.33,2.5,912.03,24.86,
3459349,-0.03,-0.08,0.88,2.69,3.11,2.44,911.96,24.85,
3459388,-0.02,-0.09,0.88,2.44,3.97,2.32,911.96,24.86,
3459426,-0.02,-0.08,0.9,2.01,4.46,2.32,912.01,24.86,
3459464,-0.0,-0.09,0.93,2.32,4.76,2.32,911.96,24.85,
3459502,-0.01,-0.09,0.92,1.95,4.46,2.14,911.99,24.87,
3459541,-0.03,-0.09,0.89,2.5,3.91,2.32,911.99,24.86,
3459579,-0.02,-0.09,0.85,2.2,3.78,2.2,911.98,24.86,
3459617,-0.01,-0.08,0.82,2.56,3.11,2.01,912.0,24.86,
3459655,-0.02,-0.09,0.73,2.87,3.78,2.2,911.94,24.86,
3459693,-0.02,-0.09,0.73,3.05,3.17,2.38,912.01,24.86,
3459743,-0.02,-0.07,0.67,2.62,3.42,2.08,911.95,24.86,
3459782,-0.02,-0.08,0.75,2.81,2.99,2.14,911.92,24.86,
3459820,-0.0,-0.1,0.65,1.59,3.97,2.01,911.9,24.85,
3459858,0.02,-0.07,0.77,2.26,2.62,1.77,911.91,24.86,
3459896,-0.01,-0.1,0.65,2.08,3.54,1.59,911.95,24.85,
3459935,-0.01,-0.08,0.72,1.59,1.71,1.83,911.95,24.87,
3459973,-0.0,-0.1,0.77,2.2,2.69,1.59,911.92,24.87,
3460011,0.0,-0.09,0.76,1.16,2.69,1.34,911.91,24.86,
3460049,-0.0,-0.08,0.88,1.71,2.14,1.22,911.9,24.86,
3460099,-0.0,-0.09,0.88,1.04,2.5,1.04,911.94,24.86,
3460137,-0.02,-0.08,0.96,1.1,2.38,0.92,911.91,24.86,
3460175,-0.0,-0.09,0.94,0.67,2.32,1.04,911.92,24.87,
3460214,-0.02,-0.08,0.99,0.79,1.4,0.98,911.9,24.86,
3460252,-0.01,-0.08,1.0,1.04,1.34,0.92,911.9,24.86,
3460290,-0.01,-0.08,1.01,0.92,1.4,0.73,911.96,24.87,
3460328,-0.01,-0.08,0.99,0.73,1.59,0.67,911.93,24.87,
3460367,-0.02,-0.07,1.02,0.49,1.46,0.67,911.9,24.86,
3460405,-0.03,-0.08,1.01,0.55,2.56,0.55,911.86,24.85,
3460443,-0.02,-0.08,1.02,0.55,2.01,0.49,911.88,24.86,
3460519,-0.03,-0.08,1.02,1.1,3.54,0.31,911.92,24.83,
3460557,-0.02,-0.07,1.09,1.65,4.21,0.06,911.83,24.84,
3460595,-0.04,-0.08,1.08,1.71,5.43,0.18,911.91,24.85,
3460685,-0.03,-0.07,1.1,2.14,7.02,0.12,911.9,24.81,
3460723,-0.04,-0.08,1.08,2.14,7.32,0.24,911.85,24.83,
3460762,-0.02,-0.08,1.07,2.32,7.57,0.31,911.81,24.83,
3460800,-0.05,-0.07,1.12,2.87,7.87,0.12,911.87,24.84,
3460838,-0.02,-0.07,1.13,2.44,8.24,0.24,911.86,24.85,
3460876,-0.02,-0.07,1.1,2.32,7.51,0.18,911.83,24.85,
3460915,-0.04,-0.07,1.07,2.38,7.39,0.18,911.79,24.83,
3460965,-0.01,-0.06,1.07,2.2,6.59,0.24,911.8,24.83,
3461003,-0.02,-0.08,1.02,2.62,5.62,0.31,911.81,24.83,
3461041,-0.02,-0.07,0.99,2.87,3.85,0.31,911.78,24.85,
3461079,-0.03,-0.09,0.93,2.99,3.17,0.31,911.8,24.84,
3461117,-0.02,-0.09,0.87,2.2,2.75,0.43,911.77,24.84,
3461156,0.0,-0.07,0.91,2.87,1.04,0.31,911.79,24.85,
3461194,-0.05,-0.09,0.82,2.44,0.37,0.43,911.75,24.85,
3461232,-0.03,-0.07,0.77,2.32,-0.61,0.37,911.76,24.84,
3461270,-0.04,-0.08,0.82,2.93,-0.73,0.24,911.75,24.85,
3461320,-0.04,-0.09,0.81,2.56,-1.16,0.43,911.75,24.84,
3461358,-0.03,-0.08,0.82,3.11,-0.85,0.24,911.69,24.84,
3461397,-0.04,-0.08,0.75,2.38,0.24,0.12,911.67,24.84,
3461435,-0.04,-0.07,0.79,2.62,-0.49,0.31,911.72,24.84,
3461473,-0.06,-0.09,0.78,2.5,0.24,0.37,911.66,24.85,
3461511,-0.06,-0.09,0.79,2.2,0.61,0.31,911.63,24.83,
3461550,-0.07,-0.07,0.85,2.32,0.43,0.43,911.65,24.85,
3461588,-0.05,-0.08,0.88,2.56,1.46,0.49,911.64,24.85,
3461626,-0.04,-0.08,0.86,2.01,1.04,0.49,911.65,24.85,
3461664,-0.06,-0.07,0.9,2.56,0.67,0.92,911.7,24.84,
3461714,-0.06,-0.08,0.8,2.56,1.16,0.92,911.69,24.84,
3461752,-0.06,-0.07,0.82,2.75,1.53,0.92,911.64,24.84,
3461790,-0.06,-0.08,0.81,2.56,1.71,0.98,911.64,24.84,
3461829,-0.07,-0.08,0.8,2.26,1.71,1.1,911.67,24.84,
3461867,-0.05,-0.07,0.85,2.26,2.62,1.1,911.63,24.83,
3461905,-0.05,-0.07,0.84,2.2,3.17,1.4,911.64,24.85,
3461943,-0.07,-0.07,0.87,2.14,2.69,1.65,911.68,24.85,
3461982,-0.07,-0.08,0.89,2.32,3.11,1.71,911.58,24.84,
3462020,-0.06,-0.07,0.93,2.14,3.17,1.95,911.66,24.86,
3462058,-0.06,-0.08,0.91,2.08,3.05,2.08,911.68,24.86,
3462108,-0.06,-0.07,0.92,1.95,2.01,2.38,911.64,24.84,
3462146,-0.06,-0.08,0.91,1.71,2.14,2.75,911.6,24.84,
3462184,-0.05,-0.08,0.92,1.16,1.16,2.75,911.63,24.84,
3462222,-0.06,-0.08,0.92,1.28,1.65,2.99,911.67,24.84,
3462261,-0.05,-0.08,0.93,0.85,2.32,2.87,911.67,24.85,
3462299,-0.04,-0.08,0.94,0.98,2.44,3.05,911.68,24.84,
3462337,-0.05,-0.08,0.92,1.04,3.11,3.11,911.7,24.86,
3462375,-0.05,-0.08,0.9,1.1,3.66,3.17,911.64,24.86,
3462413,-0.04,-0.08,0.92,0.79,4.39,3.11,911.68,24.85,
3462463,-0.04,-0.08,0.94,1.1,3.78,3.36,911.73,24.84,
3462502,-0.04,-0.08,0.92,1.16,4.64,3.23,911.68,24.84,
3462540,-0.04,-0.07,0.98,1.4,4.76,3.42,911.73,24.85,
3462578,-0.02,-0.08,1.0,1.4,4.94,3.66,911.69,24.85,
3462616,-0.04,-0.08,0.96,1.34,4.76,3.48,911.73,24.84,
3462655,-0.04,-0.07,1.0,1.77,4.7,3.72,911.73,24.86,
3462693,-0.03,-0.08,0.96,1.95,5.43,3.78,911.76,24.85,
3462731,-0.02,-0.06,0.99,2.32,3.85,3.72,911.8,24.86,
3462769,-0.03,-0.08,0.99,2.38,4.03,3.91,911.77,24.86,
3462807,-0.04,-0.08,0.99,2.69,4.03,3.91,911.76,24.86,
3462857,-0.02,-0.07,1.0,2.87,3.97,4.03,911.81,24.84,
3462895,-0.02,-0.08,0.99,2.87,3.6,4.09,911.81,24.85,
3462934,-0.03,-0.07,0.99,2.81,3.36,4.21,911.77,24.86,
3462972,-0.02,-0.08,1.0,2.62,3.66,4.09,911.82,24.85,
3463010,-0.02,-0.08,1.05,2.75,2.99,4.15,911.79,24.86,
3463048,-0.03,-0.08,1.02,2.75,2.81,4.33,911.77,24.85,
3463087,-0.02,-0.07,1.05,2.75,2.69,4.09,911.8,24.85,
3463125,-0.01,-0.08,1.0,2.62,2.62,4.15,911.82,24.85,
3463163,-0.01,-0.08,0.98,2.69,2.01,4.09,911.78,24.85,
3463201,-0.0,-0.08,0.94,2.62,2.14,4.09,911.83,24.86,
3463251,-0.01,-0.07,0.91,3.17,0.43,4.09,911.79,24.84,
3463289,-0.02,-0.08,0.85,2.87,1.16,4.03,911.77,24.85,
3463327,-0.01,-0.08,0.86,2.5,0.0,4.03,911.77,24.85,
3463366,-0.01,-0.08,0.87,2.32,-0.18,4.03,911.75,24.85,
3463404,-0.02,-0.08,0.91,1.59,0.06,3.85,911.81,24.85,
3463442,-0.02,-0.08,0.94,1.65,0.43,3.78,911.78,24.86,
3463480,-0.01,-0.08,0.94,1.1,0.18,3.91,911.82,24.85,
3463518,-0.02,-0.07,0.98,1.28,0.12,3.78,911.75,24.85,
3463557,-0.0,-0.08,0.96,1.16,0.61,3.66,911.78,24.85,
3463632,-0.01,-0.08,0.96,1.28,0.79,3.66,911.88,24.82,
3463671,-0.01,-0.08,0.96,1.83,1.1,3.42,911.84,24.82,
3463709,0.0,-0.09,0.91,1.71,1.4,3.17,911.87,24.84,
3463798,-0.02,-0.08,0.86,1.95,2.14,2.99,911.87,24.82,
3463837,-0.01,-0.08,0.9,2.26,1.89,2.69,911.85,24.83,
3463875,-0.01,-0.08,0.96,2.08,2.44,2.69,911.84,24.82,
3463913,-0.01,-0.08,0.91,1.89,3.54,2.62,911.86,24.82,
3463951,-0.02,-0.07,1.01,2.44,3.54,2.44,911.86,24.84,
3463989,-0.0,-0.09,0.96,1.83,5.49,2.38,911.84,24.83,
3464028,-0.0,-0.07,1.0,2.01,4.64,2.14,911.86,24.83,
3464078,-0.02,-0.08,0.96,1.95,6.65,2.32,911.85,24.82,
3464116,0.0,-0.07,1.0,2.38,6.16,2.14,911.93,24.82,
3464154,0.0,-0.08,0.98,2.14,5.92,1.95,911.93,24.84,
3464192,-0.02,-0.07,0.98,2.38,5.19,2.2,911.89,24.83,
3464230,-0.0,-0.08,0.97,2.38,5.43,2.14,911.86,24.83,
3464269,-0.0,-0.07,1.01,2.69,4.03,1.95,911.93,24.84,
3464307,0.01,-0.08,0.99,2.32,3.6,2.01,911.95,24.85,
3464345,-0.02,-0.08,0.95,1.89,3.3,1.95,911.88,24.84,
3464383,-0.0,-0.08,0.95,2.01,3.48,1.77,911.91,24.85,
3464422,-0.0,-0.07,0.94,1.71,3.17,1.59,911.91,24.84,
3464471,-0.01,-0.08,0.92,1.65,3.3,1.59,911.89,24.84,
3464510,-0.0,-0.08,0.95,1.65,3.48,1.46,911.92,24.83,
3464548,0.01,-0.08,0.99,1.53,3.48,1.4,911.89,24.85,
3464586,-0.01,-0.07,0.97,1.59,3.48,1.34,911.95,24.86,
3464624,-0.02,-0.07,0.97,1.71,3.17,1.22,911.96,24.85,
3464662,-0.01,-0.08,0.97,1.95,3.42,0.85,911.94,24.85,
3464701,-0.01,-0.08,0.92,1.95,3.48,1.04,911.98,24.84,
3464739,-0.02,-0.07,0.96,2.62,3.11,0.98,911.98,24.84,
3464777,-0.02,-0.08,0.93,2.93,3.48,0.79,911.96,24.85,
3464827,-0.02,-0.07,0.98,3.6,3.6,0.79,911.97,24.84,
3464865,-0.02,-0.08,0.96,3.6,4.15,0.79,911.99,24.84,
3464903,-0.02,-0.08,0.98,3.66,3.54,0.73,912.01,24.84,
3464942,-0.03,-0.07,0.99,3.85,3.66,0.85,911.95,24.84,
3464980,-0.02,-0.08,0.96,3.78,3.91,0.73,911.97,24.83,
3465018,-0.01,-0.07,0.94,3.91,3.97,0.79,912.01,24.84,
3465056,-0.01,-0.08,0.9,3.72,4.15,0.73,912.02,24.85,
3465094,-0.02,-0.08,0.9,3.54,3.6,0.79,911.94,24.84,
3465133,-0.03,-0.08,0.86,3.42,3.85,0.61,911.97,24.85,
3465171,-0.02,-0.08,0.86,3.05,3.54,0.67,912.01,24.85,
3465221,-0.02,-0.08,0.84,2.81,3.48,0.67,911.99,24.82,
3465259,-0.02,-0.08,0.84,2.81,3.23,0.67,912.01,24.83,
3465297,-0.03,-0.08,0.84,2.56,3.23,0.79,911.96,24.84,
3465336,-0.03,-0.09,0.85,2.5,3.42,0.73,911.93,24.82,
3465374,-0.03,-0.08,0.85,2.14,3.42,0.79,911.97,24.83,
3465412,-0.02,-0.08,0.87,2.08,3.05,0.73,911.94,24.82,
3465450,-0.03,-0.08,0.86,1.95,3.6,0.73,912.01,24.84,
3465489,-0.02,-0.08,0.89,2.14,3.54,0.67,912.02,24.83,
3465527,-0.03,-0.08,0.89,2.14,3.97,0.67,912.03,24.84,
3465565,-0.03,-0.08,0.94,1.95,3.85,0.67,912.04,24.83,
3465615,-0.04,-0.09,0.92,1.95,4.33,0.85,912.08,24.82,
3465653,-0.03,-0.07,0.98,2.38,3.97,0.67,912.11,24.83,
3465691,-0.03,-0.08,0.96,2.44,4.82,0.73,912.14,24.83,
3465730,-0.02,-0.08,0.94,2.62,4.09,0.85,912.08,24.82,
3465768,-0.03,-0.08,0.92,2.81,3.85,0.79,912.09,24.83,
3465806,-0.03,-0.08,0.9,2.81,3.91,0.85,912.09,24.83,
3465844,-0.02,-0.08,0.88,2.62,3.72,0.92,912.08,24.82,
3465883,-0.04,-0.08,0.88,2.62,3.23,0.85,912.14,24.84,
3465921,-0.05,-0.08,0.88,2.62,3.42,0.98,912.02,24.83,
3465971,-0.03,-0.08,0.88,2.2,3.78,0.92,912.14,24.82,
3466009,-0.03,-0.08,0.9,2.32,3.72,0.92,912.07,24.83,
3466047,-0.05,-0.08,0.89,2.44,3.85,1.1,912.16,24.83,
3466085,-0.04,-0.08,0.89,2.08,4.21,1.28,912.16,24.83,
3466123,-0.02,-0.07,0.91,2.2,4.39,1.04,912.18,24.83,
3466162,-0.03,-0.07,0.92,2.01,4.15,1.34,912.16,24.81,
3466200,-0.04,-0.08,0.91,2.08,4.39,1.34,912.19,24.84,
3466238,-0.03,-0.08,0.94,1.89,4.94,1.1,912.17,24.82,
3466276,-0.03,-0.08,0.93,1.83,5.19,1.34,912.2,24.83,
3466315,-0.04,-0.08,0.95,1.83,5.19,1.28,912.19,24.82,
3466365,-0.04,-0.08,0.91,1.71,6.47,1.4,912.18,24.81,
3466403,-0.03,-0.08,0.93,1.83,6.53,1.34,912.23,24.82,
3466441,-0.03,-0.07,0.92,1.77,6.41,1.4,912.22,24.82,
3466479,-0.04,-0.07,0.88,1.65,5.98,1.53,912.25,24.82,
3466517,-0.02,-0.07,0.91,1.95,5.68,1.46,912.25,24.83,
3466556,-0.02,-0.08,0.9,1.77,4.94,1.77,912.25,24.83,
3466594,-0.03,-0.07,0.94,1.83,4.39,1.59,912.25,24.83,
3466632,-0.02,-0.08,0.95,1.83,4.33,1.59,912.25,24.83,
3466670,-0.03,-0.07,0.96,1.65,3.42,1.59,912.25,24.82,
3466708,-0.03,-0.07,0.97,2.08,3.23,1.53,912.28,24.84,
3466786,-0.03,-0.07,0.95,2.14,2.56,1.59,912.31,24.8,
3466824,-0.03,-0.08,0.93,1.95,2.38,1.71,912.34,24.81,
3466862,-0.03,-0.07,0.94,2.26,1.65,1.65,912.36,24.83,
3466952,-0.03,-0.08,0.93,2.26,1.95,1.59,912.4,24.79,
3466990,-0.03,-0.08,0.91,1.95,2.2,1.65,912.41,24.8,
3467028,-0.02,-0.08,0.92,2.5,2.08,1.4,912.39,24.81,
3467066,-0.02,-0.08,0.89,2.2,2.81,1.22,912.36,24.81,
3467105,-0.03,-0.08,0.89,2.38,2.01,1.28,912.45,24.81,
3467143,-0.03,-0.08,0.9,2.38,2.5,1.22,912.42,24.81,
3467193,-0.04,-0.08,0.91,2.56,2.01,1.22,912.47,24.8,
3467231,-0.04,-0.08,0.9,2.38,2.14,1.28,912.46,24.82,
3467269,-0.03,-0.08,0.88,2.2,2.32,1.1,912.48,24.82,
3467307,-0.03,-0.07,0.88,2.56,2.5,0.98,912.44,24.82,
3467346,-0.03,-0.08,0.88,2.44,2.5,1.04,912.46,24.82,
3467384,-0.03,-0.08,0.88,2.62,2.01,1.1,912.48,24.82,
3467422,-0.03,-0.08,0.86,2.38,2.69,1.1,912.5,24.82,
3467460,-0.03,-0.08,0.88,2.56,2.5,0.92,912.49,24.81,
3467499,-0.03,-0.08,0.87,2.2,2.26,0.98,912.55,24.82,
3467537,-0.03,-0.08,0.87,2.14,1.83,0.92,912.56,24.84,
3467587,-0.03,-0.08,0.9,2.08,1.59,1.1,912.63,24.82,
3467625,-0.03,-0.08,0.88,2.01,1.4,1.04,912.63,24.81,
3467663,-0.04,-0.08,0.9,2.14,0.67,1.04,912.58,24.83,
3467701,-0.03,-0.08,0.91,2.26,0.98,0.85,912.59,24.82,
3467740,-0.02,-0.08,0.92,2.44,0.79,0.98,912.68,24.82,
3467778,-0.02,-0.08,0.94,2.26,0.85,0.85,912.62,24.83,
3467816,-0.02,-0.08,0.94,2.38,0.49,0.73,912.7,24.84,
3467854,-0.04,-0.08,0.92,2.2,0.73,0.73,912.66,24.83,
3467893,-0.03,-0.08,0.92,2.26,1.16,0.67,912.73,24.82,
3467931,-0.04,-0.08,0.94,2.08,1.28,0.61,912.73,24.83,
3467981,-0.03,-0.08,0.95,2.26,1.59,0.55,912.68,24.82,
3468019,-0.02,-0.08,0.95,2.26,1.89,0.55,912.77,24.82,
3468057,-0.04,-0.08,0.93,2.2,2.26,0.55,912.77,24.83,
3468095,-0.04,-0.08,0.96,2.44,2.08,0.61,912.79,24.84,
3468133,-0.04,-0.09,0.92,2.5,2.2,0.61,912.75,24.82,
3468172,-0.04,-0.07,0.92,2.56,1.89,0.43,912.79,24.83,
3468210,-0.04,-0.08,0.89,2.44,2.62,0.61,912.78,24.82,
3468248,-0.03,-0.08,0.88,2.44,2.38,0.43,912.8,24.82,
3468286,-0.04,-0.08,0.9,2.69,2.56,0.37,912.78,24.83,
3468336,-0.04,-0.08,0.88,2.32,3.05,0.43,912.85,24.82,
3468375,-0.04,-0.08,0.91,2.38,3.05,0.49,912.79,24.82,
3468413,-0.05,-0.08,0.9,2.08,3.6,0.61,912.86,24.83,
3468451,-0.05,-0.08,0.92,2.14,3.23,0.61,912.88,24.83,
3468489,-0.04,-0.08,0.94,1.95,3.6,0.55,912.92,24.84,
3468528,-0.04,-0.08,0.94,1.89,3.36,0.79,912.89,24.83,
3468566,-0.04,-0.08,0.95,2.01,3.23,0.79,912.9,24.83,
3468604,-0.06,-0.08,0.94,1.89,3.42,0.73,912.97,24.84,
3468642,-0.05,-0.08,0.94,2.01,3.42,0.85,912.99,24.83,
3468680,-0.04,-0.08,0.95,2.08,3.3,0.73,912.99,24.84,
3468730,-0.04,-0.08,0.95,1.95,3.11,0.98,913.05,24.82,
3468769,-0.04,-0.08,0.99,2.14,3.05,0.85,913.06,24.84,
3468807,-0.04,-0.08,0.95,1.71,3.72,0.92,913.01,24.82,
3468845,-0.06,-0.08,0.98,2.14,2.81,1.1,913.05,24.84,
3468883,-0.04,-0.08,0.96,1.77,3.3,1.04,913.02,24.83,
3468921,-0.04,-0.07,1.0,1.77,2.5,0.92,913.08,24.84,
3468959,-0.05,-0.08,0.99,1.77,3.54,1.22,913.08,24.83,
3468998,-0.05,-0.08,1.03,1.65,3.6,1.04,913.12,24.83,
3469036,-0.04,-0.08,1.05,1.77,4.27,1.22,913.11,24.84,
3469086,-0.05,-0.07,1.05,1.59,5.13,1.28,913.15,24.82,
3469124,-0.05,-0.09,1.04,1.71,6.53,1.4,913.19,24.83,
3469162,-0.04,-0.08,1.03,1.83,6.23,1.59,913.23,24.84,
3469201,-0.04,-0.08,1.03,1.89,5.98,1.71,913.22,24.84,
3469239,-0.05,-0.08,1.03,2.14,6.41,1.71,913.3,24.85,
3469277,-0.04,-0.08,1.01,1.89,6.41,1.95,913.21,24.83,
3469315,-0.03,-0.08,1.02,2.01,5.55,1.95,913.21,24.84,
3469353,-0.04,-0.09,1.04,1.95,5.55,2.14,913.26,24.82,
3469392,-0.04,-0.09,1.07,2.14,5.49,2.32,913.24,24.83,
3469430,-0.03,-0.08,1.06,2.08,5.07,2.32,913.31,24.83,
3469480,-0.04,-0.09,1.08,2.32,4.33,2.56,913.23,24.82,
3469518,-0.03,-0.09,1.05,2.26,4.27,2.32,913.37,24.83,
3469556,-0.04,-0.09,1.03,2.32,4.33,2.5,913.37,24.83,
3469594,-0.02,-0.08,1.03,2.26,3.6,2.69,913.39,24.83,
3469633,-0.03,-0.09,1.03,2.2,3.54,2.56,913.42,24.83,
3469671,-0.03,-0.08,1.02,2.5,3.48,2.69,913.45,24.83,
3469709,-0.0,-0.09,1.03,2.26,3.36,2.5,913.41,24.82,
3469747,-0.02,-0.09,1.02,2.26,3.42,2.44,913.48,24.83,
3469785,-0.02,-0.08,1.03,2.08,3.23,2.56,913.5,24.82,
3469824,-0.03,-0.09,1.04,2.01,3.23,2.69,913.53,24.83,
3469951,-0.02,-0.09,1.05,1.83,2.99,2.62,913.5,24.77,
3469990,-0.03,-0.08,1.05,1.59,3.11,2.5,913.54,24.79,
3470028,-0.03,-0.09,1.03,1.77,3.85,2.44,913.6,24.79,
3470118,-0.02,-0.09,1.07,1.83,4.27,2.38,913.58,24.76,
3470156,-0.02,-0.09,1.09,2.01,4.27,2.2,913.59,24.77,
3470194,-0.02,-0.08,1.08,1.71,5.19,2.32,913.63,24.79,
3470232,-0.02,-0.09,1.05,1.77,4.64,2.14,913.63,24.79,
3470271,-0.01,-0.09,1.06,1.65,5.07,2.2,913.72,24.8,
3470309,-0.01,-0.09,1.05,1.65,4.94,2.14,913.66,24.79,
3470359,-0.01,-0.08,1.07,1.59,4.82,2.2,913.67,24.78,
3470397,-0.01,-0.09,1.08,1.4,4.82,1.95,913.7,24.78,
3470435,-0.01,-0.09,1.07,1.4,4.64,2.14,913.69,24.79,
3470473,-0.01,-0.09,1.08,1.59,4.46,2.01,913.72,24.79,
3470511,-0.01,-0.09,1.06,1.28,4.64,2.14,913.74,24.79,
3470550,-0.03,-0.09,1.06,1.46,4.09,1.89,913.76,24.8,
3470588,-0.02,-0.09,1.06,1.53,4.21,2.08,913.76,24.81,
3470626,-0.02,-0.09,1.06,1.77,4.33,1.95,913.81,24.82,
3470664,-0.01,-0.08,1.07,1.4,4.82,1.89,913.77,24.8,
3470703,-0.01,-0.09,1.07,1.4,4.76,1.71,913.81,24.8,
3470753,-0.01,-0.09,1.09,1.46,5.37,1.65,913.82,24.8,
3470791,-0.01,-0.09,1.08,1.28,5.55,1.89,913.87,24.81,
3470829,-0.02,-0.08,1.08,1.28,5.37,1.46,913.87,24.82,
3470867,-0.01,-0.09,1.1,1.34,5.86,1.53,913.87,24.81,
3470905,-0.0,-0.09,1.06,1.22,5.8,1.46,913.89,24.8,
3470944,-0.02,-0.09,1.05,1.46,5.86,1.65,913.96,24.81,
3470982,-0.01,-0.09,1.06,1.34,6.04,1.4,913.92,24.82,
3471020,-0.01,-0.09,1.07,1.65,5.68,1.28,913.93,24.81,
3471058,-0.03,-0.09,1.08,1.71,5.8,1.46,913.94,24.81,
3471097,-0.02,-0.1,1.04,1.71,5.98,1.22,913.9,24.82,
3471146,-0.01,-0.09,1.05,1.83,6.1,1.22,913.97,24.8,
3471185,-0.01,-0.09,1.05,1.71,5.31,1.4,914.0,24.8,
3471223,-0.0,-0.1,1.03,1.71,5.19,1.1,913.94,24.81,
3471261,0.0,-0.09,1.02,1.34,5.07,1.16,914.02,24.82,
3471299,-0.0,-0.1,1.03,1.4,4.46,1.16,914.03,24.82,
3471337,0.0,-0.08,1.05,1.34,4.09,0.92,914.01,24.81,
3471376,-0.01,-0.09,1.04,1.4,4.15,0.73,914.0,24.8,
3471414,0.0,-0.09,1.02,1.28,4.15,0.67,914.04,24.8,
3471452,-0.0,-0.1,1.0,1.28,4.52,0.43,914.05,24.81,
3471490,-0.0,-0.09,1.0,1.4,3.97,0.37,914.11,24.82,
3471540,-0.0,-0.09,0.99,1.16,3.78,0.31,914.03,24.8,
3471578,-0.0,-0.09,0.97,1.34,3.05,0.18,914.02,24.8,
3471617,0.01,-0.09,0.95,1.1,2.99,0.06,914.11,24.81,
3471655,-0.0,-0.1,0.93,1.16,2.81,0.0,914.14,24.81,
3471693,0.01,-0.09,0.9,1.4,2.38,-0.18,914.1,24.8,
3471731,0.0,-0.09,0.9,1.34,2.69,-0.43,914.08,24.8,
3471769,-0.01,-0.1,0.88,1.28,2.99,-0.55,914.2,24.82,
3471808,-0.0,-0.08,0.91,1.22,2.75,-0.73,914.13,24.81,
3471846,-0.0,-0.1,0.9,0.98,3.42,-1.04,914.14,24.81,
3471896,-0.0,-0.09,0.96,0.79,3.54,-1.1,914.17,24.79,
3471934,-0.01,-0.1,0.97,0.43,4.21,-1.28,914.12,24.81,
3471972,-0.0,-0.09,0.98,0.37,4.03,-1.53,914.23,24.8,
3472010,-0.03,-0.09,1.01,0.43,4.7,-1.53,914.14,24.81,
3472049,-0.01,-0.09,1.03,0.49,4.7,-1.53,914.23,24.81,
3472087,-0.02,-0.09,1.05,0.79,4.7,-1.65,914.18,24.82,
3472125,-0.01,-0.09,1.06,0.92,4.76,-1.77,914.13,24.8,
3472163,-0.01,-0.09,1.06,0.79,4.82,-1.89,914.23,24.81,
3472202,-0.01,-0.09,1.08,0.92,4.94,-1.89,914.22,24.81,
3472240,-0.02,-0.09,1.09,1.22,4.39,-2.08,914.27,24.83,
3472290,-0.03,-0.1,1.07,1.1,4.39,-2.08,914.27,24.8,
3472328,-0.02,-0.08,1.12,1.53,3.66,-2.26,914.26,24.81,
3472366,-0.02,-0.1,1.05,1.22,4.15,-2.14,914.28,24.82,
3472405,-0.04,-0.08,1.06,1.53,3.05,-2.14,914.34,24.82,
3472443,-0.03,-0.09,1.06,1.53,3.72,-2.2,914.27,24.81,
3472481,-0.02,-0.09,1.04,1.59,3.54,-2.32,914.31,24.81,
3472519,-0.02,-0.09,1.05,1.83,2.44,-2.2,914.28,24.82,
3472557,-0.04,-0.09,1.0,1.71,2.32,-2.26,914.3,24.81,
3472596,-0.03,-0.09,1.02,1.95,1.77,-2.26,914.33,24.82,
3472646,-0.04,-0.1,0.99,1.83,1.77,-2.5,914.37,24.82,
3472684,-0.04,-0.09,1.0,1.95,1.16,-2.5,914.31,24.82,
3472722,-0.04,-0.09,1.02,2.2,1.53,-2.44,914.3,24.8,
3472760,-0.04,-0.1,1.0,1.95,0.98,-2.5,914.31,24.81,
3472798,-0.06,-0.09,1.04,2.08,0.67,-2.5,914.31,24.82,
3472837,-0.06,-0.09,1.06,1.89,1.46,-2.38,914.28,24.8,
3472875,-0.05,-0.1,1.05,2.01,1.65,-2.5,914.32,24.82,
3472913,-0.05,-0.09,1.05,1.65,1.89,-2.62,914.34,24.81,
3472951,-0.06,-0.09,1.06,1.59,2.2,-2.44,914.32,24.81,
3472990,-0.05,-0.09,1.05,1.28,2.26,-2.44,914.33,24.81,
3473066,-0.05,-0.09,1.07,0.85,2.08,-2.2,914.33,24.78,
3473104,-0.06,-0.09,1.07,0.73,1.4,-2.08,914.38,24.8,
3473142,-0.06,-0.09,1.07,0.73,1.34,-2.01,914.3,24.8,
3473232,-0.07,-0.09,1.09,0.73,1.34,-1.71,914.43,24.78,
3473270,-0.06,-0.09,1.06,1.16,1.34,-1.89,914.41,24.79,
3473308,-0.08,-0.09,1.06,0.85,1.4,-1.65,914.37,24.79,
3473346,-0.08,-0.09,1.11,1.46,1.28,-1.59,914.45,24.79,
3473385,-0.07,-0.09,1.07,1.28,1.65,-1.59,914.47,24.81,
3473423,-0.09,-0.09,1.09,1.53,1.34,-1.22,914.37,24.79,
3473473,-0.08,-0.09,1.06,1.53,0.79,-1.1,914.36,24.79,
3473511,-0.09,-0.08,1.04,1.46,0.92,-1.04,914.4,24.8,
3473549,-0.08,-0.09,1.02,1.34,1.65,-0.73,914.42,24.8,
3473587,-0.07,-0.08,1.02,1.22,2.08,-0.61,914.43,24.8,
3473626,-0.1,-0.08,1.02,1.16,2.38,-0.24,914.42,24.8,
3473664,-0.08,-0.08,1.06,1.04,2.62,-0.12,914.39,24.79,
3473702,-0.09,-0.09,1.07,1.16,3.66,0.06,914.45,24.81,
3473740,-0.07,-0.09,1.08,0.92,4.15,0.18,914.38,24.8,
3473778,-0.09,-0.09,1.13,1.46,3.54,0.31,914.45,24.8,
3473817,-0.08,-0.09,1.09,1.71,4.21,0.61,914.49,24.81,
3473867,-0.08,-0.08,1.09,2.14,3.85,0.79,914.52,24.79,
3473905,-0.06,-0.09,1.06,2.26,4.46,0.92,914.56,24.81,
3473943,-0.08,-0.09,1.05,2.26,4.03,1.1,914.5,24.81,
3473981,-0.08,-0.09,1.05,2.14,3.72,1.28,914.49,24.82,
3474019,-0.07,-0.09,1.06,2.44,3.66,1.4,914.52,24.81,
3474057,-0.07,-0.09,1.04,2.26,3.42,1.89,914.48,24.8,
3474096,-0.07,-0.1,1.04,2.2,3.78,1.89,914.53,24.81,
3474134,-0.08,-0.09,1.04,1.95,4.03,2.14,914.51,24.82,
3474172,-0.06,-0.09,1.0,1.83,4.03,2.2,914.53,24.81,
3474222,-0.07,-0.09,1.0,1.71,3.36,2.38,914.55,24.8,
3474260,-0.07,-0.1,0.98,1.22,3.78,2.44,914.55,24.81,
3474298,-0.06,-0.09,0.99,1.04,3.54,2.44,914.52,24.8,
3474337,-0.06,-0.09,1.02,0.85,3.42,2.62,914.56,24.81,
3474375,-0.06,-0.09,1.02,0.37,3.17,2.75,914.54,24.82,
3474413,-0.04,-0.1,1.05,0.37,3.54,2.81,914.56,24.81,
3474451,-0.05,-0.1,1.02,-0.06,3.91,2.75,914.55,24.81,
3474489,-0.06,-0.09,1.05,0.06,3.11,2.81,914.54,24.81,
3474528,-0.05,-0.1,1.06,-0.24,3.48,2.87,914.62,24.81,
3474566,-0.05,-0.09,1.08,-0.18,2.93,2.93,914.6,24.82,
3474616,-0.04,-0.1,1.08,-0.18,3.17,2.93,914.64,24.81,
3474654,-0.05,-0.09,1.09,0.18,2.26,2.99,914.6,24.8,
3474692,-0.05,-0.1,1.12,0.0,2.75,3.05,914.6,24.81,
3474730,-0.05,-0.1,1.09,0.24,2.38,2.99,914.64,24.82,
3474769,-0.05,-0.09,1.1,0.37,2.26,3.05,914.66,24.82,
3474807,-0.04,-0.1,1.08,0.49,2.14,3.23,914.68,24.82,
3474845,-0.04,-0.1,1.09,0.73,2.26,3.17,914.69,24.81,
3474883,-0.02,-0.1,1.06,0.61,2.81,2.99,914.6,24.81,
3474922,-0.04,-0.1,1.07,0.79,2.32,3.05,914.67,24.82,
3474960,-0.04,-0.1,1.04,0.73,2.62,3.05,914.69,24.82,
3475010,-0.04,-0.1,1.03,0.85,2.93,2.87,914.69,24.81,
3475048,-0.03,-0.09,1.01,1.04,2.87,2.75,914.71,24.81,
3475086,-0.02,-0.1,1.01,1.1,2.38,2.69,914.72,24.83,
3475124,-0.02,-0.09,1.04,1.22,2.5,2.69,914.69,24.81,
3475163,-0.02,-0.1,1.0,1.1,2.01,2.62,914.69,24.82,
3475201,-0.03,-0.1,1.01,1.65,1.71,2.38,914.7,24.81,
3475239,-0.03,-0.11,1.0,1.59,2.01,2.5,914.77,24.8,
3475277,-0.02,-0.1,1.0,1.46,2.26,2.2,914.75,24.79,
3475316,-0.02,-0.1,1.0,1.59,2.93,2.26,914.75,24.8,
3475366,-0.02,-0.1,1.02,1.65,2.93,2.08,914.75,24.81,
3475404,-0.02,-0.09,1.02,1.65,3.6,2.01,914.74,24.8,
3475442,-0.02,-0.09,1.03,1.53,2.93,1.83,914.81,24.81,
3475480,-0.02,-0.1,1.02,1.59,2.99,1.65,914.75,24.8,
3475518,-0.03,-0.1,1.01,1.71,3.17,1.77,914.77,24.8,
3475557,-0.02,-0.1,1.01,1.89,2.75,1.59,914.84,24.81,
3475595,-0.02,-0.1,1.0,2.08,2.87,1.59,914.79,24.81,
3475633,-0.02,-0.09,0.99,2.38,2.38,1.4,914.77,24.81,
3475671,-0.01,-0.1,0.98,2.32,2.81,1.4,914.81,24.81,
3475710,-0.01,-0.09,0.98,2.44,2.08,1.16,914.84,24.81,
3475760,-0.02,-0.09,0.96,2.5,2.2,1.1,914.8,24.8,
3475798,-0.02,-0.1,0.96,2.5,2.38,0.98,914.86,24.82,
3475836,-0.02,-0.1,0.93,2.38,2.81,0.92,914.8,24.81,
3475874,-0.02,-0.09,0.92,2.62,3.05,0.85,914.79,24.81,
3475913,-0.02,-0.1,0.9,2.5,3.23,0.55,914.83,24.8,
3475951,-0.0,-0.1,0.92,2.44,3.05,0.67,914.78,24.8,
3475989,-0.01,-0.1,0.92,2.44,3.3,0.61,914.83,24.8,
3476027,-0.02,-0.09,0.91,2.32,3.48,0.49,914.83,24.8,
3476065,-0.0,-0.07,0.92,2.44,3.17,0.43,914.84,24.81,
3476141,-0.01,-0.1,0.9,2.14,4.09,0.24,914.86,24.77,
3476179,-0.02,-0.09,0.91,2.32,4.27,0.12,914.89,24.79,
3476218,-0.0,-0.09,0.91,2.38,4.94,0.12,914.82,24.79,
3476307,-0.01,-0.1,0.92,2.14,5.25,-0.18,914.83,24.76,
3476346,-0.01,-0.09,0.94,2.5,4.7,-0.12,914.85,24.76,
3476384,-0.0,-0.1,0.9,2.32,4.52,-0.31,914.87,24.77,
3476422,-0.02,-0.1,0.92,2.5,4.46,-0.55,914.94,24.78,
3476460,-0.0,-0.1,0.9,2.26,5.25,-0.55,914.92,24.79,
3476498,-0.02,-0.09,0.9,2.44,4.39,-0.67,914.92,24.79,
3476537,-0.01,-0.1,0.89,1.89,4.7,-0.55,914.92,24.77,
3476587,-0.01,-0.09,0.93,2.08,4.64,-0.85,914.85,24.77,
3476625,-0.01,-0.1,0.93,1.89,5.0,-0.92,914.89,24.79,
3476663,-0.02,-0.1,0.96,1.89,4.27,-0.92,914.91,24.79,
3476701,-0.02,-0.1,0.97,1.77,4.76,-1.04,914.9,24.78,
3476739,-0.02,-0.09,0.98,1.65,4.64,-1.22,914.91,24.79,
3476778,-0.02,-0.1,1.0,1.59,4.76,-1.16,914.89,24.79,
3476816,-0.01,-0.1,1.0,1.77,4.64,-1.28,914.9,24.8,
3476854,-0.02,-0.1,1.0,1.83,4.46,-1.34,914.9,24.79,
3476892,-0.02,-0.09,1.01,1.83,4.21,-1.4,914.89,24.78,
3476931,-0.02,-0.09,1.0,1.89,4.27,-1.46,914.94,24.79,
3476980,-0.03,-0.1,0.99,1.95,4.03,-1.4,914.92,24.77,
3477019,-0.04,-0.09,1.0,2.01,3.54,-1.4,914.92,24.79,
3477057,-0.04,-0.09,0.98,2.26,3.42,-1.53,914.91,24.79,
3477095,-0.04,-0.09,0.96,2.14,3.36,-1.53,914.92,24.79,
3477133,-0.04,-0.09,0.96,2.26,2.81,-1.46,914.94,24.79,
3477171,-0.04,-0.09,0.95,2.2,3.23,-1.53,914.92,24.79,
3477210,-0.06,-0.09,0.93,2.26,2.93,-1.4,914.9,24.78,
3477248,-0.05,-0.09,0.93,2.26,2.56,-1.46,914.9,24.79,
3477286,-0.04,-0.09,0.89,2.26,2.5,-1.22,914.93,24.79,
3477336,-0.06,-0.09,0.91,2.14,2.62,-1.22,914.95,24.77,
3477374,-0.06,-0.09,0.91,2.32,2.62,-1.1,914.95,24.78,
3477412,-0.05,-0.1,0.93,2.44,2.69,-1.16,914.96,24.79,
3477451,-0.06,-0.09,0.93,2.38,2.87,-0.98,914.95,24.79,
3477489,-0.07,-0.09,0.95,2.38,2.81,-0.79,914.97,24.78,
3477527,-0.05,-0.09,0.91,2.14,3.6,-0.79,914.95,24.79,
3477565,-0.06,-0.09,0.95,2.38,3.17,-0.73,914.97,24.79,
3477604,-0.06,-0.1,0.92,2.44,4.09,-0.67,915.0,24.79,
3477642,-0.05,-0.09,0.92,2.14,4.03,-0.49,914.97,24.8,
3477692,-0.07,-0.09,0.93,2.14,4.46,-0.49,914.92,24.79,
3477730,-0.06,-0.1,0.94,2.08,4.52,-0.24,914.97,24.78,
3477768,-0.06,-0.09,0.94,2.01,4.64,-0.12,915.01,24.79,
3477806,-0.05,-0.09,0.97,1.83,4.58,-0.06,914.95,24.79,
3477845,-0.05,-0.09,0.97,1.71,4.94,-0.12,914.99,24.79,
3477883,-0.05,-0.09,1.0,1.65,4.27,0.0,914.97,24.79,
3477921,-0.06,-0.09,1.0,1.59,3.97,0.12,915.03,24.79,
3477959,-0.06,-0.09,1.03,1.59,3.6,0.31,914.99,24.8,
3477997,-0.05,-0.09,1.01,1.53,2.81,0.06,914.99,24.79,
3478035,-0.06,-0.09,1.03,1.34,1.95,0.24,915.0,24.8,
3478085,-0.06,-0.09,1.02,1.4,1.71,0.37,914.99,24.8,
3478123,-0.06,-0.08,1.01,1.34,1.22,0.49,915.04,24.8,
3478162,-0.06,-0.09,1.02,1.53,1.22,0.55,915.09,24.79,
3478200,-0.06,-0.1,1.01,1.16,1.22,0.55,915.06,24.79,
3478238,-0.06,-0.09,1.02,1.16,1.28,0.61,915.05,24.8,
3478276,-0.06,-0.09,1.02,1.22,1.34,0.61,915.06,24.8,
3478315,-0.05,-0.09,1.01,0.98,1.46,0.79,915.06,24.81,
3478353,-0.06,-0.09,1.01,0.79,1.71,0.67,915.11,24.8,
3478391,-0.05,-0.09,1.03,0.73,1.65,0.79,915.06,24.8,
3478429,-0.05,-0.09,1.04,0.79,1.34,0.79,915.14,24.8,
3478479,-0.05,-0.1,1.03,0.61,1.53,0.55,915.06,24.78,
3478517,-0.06,-0.1,1.04,0.67,1.34,0.67,915.12,24.8,
3478555,-0.05,-0.1,1.04,0.43,1.95,0.67,915.12,24.78,
3478594,-0.05,-0.09,1.05,0.61,1.65,0.79,915.15,24.8,
3478632,-0.06,-0.1,1.02,0.43,2.32,0.85,915.16,24.79,
3478670,-0.05,-0.09,1.03,0.49,2.14,0.67,915.15,24.79,
3478708,-0.05,-0.09,1.02,0.37,2.75,0.79,915.12,24.8,
3478747,-0.05,-0.09,1.03,0.49,2.5,0.73,915.18,24.8,
3478785,-0.05,-0.09,1.05,0.43,2.69,0.79,915.17,24.81,
3478835,-0.04,-0.09,1.06,0.73,2.2,0.67,915.17,24.79,
3478873,-0.05,-0.09,1.04,0.61,2.44,0.67,915.2,24.79,
3478911,-0.05,-0.09,1.06,0.67,2.14,0.73,915.18,24.79,
3478949,-0.04,-0.09,1.07,0.67,1.95,0.61,915.24,24.79,
3478988,-0.04,-0.09,1.05,0.61,1.53,0.67,915.22,24.8,
3479026,-0.04,-0.09,1.07,0.73,1.71,0.73,915.23,24.79,
3479064,-0.05,-0.09,1.06,0.55,1.4,0.55,915.28,24.8,
3479102,-0.04,-0.1,1.06,0.55,1.1,0.67,915.28,24.79,
3479140,-0.04,-0.09,1.09,0.49,0.92,0.67,915.22,24.79,
3479179,-0.05,-0.09,1.06,0.12,0.85,0.55,915.22,24.79,
3479255,-0.03,-0.09,1.07,0.12,0.55,0.61,915.26,24.77,
3479293,-0.03,-0.09,1.1,0.37,-0.12,0.49,915.3,24.78,
3479331,-0.04,-0.09,1.11,0.31,-0.49,0.61,915.26,24.78,
3479421,-0.06,-0.09,1.11,0.61,-0.98,0.37,915.28,24.74,
3479459,-0.05,-0.09,1.11,0.55,-1.16,0.43,915.29,24.76,
3479497,-0.04,-0.09,1.08,0.55,-0.85,0.43,915.25,24.76,
3479535,-0.05,-0.09,1.06,0.92,-0.92,0.31,915.28,24.76,
3479574,-0.05,-0.09,1.03,0.73,-0.31,0.24,915.31,24.77,
3479612,-0.04,-0.09,1.04,1.04,-0.12,0.24,915.27,24.77,
3479650,-0.04,-0.09,1.05,0.92,0.31,0.37,915.28,24.77,
3479700,-0.05,-0.1,1.05,0.85,0.67,0.37,915.34,24.77,
3479738,-0.05,-0.09,1.05,0.73,1.34,0.24,915.29,24.77,
3479776,-0.05,-0.08,1.07,0.73,1.34,0.37,915.28,24.79,
3479814,-0.05,-0.09,1.06,0.55,1.65,0.37,915.34,24.77,
3479853,-0.04,-0.08,1.07,0.55,1.53,0.37,915.3,24.78,
3479891,-0.05,-0.09,1.05,0.49,1.89,0.37,915.3,24.78,
3479929,-0.05,-0.08,1.06,0.73,1.71,0.24,915.33,24.78,
3479967,-0.05,-0.08,1.05,0.85,1.89,0.43,915.35,24.8,
3480005,-0.05,-0.09,1.05,1.16,1.95,0.37,915.36,24.78,
3480055,-0.05,-0.09,1.03,1.28,1.83,0.61,915.3,24.77,
3480094,-0.05,-0.09,1.02,1.4,1.89,0.49,915.32,24.79,
3480132,-0.04,-0.09,1.01,1.53,2.14,0.49,915.34,24.78,
3480170,-0.04,-0.09,1.0,1.71,1.89,0.67,915.36,24.79,
3480208,-0.06,-0.09,0.99,1.89,1.95,0.61,915.37,24.8,
3480246,-0.05,-0.09,0.98,1.71,2.01,0.61,915.35,24.8,
3480285,-0.05,-0.09,0.97,1.77,2.08,0.43,915.29,24.8,
3480323,-0.05,-0.09,0.95,2.01,1.89,0.67,915.3,24.79,
3480361,-0.06,-0.09,0.95,2.08,1.77,0.73,915.28,24.79,
3480399,-0.05,-0.09,0.95,1.95,2.26,0.73,915.36,24.81,
3480449,-0.06,-0.09,0.96,2.2,1.95,1.1,915.35,24.79,
3480487,-0.06,-0.09,0.94,2.38,2.5,1.04,915.35,24.79,
3480525,-0.06,-0.09,0.94,2.2,2.87,0.98,915.34,24.79,
3480564,-0.05,-0.08,0.97,2.26,3.23,1.04,915.34,24.79,
3480602,-0.06,-0.09,0.93,2.01,4.21,1.16,915.41,24.79,
3480640,-0.05,-0.08,0.95,2.32,4.33,1.16,915.36,24.79,
3480678,-0.05,-0.09,0.97,2.38,5.19,1.46,915.32,24.79,
3480717,-0.05,-0.09,0.93,2.38,4.76,1.4,915.39,24.8,
3480755,-0.05,-0.09,0.96,2.44,4.46,1.46,915.36,24.8,
3480793,-0.06,-0.09,0.93,2.32,4.88,1.65,915.46,24.81,
3480843,-0.05,-0.08,0.97,2.44,4.46,1.95,915.37,24.79,
3480881,-0.05,-0.09,0.93,2.14,4.88,1.89,915.35,24.78,
3480919,-0.05,-0.09,0.98,2.44,4.21,2.08,915.42,24.8,
3480958,-0.05,-0.09,0.94,1.83,5.0,2.32,915.4,24.8,
3480996,-0.05,-0.08,0.98,2.01,4.15,2.08,915.4,24.79,
3481034,-0.04,-0.09,0.99,1.77,4.03,2.08,915.34,24.79,
3481072,-0.05,-0.09,0.98,1.59,3.72,2.08,915.39,24.8,
3481110,-0.05,-0.09,1.0,1.71,3.78,2.38,915.38,24.79,
3481149,-0.04,-0.1,0.98,1.28,3.6,2.2,915.39,24.79,
3481199,-0.04,-0.08,1.01,1.65,3.17,2.2,915.45,24.78,
3481237,-0.05,-0.09,1.0,1.71,2.87,2.44,915.39,24.78,
3481275,-0.04,-0.09,1.0,1.83,2.87,2.38,915.41,24.79,
3481313,-0.03,-0.09,1.0,1.89,2.75,2.44,915.42,24.78,
3481351,-0.05,-0.08,1.01,2.44,2.62,2.56,915.4,24.78,
3481389,-0.04,-0.09,0.98,2.5,2.2,2.5,915.48,24.79,
3481428,-0.04,-0.09,0.98,2.62,1.65,2.56,915.43,24.77,
3481466,-0.04,-0.09,0.98,2.69,1.89,2.56,915.41,24.79,
3481504,-0.05,-0.09,1.0,2.81,1.77,2.62,915.44,24.8,
3481542,-0.03,-0.09,0.99,2.99,2.56,2.56,915.48,24.79,
3481592,-0.04,-0.09,0.98,2.93,2.81,2.5,915.45,24.77,
3481630,-0.04,-0.09,0.98,2.5,3.3,2.56,915.44,24.78,
3481668,-0.04,-0.09,0.92,2.75,3.42,2.5,915.49,24.77,
3481707,-0.04,-0.09,0.89,2.38,3.48,2.2,915.48,24.76,
3481745,-0.03,-0.09,0.88,2.2,3.17,2.26,915.46,24.76,
3481783,-0.03,-0.09,0.85,1.95,3.48,2.38,915.42,24.76,
3481821,-0.03,-0.09,0.84,1.65,3.3,2.2,915.48,24.77,
3481860,-0.03,-0.09,0.87,1.46,2.32,2.44,915.56,24.76,
3481898,-0.03,-0.09,0.87,1.4,2.44,2.14,915.46,24.77,
3481948,-0.02,-0.09,0.93,1.04,2.2,2.08,915.5,24.76,
3481986,-0.03,-0.09,0.93,0.79,2.26,2.01,915.47,24.74,
3482024,-0.03,-0.09,0.95,0.98,2.2,2.01,915.52,24.77,
3482062,-0.03,-0.09,0.98,0.61,2.26,1.71,915.52,24.75,
3482100,-0.03,-0.09,0.99,0.98,1.95,1.83,915.54,24.78,
3482139,-0.02,-0.09,1.05,0.79,1.65,1.89,915.56,24.77,
3482177,-0.03,-0.09,1.06,0.73,2.01,1.77,915.53,24.77,
3482215,-0.03,-0.08,1.09,0.98,2.38,1.59,915.55,24.78,
3482253,-0.03,-0.09,1.11,0.67,2.81,1.46,915.53,24.77,
3482291,-0.02,-0.08,1.12,0.79,2.32,1.34,915.58,24.78,
3482367,-0.02,-0.09,1.09,0.98,3.42,1.28,915.61,24.74,
3482405,-0.02,-0.09,1.1,1.34,3.48,1.16,915.6,24.75,
3482444,-0.02,-0.08,1.07,1.34,3.91,1.16,915.61,24.76,
3482533,-0.03,-0.09,1.07,1.77,4.21,1.04,915.56,24.7,
3482572,-0.02,-0.09,1.1,2.01,3.3,0.85,915.55,24.74,
3482610,-0.02,-0.09,1.07,2.01,3.72,0.79,915.58,24.74,
3482648,-0.02,-0.09,1.07,1.95,3.54,0.67,915.6,24.74,
3482686,-0.01,-0.09,1.06,2.2,3.42,0.67,915.64,24.73,
3482724,-0.02,-0.09,1.02,2.01,3.3,0.55,915.59,24.73,
3482762,-0.02,-0.08,1.02,2.26,3.17,0.67,915.64,24.74,
3482812,-0.02,-0.09,0.95,2.32,3.6,0.49,915.59,24.73,
3482851,-0.02,-0.09,0.96,2.2,3.42,0.37,915.7,24.74,
3482889,-0.02,-0.09,0.94,2.32,3.48,0.24,915.62,24.74,
3482927,-0.02,-0.09,0.94,2.5,3.48,0.31,915.61,24.74,
3482965,-0.02,-0.09,0.98,2.38,3.48,0.12,915.56,24.73,
3483003,-0.01,-0.09,0.99,2.38,3.05,0.12,915.61,24.74,
3483041,-0.02,-0.09,0.99,2.32,2.62,-0.06,915.63,24.75,
3483080,-0.02,-0.09,0.99,2.2,2.75,-0.06,915.58,24.76,
3483118,-0.02,-0.09,0.99,2.14,2.69,0.0,915.62,24.75,
3483168,-0.02,-0.09,0.95,2.01,2.69,-0.37,915.66,24.74,
3483206,-0.02,-0.09,0.93,2.32,3.05,-0.24,915.64,24.75,
3483244,-0.0,-0.08,0.96,2.2,2.08,-0.55,915.59,24.75,
3483282,-0.02,-0.09,0.94,2.08,1.71,-0.49,915.65,24.75,
3483320,-0.03,-0.09,0.95,1.95,1.16,-0.55,915.56,24.76,
3483359,-0.03,-0.09,0.99,2.14,1.1,-0.67,915.59,24.75,
3483397,-0.02,-0.09,0.95,1.89,0.85,-0.73,915.68,24.76,
3483435,-0.02,-0.08,0.98,2.26,0.0,-0.79,915.61,24.76,
3483473,-0.03,-0.1,0.94,1.95,0.73,-1.04,915.63,24.77,
3483511,-0.02,-0.09,0.97,2.14,0.12,-1.1,915.59,24.77,
3483561,-0.03,-0.09,0.96,2.14,0.12,-1.04,915.6,24.74,
3483600,-0.04,-0.08,0.95,2.08,0.18,-1.28,915.6,24.76,
3483638,-0.03,-0.09,0.97,1.95,0.43,-1.22,915.59,24.76,
3483676,-0.04,-0.08,0.98,1.71,0.79,-1.22,915.6,24.75,
3483714,-0.05,-0.09,0.98,1.71,0.85,-1.22,915.62,24.76,
3483752,-0.05,-0.09,0.97,1.71,1.53,-1.22,915.66,24.76,
3483790,-0.04,-0.08,0.98,1.83,0.92,-1.28,915.6,24.76,
3483829,-0.05,-0.09,0.94,1.71,1.4,-1.22,915.6,24.76,
3483867,-0.04,-0.09,0.95,1.65,1.22,-1.34,915.62,24.76,
3483917,-0.06,-0.08,0.94,1.65,1.53,-1.4,915.57,24.74,
3483955,-0.06,-0.08,0.96,1.65,1.22,-1.28,915.67,24.77,
3483993,-0.06,-0.09,0.97,1.65,1.46,-1.34,915.61,24.77,
3484031,-0.05,-0.08,0.98,1.71,1.34,-1.28,915.64,24.77,
3484070,-0.06,-0.09,0.98,1.71,1.83,-1.1,915.67,24.77,
3484108,-0.05,-0.08,0.98,1.59,1.83,-1.22,915.6,24.77,
3484146,-0.06,-0.08,1.0,1.59,1.59,-0.98,915.66,24.77,
3484184,-0.06,-0.08,1.0,1.4,2.2,-0.98,915.61,24.77,
3484223,-0.06,-0.08,1.0,1.53,1.95,-0.85,915.61,24.76,
3484261,-0.06,-0.08,1.03,1.53,1.95,-0.55,915.62,24.78,
3484311,-0.08,-0.08,1.01,1.77,2.26,-0.49,915.62,24.76,
3484349,-0.06,-0.07,0.99,1.89,2.69,-0.49,915.61,24.77,
3484387,-0.07,-0.08,0.96,2.2,3.23,-0.18,915.6,24.77,
3484425,-0.07,-0.09,0.94,1.95,3.6,-0.12,915.61,24.77,
3484464,-0.07,-0.08,0.94,2.2,3.72,-0.06,915.64,24.77,
3484502,-0.07,-0.08,0.93,1.95,3.66,0.0,915.63,24.76,
3484540,-0.07,-0.09,0.94,2.08,3.42,0.24,915.63,24.78,
3484578,-0.07,-0.09,0.93,2.26,4.03,0.37,915.61,24.77,
3484616,-0.07,-0.08,0.96,2.08,3.6,0.49,915.61,24.78,
3484666,-0.08,-0.08,0.95,2.32,3.85,0.85,915.64,24.76,
3484704,-0.07,-0.09,0.94,2.2,3.78,0.85,915.68,24.77,
3484743,-0.06,-0.08,0.96,2.08,4.27,0.92,915.69,24.77,
3484781,-0.06,-0.08,0.95,2.2,4.21,1.16,915.65,24.77,
3484819,-0.07,-0.08,0.94,2.14,3.78,1.4,915.65,24.78,
3484857,-0.06,-0.08,0.93,1.95,3.42,1.34,915.66,24.76,
3484896,-0.06,-0.08,0.93,2.01,3.11,1.59,915.7,24.77,
3484934,-0.06,-0.08,0.94,2.01,2.32,1.77,915.66,24.79,
3484972,-0.06,-0.08,0.92,2.08,1.89,1.89,915.69,24.78,
3485010,-0.06,-0.08,0.92,1.83,1.65,2.14,915.7,24.79,
3485060,-0.05,-0.08,0.94,2.08,0.67,2.2,915.69,24.77,
3485098,-0.07,-0.09,0.93,2.2,0.79,2.26,915.69,24.78,
3485136,-0.06,-0.08,0.93,2.14,0.73,2.69,915.71,24.77,
3485175,-0.05,-0.08,0.94,2.38,0.67,2.62,915.65,24.77,
3485213,-0.05,-0.08,0.92,2.08,0.43,2.5,915.75,24.77,
3485251,-0.06,-0.08,0.94,2.38,0.0,2.62,915.69,24.77,
3485289,-0.07,-0.09,0.95,2.44,0.37,2.87,915.77,24.78,
3485327,-0.04,-0.09,0.94,2.44,0.31,2.87,915.79,24.78,
3485366,-0.06,-0.08,0.94,2.5,0.49,2.99,915.72,24.79,
3485404,-0.06,-0.09,0.92,2.5,0.61,2.99,915.77,24.78,
3485481,-0.04,-0.08,0.95,2.56,1.1,3.17,915.71,24.75,
3485519,-0.05,-0.08,0.94,2.38,1.34,3.23,915.77,24.76,
3485558,-0.05,-0.08,0.98,2.26,1.71,3.05,915.81,24.75,
3485647,-0.04,-0.09,1.0,2.01,2.14,3.3,915.83,24.74,
3485686,-0.04,-0.08,1.01,2.01,1.89,3.23,915.82,24.75,
3485724,-0.05,-0.09,1.01,1.83,2.32,3.36,915.84,24.75,
3485762,-0.03,-0.09,1.03,1.83,2.38,3.36,915.85,24.76,
3485800,-0.05,-0.08,1.01,2.08,2.62,3.36,915.84,24.75,
3485838,-0.05,-0.08,1.01,2.26,2.62,3.42,915.88,24.76,
3485888,-0.03,-0.09,0.98,2.14,2.99,3.36,915.87,24.75,
3485927,-0.04,-0.08,0.98,2.08,3.11,3.23,915.84,24.76,
3485965,-0.03,-0.09,0.96,2.14,3.23,3.17,915.83,24.76,
3486003,-0.02,-0.08,0.97,2.14,3.72,2.93,915.84,24.76,
3486041,-0.04,-0.09,0.96,1.95,4.27,3.11,915.87,24.77,
3486079,-0.04,-0.08,0.99,2.32,3.78,2.99,915.87,24.76,
3486118,-0.04,-0.09,0.95,2.01,4.33,2.99,915.84,24.76,
3486156,-0.04,-0.09,0.92,2.32,4.33,3.05,915.92,24.77,
3486194,-0.03,-0.09,0.92,2.5,4.64,3.11,915.92,24.78,
3486232,-0.03,-0.09,0.91,2.32,4.21,2.93,915.95,24.77,
3486282,-0.03,-0.09,0.92,2.62,3.97,2.93,915.91,24.76,
3486320,-0.03,-0.09,0.9,2.38,3.85,3.05,915.92,24.76,
3486359,-0.02,-0.09,0.93,2.44,3.97,2.99,915.93,24.78,
3486397,-0.03,-0.09,0.92,2.14,3.97,2.81,915.89,24.77,
3486435,-0.03,-0.09,0.94,2.2,3.48,2.87,915.94,24.76,
3486473,-0.02,-0.09,0.92,2.08,3.23,2.99,915.92,24.77,
3486511,-0.01,-0.09,0.94,1.89,2.56,2.93,915.96,24.77,
3486550,-0.03,-0.09,0.94,1.71,2.75,2.87,915.92,24.77,
3486588,-0.02,-0.09,0.95,1.65,2.2,2.62,915.9,24.76,
3486626,-0.02,-0.09,0.99,1.83,1.53,2.75,916.03,24.77,
3486676,-0.01,-0.09,1.0,1.83,1.65,2.81,915.97,24.75,
3486714,-0.02,-0.09,1.01,2.01,1.77,2.5,916.01,24.77,
3486752,-0.02,-0.09,1.0,1.89,2.08,2.32,916.01,24.77,
3486791,-0.02,-0.09,1.01,1.95,2.2,2.5,915.98,24.77,
3486829,-0.01,-0.08,0.99,1.83,2.2,2.2,916.05,24.77,
3486867,-0.02,-0.09,0.97,1.95,2.26,2.14,916.05,24.76,
3486905,-0.02,-0.09,0.95,1.65,2.08,2.08,916.01,24.76,
3486944,-0.03,-0.09,0.97,1.89,2.14,2.01,916.06,24.77,
3486982,-0.02,-0.09,0.98,1.77,2.08,2.08,916.03,24.78,
3487032,-0.02,-0.09,1.0,1.71,2.62,1.77,916.05,24.76,
3487070,-0.03,-0.09,1.01,1.65,3.42,1.53,916.06,24.77,
3487108,-0.02,-0.09,1.04,1.65,3.6,1.46,916.09,24.78,
3487146,-0.03,-0.09,1.03,1.77,3.85,1.53,916.02,24.77,
3487184,-0.03,-0.09,1.05,1.89,3.85,1.46,916.08,24.76,
3487223,-0.03,-0.09,1.02,2.01,4.33,1.53,916.12,24.78,
3487261,-0.03,-0.08,1.02,2.08,3.78,1.34,916.11,24.77,
3487299,-0.03,-0.09,1.02,1.95,3.91,1.4,916.11,24.77,
3487337,-0.02,-0.09,1.02,2.14,3.66,1.4,916.1,24.77,
3487375,-0.03,-0.09,1.03,2.08,3.85,1.4,916.12,24.77,
3487425,-0.04,-0.09,1.01,2.08,3.6,1.4,916.11,24.75,
3487463,-0.04,-0.09,1.03,2.14,3.42,1.46,916.11,24.77,
3487502,-0.02,-0.09,1.03,2.14,3.42,1.46,916.08,24.75,
3487540,-0.02,-0.09,1.01,1.89,3.3,1.53,916.1,24.77,
3487578,-0.03,-0.09,1.03,2.01,3.23,1.34,916.18,24.77,
3487616,-0.03,-0.1,1.01,1.95,3.36,1.46,916.16,24.77,
3487655,-0.03,-0.08,1.04,2.01,3.11,1.22,916.09,24.78,
3487693,-0.03,-0.09,1.02,1.89,3.36,1.4,916.14,24.76,
3487731,-0.04,-0.09,1.0,1.89,3.05,1.46,916.11,24.77,
3487769,-0.03,-0.09,0.97,1.83,3.72,1.22,916.19,24.78,
3487819,-0.03,-0.09,0.96,1.89,3.36,1.34,916.17,24.76,
3487857,-0.03,-0.09,0.94,1.77,3.3,1.28,916.14,24.76,
3487895,-0.03,-0.09,0.95,1.95,3.36,1.28,916.19,24.77,
3487934,-0.04,-0.09,0.95,1.95,3.6,1.4,916.16,24.77,
3487972,-0.03,-0.09,0.96,1.71,3.48,1.22,916.13,24.76,
3488010,-0.03,-0.09,0.99,1.95,3.11,1.28,916.14,24.77,
3488048,-0.03,-0.09,0.99,1.83,3.6,1.28,916.19,24.76,
3488086,-0.04,-0.09,0.99,1.77,3.85,1.34,916.21,24.77,
3488124,-0.03,-0.09,0.99,1.77,3.78,1.28,916.18,24.77,
3488174,-0.03,-0.09,0.98,1.59,3.72,1.4,916.16,24.76,
3488213,-0.03,-0.09,0.98,1.65,3.72,1.22,916.26,24.77,
3488251,-0.03,-0.09,0.96,1.59,3.23,1.34,916.18,24.76,
3488289,-0.04,-0.09,0.98,1.71,2.93,1.53,916.26,24.76,
3488327,-0.03,-0.09,0.95,1.77,2.99,1.22,916.23,24.77,
3488365,-0.04,-0.09,0.96,1.65,2.75,1.28,916.25,24.77,
3488403,-0.04,-0.1,0.94,1.77,2.5,1.22,916.27,24.76,
3488442,-0.03,-0.09,0.93,1.83,2.26,1.28,916.21,24.77,
3488480,-0.02,-0.09,0.93,1.89,2.44,1.28,916.25,24.76,
3488518,-0.03,-0.09,0.94,1.59,2.75,1.16,916.3,24.77,
3488594,-0.04,-0.09,0.96,1.65,3.54,1.22,916.24,24.74,
3488632,-0.03,-0.1,0.98,1.65,3.6,1.28,916.28,24.75,
3488670,-0.03,-0.09,0.98,1.4,3.6,1.04,916.33,24.75,
3488760,-0.03,-0.09,1.0,1.59,3.78,1.1,916.34,24.72,
3488798,-0.03,-0.09,0.99,1.65,3.66,1.04,916.37,24.75,
3488836,-0.03,-0.09,1.01,1.71,3.48,1.04,916.33,24.74,
3488874,-0.03,-0.09,0.99,1.65,3.66,1.1,916.33,24.75,
3488913,-0.03,-0.08,1.0,1.83,3.66,1.22,916.32,24.75,
3488951,-0.03,-0.09,0.97,1.77,3.78,1.1,916.33,24.74,
3488989,-0.03,-0.09,0.97,1.89,3.72,1.04,916.38,24.76,
3489039,-0.04,-0.09,0.97,1.89,4.09,1.28,916.35,24.76,
3489077,-0.04,-0.09,0.95,1.95,3.97,1.16,916.35,24.75,
3489115,-0.03,-0.09,0.98,2.08,3.91,1.1,916.4,24.76,
3489154,-0.02,-0.09,0.95,2.2,4.21,1.16,916.4,24.76,
3489192,-0.02,-0.08,1.0,2.2,4.09,1.16,916.42,24.75,
3489230,-0.02,-0.09,0.99,2.2,4.15,1.04,916.45,24.76,
3489268,-0.03,-0.09,1.0,2.2,3.54,1.1,916.36,24.76,
3489307,-0.03,-0.08,0.99,2.08,3.78,1.16,916.4,24.75,
3489345,-0.02,-0.08,0.98,2.2,3.42,1.1,916.38,24.76,
3489395,-0.03,-0.09,0.96,2.32,2.99,1.28,916.44,24.75,
3489433,-0.03,-0.09,0.94,2.38,2.75,1.22,916.42,24.75,
3489471,-0.03,-0.09,0.93,2.38,3.54,1.04,916.43,24.75,
3489509,-0.03,-0.09,0.92,2.32,3.66,1.16,916.44,24.76,
3489547,-0.03,-0.09,0.93,2.38,3.42,1.04,916.43,24.76,
3489586,-0.02,-0.09,0.91,2.26,3.6,0.98,916.49,24.76,
3489624,-0.04,-0.09,0.93,2.14,3.17,1.04,916.45,24.75,
3489662,-0.03,-0.09,0.93,2.14,3.36,1.16,916.43,24.75,
3489700,-0.03,-0.09,0.92,2.2,3.42,1.04,916.44,24.76,
3489738,-0.03,-0.09,0.94,2.08,3.17,0.98,916.46,24.76,
3489788,-0.03,-0.09,0.91,2.14,3.3,1.16,916.47,24.75,
3489826,-0.03,-0.08,0.93,1.89,3.11,0.98,916.46,24.75,
3489865,-0.03,-0.09,0.94,2.01,3.23,1.1,916.48,24.76,
3489903,-0.04,-0.09,0.94,1.83,2.93,0.98,916.49,24.77,
3489941,-0.03,-0.09,0.95,2.01,3.05,0.98,916.52,24.75,
3489979,-0.03,-0.1,0.97,1.89,2.99,1.04,916.51,24.76,
3490018,-0.03,-0.09,0.98,1.95,3.05,1.04,916.59,24.77,
3490056,-0.03,-0.09,0.98,1.95,2.87,0.98,916.52,24.75,
3490094,-0.03,-0.09,0.98,1.83,3.17,1.04,916.58,24.77,
3490132,-0.03,-0.09,1.01,2.08,3.05,1.04,916.5,24.77,
3490182,-0.03,-0.09,1.01,2.01,2.99,1.04,916.57,24.75,
3490220,-0.03,-0.09,1.02,1.89,3.05,0.92,916.56,24.75,
3490259,-0.04,-0.09,1.01,1.65,3.11,1.04,916.56,24.76,
3490297,-0.03,-0.09,1.03,2.32,2.93,0.92,916.61,24.77,
3490335,-0.03,-0.09,1.0,2.14,2.93,1.04,916.53,24.76,
3490373,-0.03,-0.09,1.01,2.2,2.75,0.98,916.58,24.77,
3490411,-0.04,-0.09,1.0,2.14,3.48,0.85,916.57,24.77,
3490450,-0.04,-0.09,0.99,2.2,2.87,0.92,916.6,24.77,
3490488,-0.03,-0.09,0.98,2.08,3.23,1.04,916.54,24.77,
3490538,-0.03,-0.09,0.99,2.08,3.36,0.92,916.63,24.75,
3490576,-0.03,-0.08,0.98,1.77,3.6,0.92,916.63,24.76,
3490614,-0.05,-0.09,0.97,1.89,3.48,0.92,916.58,24.75,
3490652,-0.04,-0.09,0.97,1.71,4.15,0.85,916.6,24.75,
3490691,-0.04,-0.08,0.99,1.65,4.33,0.92,916.63,24.76,
3490729,-0.04,-0.09,0.99,1.89,4.27,1.1,916.61,24.76,
3490767,-0.05,-0.09,0.99,1.89,3.85,1.04,916.69,24.78,
3490805,-0.03,-0.09,1.0,2.2,3.85,0.85,916.66,24.76,
3490844,-0.03,-0.08,1.01,2.08,3.6,1.16,916.66,24.77,
3490882,-0.04,-0.08,1.03,2.2,3.3,1.22,916.67,24.77,
3490932,-0.04,-0.09,1.03,2.08,3.05,1.04,916.71,24.75,
3490970,-0.05,-0.08,1.05,1.71,3.23,1.28,916.65,24.76,
3491008,-0.03,-0.09,1.03,1.59,3.42,1.1,916.7,24.77,
3491046,-0.03,-0.09,1.05,1.77,2.69,1.04,916.74,24.77,
3491084,-0.04,-0.09,0.99,1.77,3.48,1.16,916.74,24.75,
3491123,-0.02,-0.09,1.0,2.08,3.48,1.1,916.68,24.75,
3491161,-0.03,-0.09,0.97,2.08,3.66,1.16,916.74,24.77,
3491199,-0.05,-0.09,0.98,1.89,3.11,1.28,916.75,24.76,
3491237,-0.04,-0.09,0.99,1.59,3.42,1.04,916.66,24.76,
3491276,-0.02,-0.09,1.01,1.71,3.78,1.04,916.73,24.76,
3491326,-0.03,-0.09,1.03,1.83,3.17,1.1,916.77,24.76,
3491364,-0.04,-0.09,1.02,1.83,3.42,0.98,916.78,24.76,
3491402,-0.03,-0.09,1.04,1.95,3.54,1.16,916.79,24.76,
3491440,-0.03,-0.09,1.02,2.14,3.97,0.85,916.76,24.76,
3491478,-0.04,-0.09,1.01,2.08,3.91,0.98,916.82,24.76,
3491517,-0.03,-0.09,1.0,2.14,3.97,0.98,916.82,24.76,
3491555,-0.04,-0.09,1.0,2.08,3.66,0.98,916.77,24.77,
3491593,-0.04,-0.09,1.01,2.26,3.97,1.04,916.74,24.75,
3491631,-0.03,-0.09,0.99,2.2,4.09,0.98,916.84,24.77,
3491707,-0.05,-0.09,0.99,2.5,4.33,1.04,916.85,24.73,
3491745,-0.03,-0.09,0.99,2.32,3.85,1.16,916.88,24.74,
3491783,-0.04,-0.09,0.96,2.32,3.97,0.92,916.84,24.75,
3491873,-0.04,-0.09,0.96,2.38,3.11,1.04,916.86,24.72,
3491911,-0.04,-0.09,0.93,2.38,2.69,1.04,916.84,24.73,
3491950,-0.02,-0.09,0.94,2.44,2.69,1.04,916.85,24.74,
3491988,-0.04,-0.09,0.92,2.38,2.5,0.92,916.85,24.74,
3492026,-0.04,-0.09,0.95,2.44,2.01,0.98,916.92,24.74,
3492064,-0.03,-0.09,0.92,2.14,2.5,0.98,916.91,24.75,
3492102,-0.03,-0.09,0.94,2.32,2.14,0.92,916.97,24.73,
3492152,-0.03,-0.09,0.93,2.2,2.5,0.92,916.88,24.74,
3492190,-0.04,-0.08,0.92,2.2,2.26,0.85,916.9,24.74,
3492229,-0.03,-0.08,0.91,1.83,2.5,0.73,916.91,24.74,
3492267,-0.04,-0.09,0.88,2.14,1.83,0.73,916.92,24.75,
3492305,-0.03,-0.08,0.92,1.95,1.77,0.73,916.94,24.75,
3492343,-0.03,-0.09,0.9,1.83,1.95,0.67,916.94,24.76,
3492381,-0.03,-0.08,0.91,1.77,1.71,0.73,916.94,24.75,
3492419,-0.03,-0.09,0.92,1.89,1.89,0.61,916.91,24.75,
3492458,-0.04,-0.09,0.91,1.77,1.71,0.49,916.97,24.75,
3492496,-0.03,-0.09,0.93,1.83,1.77,0.55,916.94,24.75,
3492546,-0.04,-0.09,0.89,1.71,1.83,0.55,916.92,24.74,
3492584,-0.04,-0.08,0.94,1.59,1.83,0.49,917.0,24.76,
3492622,-0.03,-0.09,0.92,1.59,1.89,0.55,917.06,24.75,
3492660,-0.03,-0.09,0.94,1.89,1.71,0.49,917.02,24.76,
3492699,-0.04,-0.09,0.94,1.71,1.95,0.37,916.99,24.76,
3492737,-0.04,-0.09,0.95,1.77,1.71,0.43,917.01,24.76,
3492775,-0.03,-0.08,0.96,1.59,1.89,0.37,917.07,24.76,
3492813,-0.03,-0.09,0.96,1.77,1.95,0.49,917.05,24.76,
3492852,-0.03,-0.09,0.96,1.71,2.01,0.43,917.0,24.76,
3492901,-0.05,-0.09,0.96,1.59,1.95,0.37,917.08,24.75,
3492940,-0.04,-0.08,0.98,1.65,1.95,0.37,917.09,24.76,
3492978,-0.04,-0.09,0.96,1.65,1.95,0.31,917.08,24.76,
3493016,-0.05,-0.09,0.97,1.83,1.65,0.49,917.09,24.76,
3493054,-0.03,-0.09,0.96,1.65,1.83,0.43,917.08,24.76,
3493093,-0.04,-0.09,0.98,1.59,1.59,0.31,917.1,24.75,
3493131,-0.03,-0.09,0.96,1.65,1.83,0.24,917.16,24.77,
3493169,-0.05,-0.08,0.96,1.65,1.71,0.31,917.12,24.76,
3493207,-0.05,-0.09,0.93,1.71,1.95,0.37,917.19,24.77,
3493245,-0.04,-0.09,0.94,1.77,1.89,0.24,917.15,24.76,
3493295,-0.04,-0.09,0.94,1.53,2.38,0.24,917.13,24.75,
3493333,-0.04,-0.09,0.96,1.53,2.26,0.18,917.19,24.76,
3493372,-0.05,-0.09,0.95,1.46,2.2,0.31,917.13,24.75,
3493410,-0.04,-0.09,0.96,1.34,2.08,0.31,917.12,24.76,
3493448,-0.05,-0.09,0.96,1.34,2.08,0.24,917.18,24.75,
3493486,-0.05,-0.09,0.96,1.1,2.32,0.12,917.17,24.75,
3493524,-0.05,-0.08,0.98,1.1,1.89,0.18,917.2,24.76,
3493563,-0.04,-0.09,0.98,1.16,2.2,0.24,917.24,24.75,
3493601,-0.04,-0.08,0.98,1.28,1.83,0.24,917.21,24.76,
3493639,-0.05,-0.09,0.99,1.16,1.89,0.18,917.23,24.77,
3493689,-0.04,-0.08,1.0,1.16,1.89,0.37,917.22,24.76,
3493727,-0.04,-0.09,1.01,1.22,1.95,0.24,917.23,24.76,
3493765,-0.05,-0.09,1.0,1.53,1.95,0.37,917.23,24.75,
3493804,-0.05,-0.09,1.02,1.4,1.95,0.49,917.25,24.76,
3493842,-0.04,-0.08,1.0,1.46,1.89,0.49,917.25,24.76,
3493880,-0.04,-0.09,1.01,1.59,1.89,0.43,917.26,24.75,
3493918,-0.05,-0.09,1.0,1.46,2.2,0.37,917.3,24.76,
3493956,-0.06,-0.09,1.0,1.4,2.14,0.49,917.33,24.75,
3493995,-0.05,-0.08,1.0,1.22,2.38,0.43,917.25,24.75,
3494045,-0.04,-0.08,1.0,1.4,2.38,0.49,917.26,24.73,
3494083,-0.05,-0.09,0.99,1.22,2.2,0.61,917.39,24.75,
3494121,-0.06,-0.09,0.99,1.22,2.32,0.61,917.35,24.76,
3494159,-0.05,-0.09,0.99,0.92,2.14,0.67,917.32,24.75,
3494197,-0.05,-0.08,0.99,0.98,2.01,0.73,917.32,24.76,
3494235,-0.05,-0.09,1.01,1.04,2.08,0.67,917.31,24.75,
3494274,-0.05,-0.09,1.0,0.98,2.2,0.79,917.4,24.76,
3494312,-0.05,-0.09,1.01,0.92,2.01,0.79,917.38,24.76,
3494350,-0.05,-0.08,1.01,0.79,1.83,1.04,917.43,24.76,
3494388,-0.06,-0.09,1.03,0.73,2.14,1.04,917.45,24.77,
3494438,-0.06,-0.09,1.04,0.73,1.95,1.04,917.4,24.76,
3494476,-0.05,-0.09,1.07,0.67,1.95,1.1,917.4,24.75,
3494515,-0.06,-0.09,1.05,0.61,1.71,1.04,917.44,24.75,
3494553,-0.06,-0.08,1.06,0.61,1.83,1.34,917.49,24.76,
3494591,-0.06,-0.08,1.05,0.73,1.77,1.34,917.39,24.75,
3494629,-0.07,-0.08,1.05,0.98,1.71,1.22,917.43,24.75,
3494667,-0.06,-0.08,1.04,1.04,1.89,1.46,917.47,24.76,
3494706,-0.06,-0.09,1.05,0.92,1.77,1.53,917.48,24.75,
3494744,-0.06,-0.09,1.04,1.16,2.01,1.46,917.49,24.75,
3494782,-0.06,-0.09,1.04,1.04,2.69,1.77,917.5,24.77,
3494858,-0.05,-0.09,1.06,1.34,3.42,2.01,917.46,24.72,
3494896,-0.05,-0.08,1.05,1.34,3.72,2.01,917.52,24.73,
3494934,-0.05,-0.09,1.06,1.34,3.91,2.2,917.54,24.74,
3495024,-0.06,-0.09,1.05,1.53,3.72,2.5,917.58,24.71,
3495062,-0.06,-0.09,1.04,1.59,3.91,2.62,917.57,24.74,
3495100,-0.05,-0.08,1.02,1.59,3.6,2.69,917.62,24.72,
3495138,-0.05,-0.09,1.03,1.65,3.66,2.81,917.55,24.73,
3495177,-0.05,-0.09,1.01,1.4,3.91,2.75,917.63,24.74,
3495215,-0.04,-0.09,1.02,1.53,3.72,2.99,917.64,24.75,
3495264,-0.06,-0.09,1.02,1.53,3.6,3.17,917.61,24.73,
3495303,-0.04,-0.09,1.01,1.4,3.42,3.23,917.61,24.74,
3495341,-0.04,-0.09,1.03,1.4,3.23,3.3,917.58,24.74,
3495379,-0.05,-0.09,1.0,1.4,2.87,3.48,917.61,24.73,
3495417,-0.05,-0.09,1.0,1.22,2.75,3.42,917.62,24.73,
3495455,-0.05,-0.09,1.01,1.22,2.62,3.3,917.6,24.75,
3495494,-0.04,-0.08,1.02,1.22,2.5,3.66,917.64,24.74,
3495532,-0.04,-0.09,1.02,1.04,2.44,3.6,917.67,24.74,
3495570,-0.04,-0.09,1.01,0.92,2.44,3.48,917.68,24.74,
3495608,-0.03,-0.09,1.02,0.92,2.44,3.66,917.69,24.74,
3495658,-0.04,-0.09,1.03,0.85,2.69,3.66,917.68,24.71,
3495696,-0.04,-0.09,1.03,0.98,2.56,3.66,917.67,24.72,
3495735,-0.04,-0.09,1.03,0.79,2.62,3.54,917.73,24.72,
3495773,-0.04,-0.09,1.05,0.85,2.56,3.72,917.72,24.72,
3495811,-0.03,-0.09,1.06,0.73,2.62,3.54,917.7,24.72,
3495849,-0.03,-0.09,1.07,0.92,2.5,3.72,917.76,24.73,
3495887,-0.03,-0.09,1.07,0.61,2.81,3.54,917.81,24.73,
3495926,-0.02,-0.09,1.07,0.67,2.5,3.6,917.78,24.74,
3495964,-0.03,-0.08,1.08,0.79,2.38,3.6,917.8,24.73,
3496002,-0.03,-0.09,1.08,0.79,2.5,3.42,917.8,24.73,
3496052,-0.02,-0.09,1.08,0.79,2.5,3.48,917.77,24.72,
3496090,-0.03,-0.09,1.07,0.79,2.69,3.3,917.85,24.73,
3496128,-0.02,-0.09,1.06,0.85,2.44,3.36,917.76,24.73,
3496167,-0.02,-0.09,1.08,0.92,2.5,3.23,917.77,24.73,
3496205,-0.01,-0.08,1.07,0.73,2.38,3.23,917.86,24.72,
3496243,-0.02,-0.09,1.04,0.85,2.26,3.23,917.87,24.73,
3496281,-0.02,-0.09,1.06,0.85,2.44,3.17,917.91,24.75,
3496320,-0.02,-0.09,1.07,0.92,2.44,2.99,917.86,24.74,
3496358,-0.02,-0.09,1.08,0.85,2.32,2.99,917.84,24.74,
3496408,-0.02,-0.09,1.05,0.79,2.38,2.87,917.88,24.73,
3496446,-0.03,-0.09,1.05,0.98,2.2,2.87,917.85,24.75,
3496484,-0.01,-0.09,1.07,0.85,2.2,2.87,917.86,24.74,
3496522,-0.02,-0.09,1.06,0.79,2.01,2.81,917.86,24.73,
3496560,-0.02,-0.09,1.05,0.85,1.83,2.69,917.89,24.74,
3496599,-0.02,-0.09,1.07,0.92,1.83,2.62,917.84,24.74,
3496637,-0.01,-0.09,1.06,0.73,1.53,2.5,917.91,24.74,
3496675,-0.01,-0.09,1.08,0.85,1.46,2.5,917.95,24.75,
3496713,-0.01,-0.09,1.08,0.85,1.46,2.32,917.94,24.75,
3496751,-0.01,-0.09,1.06,1.04,1.34,2.26,917.87,24.75,
3496801,-0.01,-0.09,1.06,0.85,1.53,2.2,917.88,24.73,
3496840,-0.01,-0.09,1.06,1.16,1.22,2.01,917.86,24.73,
3496878,-0.02,-0.09,1.06,0.98,1.4,1.95,917.93,24.75,
3496916,-0.02,-0.09,1.05,1.34,1.59,1.77,917.94,24.74,
3496954,-0.02,-0.08,1.06,1.28,1.4,1.83,917.95,24.74,
3496992,-0.01,-0.08,1.04,1.28,1.53,1.83,917.9,24.73,
3497031,-0.01,-0.09,1.04,1.53,1.46,1.46,917.92,24.75,
3497069,-0.01,-0.09,1.02,1.46,1.65,1.34,917.93,24.73,
3497107,-0.02,-0.09,1.01,1.53,1.46,1.53,917.96,24.75,
3497145,-0.03,-0.09,1.01,1.65,1.22,1.4,917.98,24.75,
3497195,-0.02,-0.08,1.0,1.77,1.46,1.4,917.87,24.72,
3497233,-0.03,-0.09,1.0,1.65,1.4,1.4,917.94,24.73,
3497271,-0.02,-0.09,1.0,1.65,1.83,1.28,917.92,24.73,
3497310,-0.01,-0.08,1.0,1.89,1.89,1.4,917.95,24.74,
3497348,-0.04,-0.09,1.0,1.77,2.14,1.4,917.94,24.73,
3497386,-0.03,-0.09,1.0,1.71,2.2,1.46,917.97,24.74,
3497424,-0.02,-0.08,1.02,1.77,1.95,1.28,917.96,24.74,
3497462,-0.02,-0.09,1.01,1.77,2.2,1.22,917.96,24.74,
3497501,-0.03,-0.08,1.03,2.01,2.62,1.28,917.99,24.74,
3497551,-0.03,-0.08,0.99,1.83,2.44,1.22,917.92,24.72,
3497589,-0.03,-0.08,0.98,2.08,2.38,1.22,917.99,24.75,
3497627,-0.03,-0.08,0.97,2.01,2.5,1.34,917.96,24.74,
3497665,-0.03,-0.09,0.97,1.95,2.56,1.22,917.95,24.75,
3497703,-0.03,-0.09,0.95,2.08,2.5,1.28,917.96,24.75,
3497742,-0.02,-0.09,0.95,2.26,2.5,1.22,917.98,24.74,
3497780,-0.03,-0.09,0.94,2.26,2.44,1.28,917.97,24.74,
3497818,-0.02,-0.09,0.94,2.01,2.62,1.4,917.98,24.75,
3497856,-0.02,-0.08,0.94,2.14,2.69,1.28,918.02,24.74,
3497895,-0.03,-0.09,0.94,1.89,2.62,1.28,917.93,24.73,
3497970,-0.03,-0.09,0.93,2.01,2.5,1.53,917.94,24.72,
3498009,-0.03,-0.08,0.93,2.01,2.69,1.28,918.02,24.73,
3498047,-0.02,-0.08,0.95,2.08,2.5,1.46,918.01,24.74,
3498137,-0.03,-0.08,0.95,2.44,2.81,1.53,917.94,24.69,
3498175,-0.02,-0.09,0.92,2.44,3.05,1.16,918.05,24.72,
3498213,-0.03,-0.08,0.95,2.87,2.75,1.28,918.0,24.7,
3498251,-0.03,-0.09,0.9,2.69,3.3,1.22,918.02,24.73,
3498289,-0.03,-0.09,0.92,3.17,3.3,1.4,918.03,24.73,
3498328,-0.03,-0.09,0.9,3.11,3.72,1.53,918.01,24.73,
3498366,-0.04,-0.08,0.87,3.11,3.54,1.46,917.99,24.73,
3498416,-0.04,-0.09,0.89,2.81,3.66,1.65,918.04,24.72,
3498454,-0.03,-0.09,0.91,2.44,3.48,1.59,918.06,24.72,
3498492,-0.04,-0.08,0.92,2.5,3.42,1.65,918.02,24.74,
3498530,-0.04,-0.08,0.96,2.2,3.78,1.59,918.01,24.72,
3498568,-0.04,-0.08,0.96,2.08,4.03,1.65,917.96,24.73,
3498607,-0.04,-0.09,0.97,1.95,4.21,1.77,918.01,24.74,
3498645,-0.04,-0.09,0.97,1.95,4.46,1.59,918.04,24.74,
3498683,-0.05,-0.08,1.0,2.08,4.64,1.83,918.06,24.75,
3498721,-0.03,-0.08,0.97,1.83,4.88,2.08,918.01,24.73,
3498771,-0.04,-0.08,0.99,1.89,4.52,1.95,918.0,24.73,
3498809,-0.04,-0.08,0.96,1.53,5.43,2.2,918.02,24.73,
3498847,-0.03,-0.07,1.0,1.53,4.58,2.26,918.02,24.74,
3498886,-0.02,-0.08,1.01,1.71,4.21,2.26,918.0,24.73,
3498924,-0.05,-0.08,1.01,1.4,3.72,2.32,918.08,24.75,
3498962,-0.04,-0.08,1.05,1.59,3.91,2.62,918.05,24.73,
3499000,-0.03,-0.08,1.08,1.53,3.91,2.44,918.08,24.75,
3499039,-0.05,-0.07,1.1,1.77,3.3,2.5,918.12,24.75,
3499077,-0.05,-0.08,1.07,1.65,3.91,2.81,918.09,24.75,
3499115,-0.03,-0.08,1.08,2.01,4.46,2.81,918.1,24.75,
3499165,-0.03,-0.08,1.07,2.08,4.58,2.81,918.11,24.74,
3499203,-0.04,-0.08,1.09,2.08,4.88,2.99,918.1,24.74,
3499241,-0.04,-0.08,1.07,2.14,4.82,2.99,918.13,24.74,
3499279,-0.04,-0.07,1.08,2.5,4.7,3.11,918.1,24.74,
3499318,-0.04,-0.08,1.08,2.26,4.64,3.3,918.16,24.75,
3499356,-0.03,-0.08,1.08,2.38,4.27,3.36,918.12,24.76,
3499394,-0.04,-0.08,1.09,2.2,4.15,3.23,918.07,24.73,
3499432,-0.03,-0.08,1.09,1.95,4.46,3.23,918.14,24.75,
3499471,-0.03,-0.08,1.05,1.95,4.64,3.72,918.08,24.72,
3499509,-0.04,-0.09,1.0,2.08,4.58,3.54,918.13,24.75,
3499559,-0.04,-0.08,0.97,2.26,4.27,3.48,918.18,24.73,
3499597,-0.04,-0.09,0.92,2.32,4.03,3.36,918.19,24.74,
3499635,-0.02,-0.08,0.92,2.26,3.66,3.66,918.11,24.73,
3499673,-0.03,-0.08,0.89,2.01,3.78,3.66,918.11,24.74,
3499712,-0.03,-0.08,0.9,2.08,3.85,3.54,918.16,24.75,
3499750,-0.03,-0.08,0.9,1.83,3.97,3.72,918.14,24.74,
3499788,-0.04,-0.08,0.91,2.2,4.03,3.66,918.14,24.74,
3499826,-0.02,-0.09,0.89,1.65,4.09,3.66,918.17,24.74,
3499865,-0.03,-0.07,0.93,2.01,2.99,3.6,918.1,24.75,
3499914,-0.04,-0.09,0.89,1.65,3.97,3.6,918.17,24.73,
3499953,-0.03,-0.08,0.95,1.71,3.66,3.85,918.15,24.74,
3499991,-0.04,-0.08,0.95,1.65,3.6,3.91,918.22,24.74,
3500029,-0.04,-0.08,0.96,1.65,2.38,3.97,918.18,24.74,
3500067,-0.03,-0.09,0.94,1.59,2.87,3.78,918.13,24.74,
3500105,-0.02,-0.08,0.96,1.71,2.32,3.91,918.14,24.74,
3500144,-0.03,-0.08,0.98,1.83,1.95,4.03,918.16,24.73,
3500182,-0.04,-0.09,0.94,1.65,1.77,4.03,918.17,24.75,
3500220,-0.03,-0.08,1.0,1.83,1.77,4.03,918.21,24.75,
3500258,-0.02,-0.09,0.95,1.59,2.5,4.03,918.23,24.73,
3500308,-0.04,-0.07,0.98,1.77,1.83,4.15,918.21,24.73,
3500346,-0.02,-0.09,0.97,1.59,2.56,3.97,918.3,24.74,
3500385,-0.01,-0.08,0.99,1.65,1.95,3.85,918.17,24.74,
3500423,-0.01,-0.08,1.0,1.71,1.83,4.09,918.24,24.74,
3500461,-0.03,-0.09,0.96,1.71,2.08,4.09,918.24,24.74,
3500499,-0.02,-0.08,0.99,1.89,1.89,3.91,918.27,24.74,
3500537,-0.02,-0.09,0.97,1.83,2.38,4.09,918.28,24.75,
3500576,-0.02,-0.08,0.96,1.77,2.01,3.91,918.28,24.75,
3500614,-0.03,-0.09,0.96,1.65,2.62,3.91,918.26,24.74,
3500652,-0.02,-0.08,0.97,1.59,2.62,3.66,918.28,24.74,
3500702,-0.01,-0.08,1.0,1.53,2.99,3.78,918.29,24.74,
3500740,-0.01,-0.08,1.0,1.53,2.81,3.66,918.27,24.73,
3500778,0.0,-0.08,0.99,1.34,3.23,3.42,918.27,24.74,
3500817,-0.01,-0.08,1.0,1.22,2.87,3.36,918.28,24.74,
3500855,-0.01,-0.08,1.02,1.46,2.69,3.54,918.32,24.74,
3500893,-0.0,-0.08,1.01,1.4,2.5,3.36,918.31,24.74,
3500931,-0.0,-0.08,1.02,1.46,2.32,3.23,918.38,24.76,
3500970,0.0,-0.08,1.02,1.46,1.89,3.17,918.37,24.73,
3501008,-0.0,-0.08,1.02,1.46,1.95,2.93,918.32,24.74,
3501084,-0.01,-0.09,1.05,1.46,1.71,2.81,918.35,24.71,
3501122,0.0,-0.09,1.05,1.4,1.28,2.81,918.35,24.72,
3501160,-0.01,-0.08,1.03,1.34,1.53,2.75,918.37,24.74,
3501250,0.0,-0.08,1.02,1.65,1.53,2.38,918.32,24.69,
3501288,-0.0,-0.08,1.0,1.89,1.46,2.26,918.35,24.71,
3501326,-0.0,-0.08,0.98,2.01,1.71,2.32,918.31,24.7,
3501364,-0.01,-0.08,0.98,1.83,2.2,2.08,918.33,24.7,
3501402,-0.01,-0.08,0.96,1.77,2.2,1.95,918.36,24.72,
3501440,-0.01,-0.08,0.98,1.71,2.56,1.95,918.36,24.71,
3501479,-0.01,-0.08,0.96,1.59,2.93,2.01,918.42,24.72,
3501529,-0.01,-0.08,1.0,1.71,2.87,1.83,918.39,24.71,
3501567,-0.01,-0.09,0.98,1.77,3.36,1.71,918.41,24.69,
3501605,-0.01,-0.07,1.01,1.83,3.48,1.71,918.4,24.71,
3501643,-0.01,-0.08,1.02,1.77,3.91,1.77,918.4,24.72,
3501681,0.0,-0.08,1.05,2.14,3.6,1.71,918.4,24.7,
3501719,-0.0,-0.08,1.04,2.08,4.09,1.46,918.42,24.71,
3501758,0.0,-0.08,1.07,2.26,3.42,1.53,918.42,24.7,
3501796,-0.0,-0.08,1.03,2.01,3.54,1.28,918.4,24.7,
3501834,-0.0,-0.08,1.02,2.14,3.72,1.28,918.45,24.72,
3501872,-0.0,-0.08,1.0,2.08,4.33,1.4,918.45,24.71,
3501922,-0.01,-0.08,1.0,2.26,4.03,0.98,918.44,24.71,
3501960,-0.0,-0.08,1.0,2.2,4.39,1.16,918.47,24.72,
3501998,0.01,-0.08,0.97,2.32,5.0,0.85,918.44,24.71,
3502037,-0.0,-0.08,0.99,2.38,4.52,0.79,918.48,24.72,
3502075,-0.01,-0.08,0.97,2.38,5.13,0.61,918.41,24.71,
3502113,-0.0,-0.08,0.96,2.38,5.55,0.55,918.42,24.72,
3502151,-0.0,-0.08,0.97,2.26,5.43,0.49,918.41,24.71,
3502189,-0.0,-0.08,0.95,2.01,5.13,0.24,918.4,24.69,
3502228,-0.01,-0.08,0.94,1.77,5.19,0.31,918.43,24.7,
3502278,-0.0,-0.08,0.99,1.77,4.88,0.24,918.5,24.69,
3502316,-0.01,-0.08,0.98,1.46,4.82,0.24,918.42,24.7,
3502354,-0.01,-0.08,0.99,1.65,4.09,0.31,918.41,24.69,
3502392,-0.02,-0.08,0.99,1.77,4.15,0.24,918.44,24.71,
3502430,-0.02,-0.08,0.99,1.77,3.91,0.0,918.46,24.7,
3502469,-0.02,-0.08,0.99,2.01,3.72,0.18,918.52,24.71,
3502507,-0.02,-0.08,0.99,1.77,3.54,0.06,918.44,24.7,
3502545,-0.02,-0.08,0.98,2.14,3.48,-0.06,918.48,24.7,
3502583,-0.01,-0.09,0.97,2.08,3.6,0.12,918.46,24.71,
3502621,-0.03,-0.08,0.95,2.2,3.23,0.06,918.48,24.72,
3502671,-0.02,-0.08,0.93,2.32,3.78,0.0,918.49,24.7,
3502709,-0.02,-0.08,0.94,2.56,3.48,-0.12,918.5,24.7,
3502747,-0.01,-0.08,0.95,2.62,3.23,0.0,918.52,24.71,
3502786,-0.01,-0.08,0.95,2.69,2.75,-0.06,918.48,24.7,
3502824,-0.02,-0.08,0.95,2.93,2.69,-0.12,918.49,24.71,
3502862,-0.02,-0.08,0.93,2.87,2.56,-0.12,918.52,24.73,
3502900,-0.01,-0.08,0.95,2.93,1.77,-0.12,918.52,24.72,
3502938,-0.02,-0.08,0.93,2.81,1.71,-0.24,918.42,24.71,
3502977,-0.03,-0.09,0.88,2.81,1.77,-0.18,918.51,24.72,
3503027,-0.03,-0.08,0.88,2.81,2.01,-0.18,918.51,24.7,
3503065,-0.03,-0.08,0.86,2.93,1.77,-0.24,918.5,24.7,
3503103,-0.03,-0.08,0.85,3.17,2.08,-0.31,918.51,24.71,
3503141,-0.02,-0.08,0.83,3.11,2.2,-0.24,918.48,24.7,
3503179,-0.03,-0.08,0.85,3.17,2.2,-0.31,918.53,24.71,
3503218,-0.03,-0.08,0.84,2.93,2.56,-0.31,918.46,24.71,
3503256,-0.03,-0.09,0.84,2.87,2.81,-0.37,918.48,24.71,
3503294,-0.03,-0.07,0.84,2.5,3.54,-0.31,918.46,24.71,
3503332,-0.03,-0.08,0.86,2.14,3.42,-0.24,918.48,24.71,
3503370,-0.04,-0.08,0.88,1.89,3.66,-0.31,918.5,24.72,
3503420,-0.04,-0.08,0.93,1.34,3.66,-0.31,918.48,24.7,
3503458,-0.03,-0.08,0.94,0.98,3.97,-0.18,918.56,24.7,
3503497,-0.04,-0.08,0.96,0.85,3.54,-0.24,918.49,24.7,
3503535,-0.04,-0.08,0.99,0.55,3.78,-0.12,918.5,24.71,
3503573,-0.03,-0.08,1.01,0.67,3.78,0.0,918.52,24.7,
3503611,-0.03,-0.07,1.02,0.43,3.78,-0.06,918.6,24.72,
3503649,-0.04,-0.08,1.02,0.61,4.03,0.06,918.59,24.72,
3503688,-0.05,-0.07,1.03,0.55,3.85,0.06,918.61,24.72,
3503726,-0.03,-0.08,1.06,0.61,3.91,0.18,918.56,24.71,
3503776,-0.04,-0.07,1.06,0.67,3.78,0.12,918.61,24.71,
3503814,-0.04,-0.08,1.06,0.85,3.91,0.31,918.63,24.72,
3503852,-0.03,-0.07,1.09,0.67,3.66,0.24,918.63,24.72,
3503890,-0.04,-0.08,1.1,0.85,3.11,0.31,918.67,24.72,
3503929,-0.04,-0.07,1.08,0.92,3.23,0.43,918.6,24.7,
3503967,-0.04,-0.07,1.11,1.04,2.87,0.55,918.69,24.72,
3504005,-0.03,-0.07,1.11,1.04,2.62,0.55,918.64,24.73,
3504043,-0.03,-0.07,1.1,0.79,2.26,0.67,918.66,24.72,
3504081,-0.03,-0.07,1.1,0.98,2.56,0.67,918.65,24.73,
3504120,-0.03,-0.07,1.1,0.92,2.5,0.61,918.68,24.73,
3504277,-0.03,-0.07,1.09,1.46,3.23,0.79,918.7,24.66,
3504315,-0.04,-0.08,1.05,1.65,3.48,0.79,918.66,24.67,
3504354,-0.03,-0.07,1.04,1.95,3.05,0.55,918.65,24.67,
3504443,-0.04,-0.07,1.01,2.01,2.62,0.67,918.66,24.65,
3504482,-0.04,-0.07,1.0,1.89,3.05,0.79,918.65,24.67,
3504520,-0.03,-0.08,1.0,1.95,3.05,0.85,918.73,24.68,
3504558,-0.04,-0.08,1.01,2.01,2.99,0.92,918.69,24.69,
3504596,-0.05,-0.08,0.99,1.83,3.11,0.92,918.7,24.71,
3504634,-0.04,-0.08,0.99,2.01,3.05,0.98,918.64,24.7,
3504672,-0.03,-0.08,0.98,2.01,3.3,0.92,918.65,24.7,
3504722,-0.04,-0.08,0.98,2.26,2.87,0.92,918.73,24.7,
3504761,-0.04,-0.07,0.96,2.01,3.23,0.98,918.68,24.69,
3504799,-0.03,-0.08,0.99,2.32,2.62,0.98,918.65,24.7,
3504837,-0.05,-0.08,0.98,2.44,2.87,1.22,918.75,24.71,
3504875,-0.04,-0.07,0.99,2.5,2.32,1.28,918.74,24.7,
3504914,-0.03,-0.08,0.98,2.5,2.75,1.16,918.69,24.71,
3504952,-0.04,-0.08,0.94,2.38,2.99,1.22,918.67,24.7,
3504990,-0.04,-0.08,0.96,2.5,2.93,1.34,918.7,24.7,
3505028,-0.04,-0.08,0.9,2.08,3.48,1.34,918.75,24.72,
3505078,-0.04,-0.08,0.93,2.01,2.81,1.46,918.77,24.71,
3505116,-0.04,-0.08,0.89,1.77,3.11,1.53,918.71,24.71,
3505154,-0.02,-0.07,0.94,1.65,2.69,1.28,918.71,24.7,
3505193,-0.03,-0.08,0.95,1.34,3.05,1.34,918.74,24.7,
3505231,-0.03,-0.08,0.96,1.28,2.69,1.46,918.77,24.72,
3505269,-0.04,-0.08,0.95,0.85,3.36,1.46,918.79,24.7,
3505307,-0.04,-0.08,0.95,0.92,3.36,1.4,918.74,24.72,
3505346,-0.03,-0.08,0.97,1.04,3.17,1.59,918.73,24.7,
3505384,-0.03,-0.08,0.96,1.1,3.66,1.53,918.76,24.72,
3505422,-0.03,-0.08,0.97,1.28,3.48,1.59,918.77,24.72,
3505472,-0.03,-0.08,0.99,1.28,3.72,1.4,918.79,24.7,
3505510,-0.03,-0.08,1.0,1.22,3.6,1.46,918.74,24.71,
3505548,-0.03,-0.08,1.01,1.16,3.78,1.59,918.79,24.72,
3505586,-0.03,-0.08,1.01,1.16,3.78,1.59,918.85,24.72,
3505625,-0.03,-0.07,1.02,1.22,3.6,1.59,918.84,24.72,
3505663,-0.04,-0.07,1.02,1.46,3.66,1.59,918.83,24.71,
3505701,-0.03,-0.08,1.01,1.22,3.48,1.65,918.81,24.72,
3505739,-0.04,-0.08,1.02,1.28,3.42,1.65,918.86,24.73,
3505777,-0.04,-0.08,0.99,1.34,3.78,1.65,918.82,24.72,
3505816,-0.03,-0.08,1.01,1.1,3.6,1.59,918.88,24.72,
3505866,-0.03,-0.07,1.01,1.4,3.48,1.77,918.84,24.72,
3505904,-0.02,-0.08,1.02,1.28,3.36,1.65,918.88,24.72,
3505942,-0.02,-0.07,1.02,1.34,3.54,1.59,918.85,24.72,
3505980,-0.04,-0.08,1.02,1.46,3.17,1.71,918.87,24.72,
3506018,-0.03,-0.08,1.03,1.46,2.81,1.53,918.84,24.72,
3506056,-0.03,-0.07,1.03,1.22,2.81,1.59,918.88,24.73,
3506095,-0.03,-0.07,1.02,1.46,2.75,1.59,918.86,24.73,
3506133,-0.03,-0.07,1.03,1.65,2.62,1.53,918.88,24.71,
3506171,-0.03,-0.07,1.03,1.71,2.56,1.46,918.88,24.72,
3506221,-0.03,-0.08,1.05,1.77,2.56,1.53,918.9,24.71,
3506259,-0.02,-0.08,1.03,1.77,2.38,1.34,918.87,24.72,
3506297,-0.03,-0.08,1.03,2.01,2.38,1.4,918.86,24.71,
3506336,-0.03,-0.08,1.02,2.2,2.69,1.22,918.88,24.72,
3506374,-0.02,-0.07,1.01,2.44,2.01,1.4,918.9,24.73,
3506412,-0.04,-0.07,1.0,2.56,2.5,1.46,918.9,24.73,
3506450,-0.02,-0.08,0.98,2.62,2.62,1.46,918.91,24.73,
3506488,-0.04,-0.07,0.99,2.69,2.75,1.22,918.93,24.73,
3506527,-0.03,-0.07,0.98,2.62,2.87,1.4,918.88,24.72,
3506565,-0.03,-0.08,0.97,2.75,2.75,1.16,918.93,24.72,
3506615,-0.04,-0.08,0.95,2.56,2.93,1.28,918.93,24.71,
3506653,-0.04,-0.08,0.96,2.69,2.93,1.4,918.95,24.73,
3506691,-0.04,-0.07,0.95,2.5,3.3,1.28,918.9,24.72,
3506729,-0.03,-0.08,0.96,2.5,2.87,1.46,918.92,24.73,
3506767,-0.03,-0.08,0.96,2.62,3.36,1.22,918.94,24.73,
3506806,-0.02,-0.08,0.95,2.75,2.99,1.46,918.95,24.72,
3506844,-0.03,-0.07,0.96,2.81,3.23,1.34,919.0,24.73,
3506882,-0.04,-0.08,0.95,2.81,3.17,1.34,918.93,24.72,
3506920,-0.03,-0.08,0.93,2.62,3.11,1.34,918.91,24.73,
3506958,-0.03,-0.07,0.94,2.87,3.11,1.28,918.94,24.73,
3507008,-0.03,-0.08,0.93,2.87,3.3,1.34,918.93,24.72,
3507047,-0.02,-0.07,0.93,2.69,3.23,1.28,919.0,24.73,
3507085,-0.02,-0.07,0.94,2.81,3.11,1.4,918.93,24.72,
3507123,-0.03,-0.08,0.93,2.62,3.23,1.22,918.96,24.73,
3507161,-0.03,-0.07,0.95,2.69,2.62,1.16,919.04,24.73,
3507199,-0.03,-0.07,0.95,2.56,2.93,1.28,918.96,24.72,
3507238,-0.01,-0.07,0.95,2.56,2.62,1.28,918.93,24.72,
3507276,-0.02,-0.08,0.96,2.38,2.87,1.1,919.01,24.73,
3507314,-0.02,-0.07,0.94,2.38,2.26,1.1,918.95,24.73,
3507390,-0.03,-0.07,0.92,2.32,1.53,1.1,919.0,24.7,
3507428,-0.05,-0.08,0.94,2.75,1.28,1.16,918.97,24.71,
3507466,-0.02,-0.08,0.9,2.44,1.95,0.98,918.96,24.72,
3507556,-0.04,-0.07,0.93,1.95,0.85,1.1,919.04,24.68,
3507594,-0.04,-0.07,0.94,1.83,0.73,0.92,919.01,24.7,
3507632,-0.04,-0.08,0.92,1.65,0.98,1.34,919.03,24.7,
3507670,-0.04,-0.07,0.94,1.71,0.37,1.28,919.03,24.71,
3507708,-0.03,-0.08,0.9,1.95,0.73,1.34,919.06,24.7,
3507747,-0.04,-0.07,0.94,2.2,0.18,1.16,919.07,24.71,
3507785,-0.05,-0.07,0.92,1.89,0.31,1.65,919.05,24.72,
3507835,-0.03,-0.07,0.95,1.77,-0.12,1.53,919.11,24.71,
3507873,-0.04,-0.07,0.97,1.83,0.12,1.4,919.08,24.72,
3507911,-0.03,-0.08,0.97,1.71,0.18,1.71,919.09,24.71,
3507949,-0.02,-0.07,1.0,1.89,0.37,1.28,919.06,24.72,
3507987,-0.03,-0.07,1.0,1.95,0.92,1.65,919.09,24.72,
3508026,-0.02,-0.08,1.0,2.32,0.98,1.46,919.12,24.72,
3508064,-0.02,-0.08,0.97,2.26,1.4,1.4,919.07,24.72,
3508102,-0.03,-0.07,0.97,2.5,1.28,1.46,919.15,24.73,
3508140,-0.03,-0.08,0.97,2.38,1.89,1.28,919.09,24.72,
3508178,-0.03,-0.08,0.93,2.69,1.95,1.22,919.17,24.72,
3508228,-0.03,-0.08,0.92,2.87,2.62,1.34,919.15,24.71,
3508267,-0.03,-0.08,0.91,2.62,2.99,1.28,919.24,24.72,
3508305,-0.04,-0.07,0.94,2.81,3.17,1.22,919.14,24.72,
3508343,-0.03,-0.08,0.94,2.5,3.66,1.4,919.15,24.72,
3508381,-0.03,-0.07,0.96,2.62,3.6,1.4,919.17,24.73,
3508419,-0.03,-0.07,0.97,2.56,4.15,1.53,919.19,24.72,
3508458,-0.03,-0.08,0.94,2.56,4.27,1.53,919.21,24.73,
3508496,-0.03,-0.08,0.97,2.69,3.78,1.71,919.21,24.72,
3508534,-0.03,-0.08,0.93,2.26,4.58,1.71,919.19,24.71,
3508584,-0.04,-0.08,0.93,2.69,4.39,1.71,919.19,24.72,
3508622,-0.04,-0.08,0.91,2.44,4.64,1.95,919.21,24.72,
3508660,-0.02,-0.08,0.91,2.81,4.39,1.65,919.21,24.72,
3508699,-0.02,-0.08,0.88,2.69,5.0,1.83,919.23,24.72,
3508737,-0.02,-0.08,0.87,2.62,4.7,1.83,919.21,24.72,
3508775,-0.02,-0.08,0.85,2.81,4.09,1.89,919.2,24.71,
3508813,-0.03,-0.08,0.8,2.32,3.66,2.01,919.2,24.71,
3508851,-0.03,-0.08,0.8,2.2,3.23,1.83,919.21,24.72,
3508890,-0.03,-0.08,0.77,1.77,3.05,1.83,919.21,24.72,
3508928,-0.02,-0.08,0.74,1.46,2.75,1.95,919.23,24.73,
3508978,-0.03,-0.08,0.78,1.16,2.81,1.83,919.27,24.72,
3509016,-0.02,-0.08,0.86,0.67,3.3,1.83,919.28,24.73,
3509054,-0.03,-0.08,0.89,0.55,3.3,1.83,919.26,24.72,
3509092,-0.03,-0.08,0.94,0.18,3.42,1.95,919.29,24.72,
3509131,-0.04,-0.08,0.97,0.31,3.66,1.95,919.32,24.73,
3509169,-0.02,-0.08,1.0,0.31,3.66,1.95,919.33,24.72,
3509207,-0.02,-0.07,1.02,0.61,2.99,1.89,919.28,24.72,
3509245,-0.01,-0.08,0.99,0.49,3.11,2.01,919.39,24.73,
3509284,-0.02,-0.07,1.0,0.73,2.69,2.08,919.33,24.72,
3509322,-0.01,-0.08,1.03,1.04,2.62,1.95,919.36,24.72,
3509372,-0.02,-0.08,1.01,1.04,1.53,1.95,919.38,24.71,
3509410,-0.02,-0.07,1.04,1.46,1.59,2.08,919.42,24.72,
3509448,-0.02,-0.08,1.0,1.34,1.53,2.08,919.39,24.72,
3509486,-0.02,-0.08,0.99,1.46,1.4,2.01,919.45,24.72,
3509524,-0.02,-0.08,0.98,1.34,1.46,2.01,919.47,24.73,
3509563,-0.02,-0.08,0.97,1.59,1.4,1.77,919.39,24.72,
3509601,-0.01,-0.08,0.96,1.59,1.95,1.71,919.46,24.72,
3509639,-0.03,-0.08,0.95,1.22,1.77,1.65,919.5,24.74,
3509677,-0.03,-0.08,0.98,1.34,2.08,1.65,919.5,24.74,
3509727,-0.02,-0.08,0.99,1.28,2.5,1.46,919.41,24.71,
3509765,-0.02,-0.08,0.99,1.1,2.75,1.4,919.46,24.72,
3509804,-0.02,-0.08,0.98,1.1,2.87,1.34,919.49,24.73,
3509842,-0.02,-0.08,0.98,1.22,3.42,1.46,919.51,24.72,
3509880,-0.02,-0.08,0.98,1.1,3.54,1.28,919.5,24.72,
3509918,-0.03,-0.08,0.98,1.4,3.3,1.34,919.52,24.72,
3509956,-0.02,-0.08,0.99,1.16,3.54,1.28,919.54,24.71,
3509995,-0.03,-0.08,1.0,1.4,3.6,1.22,919.51,24.73,
3510033,-0.03,-0.08,1.0,1.34,4.03,1.28,919.58,24.73,
3510071,-0.02,-0.08,1.0,1.53,3.72,1.1,919.5,24.72,
3510121,-0.02,-0.08,1.0,1.53,3.85,1.1,919.61,24.73,
3510159,-0.03,-0.08,1.0,1.77,3.66,1.22,919.61,24.72,
3510197,-0.03,-0.08,1.0,1.77,3.85,1.04,919.6,24.73,
3510235,-0.02,-0.08,1.01,1.89,3.6,0.98,919.63,24.73,
3510274,-0.02,-0.08,1.0,2.01,3.85,1.16,919.59,24.72,
3510312,-0.03,-0.07,0.97,1.83,3.91,1.16,919.63,24.73,
3510350,-0.03,-0.07,0.99,1.95,3.85,1.16,919.63,24.72,
3510388,-0.03,-0.08,1.0,2.01,3.48,1.22,919.6,24.72,
3510426,-0.02,-0.08,1.0,2.01,3.36,0.98,919.61,24.72,
3510465,-0.02,-0.08,1.01,2.14,3.6,1.1,919.59,24.72,
3510541,-0.02,-0.07,1.01,1.83,3.11,1.28,919.66,24.69,
3510579,-0.03,-0.08,1.0,1.83,3.05,1.16,919.66,24.7,
3510617,-0.03,-0.08,0.99,1.71,3.17,0.98,919.63,24.7,
3510707,-0.03,-0.07,0.99,1.59,3.17,1.28,919.72,24.68,
3510745,-0.03,-0.08,0.98,1.65,3.54,1.04,919.76,24.7,
3510783,-0.02,-0.08,0.98,1.53,3.66,1.04,919.71,24.69,
3510821,-0.03,-0.07,0.98,1.59,3.54,1.16,919.78,24.7,
3510859,-0.03,-0.07,0.98,1.59,3.42,1.1,919.72,24.7,
3510898,-0.02,-0.08,0.98,1.65,3.66,1.04,919.79,24.71,
3510948,-0.02,-0.07,0.98,1.59,3.48,1.22,919.79,24.69,
3510986,-0.03,-0.07,1.0,1.71,3.3,1.04,919.75,24.7,
3511024,-0.02,-0.08,0.99,1.59,3.11,1.04,919.78,24.71,
3511062,-0.02,-0.07,1.03,1.83,2.87,1.16,919.77,24.71,
3511100,-0.02,-0.08,1.0,1.95,3.11,1.04,919.82,24.7,
3511139,-0.03,-0.08,1.0,2.32,2.93,1.1,919.85,24.71,
3511177,-0.03,-0.08,0.99,2.44,3.54,1.1,919.88,24.72,
3511215,-0.02,-0.07,0.97,2.69,3.23,0.85,919.93,24.72,
3511253,-0.02,-0.07,0.96,2.75,3.48,1.04,919.85,24.71,
3511291,-0.03,-0.08,0.94,2.87,3.54,1.04,919.85,24.71,
3511341,-0.02,-0.08,0.94,2.81,3.85,0.92,919.82,24.7,
3511379,-0.03,-0.08,0.92,2.62,3.91,0.73,919.9,24.71,
3511418,-0.02,-0.07,0.94,2.81,3.72,0.79,919.89,24.72,
3511456,-0.02,-0.08,0.93,2.69,4.09,0.92,919.87,24.71,
3511494,-0.03,-0.08,0.94,2.56,3.85,0.73,919.92,24.72,
3511532,-0.03,-0.08,0.93,2.26,3.85,0.79,919.87,24.71,
3511570,-0.03,-0.08,0.94,2.08,4.15,0.73,919.88,24.72,
3511609,-0.02,-0.08,0.95,2.14,3.78,0.92,919.93,24.72,
3511647,-0.03,-0.07,0.96,1.95,3.36,0.85,920.01,24.73,
3511685,-0.03,-0.08,0.95,1.77,3.3,0.73,919.93,24.72,
3511735,-0.04,-0.08,0.96,1.71,3.48,0.79,920.02,24.71,
3511773,-0.03,-0.08,0.96,1.77,3.72,0.92,919.99,24.71,
3511811,-0.03,-0.08,0.96,1.77,3.72,0.85,919.99,24.71,
3511849,-0.03,-0.08,0.95,1.71,3.72,1.04,920.01,24.72,
3511888,-0.03,-0.08,0.97,1.77,3.78,0.79,920.01,24.72,
3511926,-0.03,-0.08,0.96,1.65,3.91,0.79,920.04,24.72,
3511964,-0.02,-0.08,0.97,1.65,3.78,0.73,920.09,24.72,
3512002,-0.03,-0.08,1.0,1.59,3.85,0.79,920.05,24.73,
3512040,-0.03,-0.08,0.98,1.46,3.85,0.92,920.07,24.71,
3512090,-0.03,-0.07,1.01,1.65,3.36,0.79,920.11,24.7,
3512128,-0.03,-0.08,1.01,1.53,3.66,0.85,920.06,24.72,
3512166,-0.03,-0.08,1.02,1.71,3.48,0.73,920.13,24.72,
3512204,-0.04,-0.08,1.02,1.71,3.17,0.85,920.09,24.72,
3512243,-0.03,-0.08,1.01,1.89,3.05,0.85,920.14,24.72,
3512281,-0.04,-0.07,1.0,1.83,3.23,0.79,920.12,24.73,
3512319,-0.04,-0.07,0.98,1.95,2.99,1.04,920.11,24.71,
3512357,-0.03,-0.08,0.98,1.83,2.93,0.92,920.13,24.72,
3512395,-0.04,-0.08,0.96,2.01,3.23,1.04,920.14,24.72,
3512434,-0.02,-0.08,0.97,1.89,3.17,0.92,920.16,24.71,
3512484,-0.04,-0.07,0.97,1.89,2.99,0.79,920.11,24.71,
3512522,-0.04,-0.08,0.97,1.95,3.17,0.85,920.19,24.71,
3512560,-0.04,-0.08,0.97,1.83,3.23,0.85,920.22,24.72,
3512598,-0.04,-0.08,0.97,1.77,3.11,0.92,920.21,24.71,
3512636,-0.03,-0.08,0.95,1.71,3.05,0.98,920.2,24.71,
3512675,-0.03,-0.07,0.96,1.83,3.23,0.85,920.21,24.72,
3512713,-0.03,-0.08,0.95,1.71,3.48,0.92,920.18,24.71,
3512751,-0.03,-0.08,0.96,1.77,3.17,0.98,920.25,24.72,
3512789,-0.04,-0.08,0.96,1.53,3.36,0.92,920.25,24.71,
3512827,-0.03,-0.08,0.96,1.53,3.23,0.73,920.25,24.71,
3512877,-0.03,-0.08,0.98,1.4,3.42,0.98,920.26,24.71,
3512915,-0.03,-0.08,0.98,1.4,3.23,0.92,920.26,24.71,
3512954,-0.03,-0.07,0.98,1.53,3.42,0.98,920.3,24.72,
3512992,-0.04,-0.08,0.98,1.46,3.23,0.92,920.3,24.7,
3513030,-0.03,-0.08,0.98,1.34,3.42,1.1,920.33,24.71,
3513068,-0.04,-0.07,0.98,1.4,3.17,0.98,920.31,24.69,
3513106,-0.04,-0.08,0.99,1.46,3.17,1.04,920.32,24.71,
3513145,-0.04,-0.08,0.99,1.28,3.23,0.98,920.42,24.71,
3513183,-0.04,-0.07,1.0,1.34,3.17,1.04,920.32,24.71,
3513233,-0.04,-0.08,0.98,1.22,3.36,0.98,920.37,24.71,
3513271,-0.04,-0.07,0.99,1.46,2.81,1.1,920.4,24.7,
3513309,-0.03,-0.08,0.99,1.1,3.05,1.04,920.36,24.71,
3513347,-0.03,-0.07,1.0,1.22,2.99,1.1,920.35,24.7,
3513386,-0.04,-0.08,1.0,1.34,2.75,1.16,920.41,24.7,
3513424,-0.03,-0.08,1.0,1.4,2.32,1.1,920.46,24.72,
3513462,-0.04,-0.08,1.0,1.16,2.5,1.04,920.48,24.73,
3513500,-0.03,-0.07,1.01,1.22,2.56,1.04,920.47,24.7,
3513538,-0.03,-0.07,1.02,1.16,2.32,1.04,920.46,24.71,
3513577,-0.03,-0.07,1.02,1.16,2.14,1.16,920.45,24.71,
3513652,-0.03,-0.07,1.02,1.22,2.32,1.16,920.52,24.69,
3513691,-0.03,-0.07,1.02,1.4,2.08,1.04,920.57,24.7,
3513729,-0.03,-0.07,1.04,1.34,2.2,1.22,920.5,24.71,
3513929,-0.03,-0.07,1.02,1.53,2.81,1.1,920.58,24.63,
3513967,-0.04,-0.07,1.01,1.34,2.81,1.16,920.61,24.66,
3514006,-0.03,-0.07,1.02,1.4,2.99,1.04,920.65,24.66,
3514044,-0.04,-0.07,1.03,1.46,2.99,0.98,920.58,24.66,
3514082,-0.03,-0.07,1.02,1.4,2.93,1.04,920.66,24.67,
3514120,-0.03,-0.07,1.02,1.4,2.75,0.98,920.6,24.67,
3514158,-0.04,-0.07,1.03,1.4,2.69,1.04,920.64,24.67,
3514208,-0.04,-0.06,1.04,1.53,2.38,1.16,920.67,24.67,
3514246,-0.03,-0.07,1.04,1.59,2.38,0.98,920.7,24.68,
3514284,-0.04,-0.07,1.04,1.65,1.77,1.28,920.62,24.67,
3514323,-0.04,-0.07,1.05,1.46,1.83,1.28,920.71,24.69,
3514361,-0.04,-0.07,1.03,1.59,1.95,1.28,920.68,24.69,
3514399,-0.04,-0.06,1.05,1.77,1.46,1.28,920.68,24.69,
3514437,-0.04,-0.07,1.03,1.83,1.89,1.34,920.73,24.7,
3514475,-0.04,-0.07,1.04,1.65,1.71,1.34,920.74,24.7,
3514514,-0.04,-0.07,1.06,1.89,1.65,1.4,920.73,24.7,
3514564,-0.05,-0.07,1.01,1.77,1.77,1.34,920.72,24.69,
3514602,-0.04,-0.07,1.02,1.71,1.71,1.4,920.73,24.69,
3514640,-0.05,-0.07,0.99,1.59,2.26,1.46,920.75,24.7,
3514678,-0.04,-0.06,0.99,1.65,1.95,1.53,920.76,24.69,
3514716,-0.04,-0.07,0.99,1.65,2.44,1.4,920.74,24.71,
3514755,-0.04,-0.07,0.99,1.59,2.5,1.53,920.76,24.7,
3514793,-0.04,-0.07,1.0,1.59,2.62,1.59,920.81,24.71,
3514831,-0.04,-0.08,1.0,1.71,2.93,1.65,920.83,24.71,
3514869,-0.04,-0.07,1.01,1.89,2.81,1.71,920.84,24.71,
3514907,-0.04,-0.08,0.99,1.53,3.48,1.65,920.81,24.72,
3514957,-0.04,-0.07,1.0,1.89,2.93,1.77,920.81,24.69,
3514995,-0.04,-0.07,0.97,1.65,3.23,1.65,920.82,24.69,
3515034,-0.05,-0.07,1.0,1.95,2.87,1.77,920.83,24.71,
3515072,-0.04,-0.07,0.99,1.89,3.54,1.83,920.89,24.71,
3515110,-0.03,-0.07,1.0,1.83,2.69,1.83,920.88,24.71,
3515148,-0.03,-0.07,1.01,2.01,2.81,1.89,920.85,24.71,
3515186,-0.04,-0.07,1.0,1.89,2.81,1.89,920.89,24.7,
3515224,-0.04,-0.07,1.0,2.08,2.62,1.95,920.93,24.7,
3515263,-0.04,-0.07,0.99,2.08,2.44,2.08,920.92,24.71,
3515301,-0.04,-0.07,0.99,2.01,2.38,2.14,920.93,24.71,
3515351,-0.04,-0.07,0.99,1.95,2.14,2.08,920.92,24.71,
3515389,-0.04,-0.07,0.99,2.01,2.2,2.26,920.98,24.71,
3515427,-0.04,-0.08,0.96,2.08,2.32,2.2,920.93,24.7,
3515465,-0.04,-0.07,0.94,2.08,2.14,2.14,921.03,24.72,
3515503,-0.04,-0.07,0.95,2.08,2.38,2.26,920.92,24.72,
3515542,-0.04,-0.07,0.93,2.14,2.69,2.14,920.96,24.72,
3515580,-0.04,-0.07,0.92,2.08,2.56,2.26,920.92,24.7,
3515618,-0.05,-0.08,0.89,1.71,2.32,2.38,920.96,24.71,
3515656,-0.05,-0.07,0.93,1.65,2.56,2.44,920.98,24.72,
3515706,-0.04,-0.08,0.94,1.65,2.87,2.38,921.0,24.7,
3515744,-0.04,-0.08,0.95,1.4,3.17,2.5,921.0,24.71,
3515783,-0.04,-0.07,0.96,1.71,3.11,2.26,921.03,24.72,
3515821,-0.05,-0.08,0.95,1.59,3.48,2.56,921.04,24.72,
3515859,-0.05,-0.07,0.98,1.53,2.87,2.62,921.04,24.71,
3515897,-0.05,-0.08,0.97,1.4,3.36,2.69,921.04,24.71,
3515936,-0.04,-0.07,0.97,1.28,2.69,2.62,921.06,24.7,
3515974,-0.03,-0.07,0.99,1.22,3.11,2.62,921.13,24.71,
3516012,-0.05,-0.08,0.98,1.4,3.05,2.93,921.05,24.71,
3516050,-0.04,-0.07,1.0,1.4,2.5,2.75,921.14,24.71,
3516100,-0.04,-0.07,1.0,1.28,2.01,2.87,921.12,24.71,
3516138,-0.05,-0.07,0.98,1.34,1.89,3.05,921.08,24.69,
3516176,-0.04,-0.07,0.99,1.34,1.95,2.99,921.13,24.7,
3516215,-0.04,-0.07,1.0,1.34,2.2,2.87,921.16,24.71,
3516253,-0.03,-0.08,0.99,1.34,2.56,3.11,921.11,24.71,
3516291,-0.04,-0.07,1.0,1.34,2.38,3.11,921.12,24.7,
3516329,-0.04,-0.07,0.99,1.4,2.81,3.05,921.19,24.72,
3516367,-0.05,-0.07,0.99,1.28,3.36,3.23,921.18,24.72,
3516405,-0.05,-0.07,0.99,1.46,3.54,2.99,921.2,24.72,
3516444,-0.04,-0.07,0.95,1.46,3.78,2.93,921.19,24.7,
3516494,-0.03,-0.07,0.98,1.34,3.42,3.05,921.22,24.71,
3516532,-0.04,-0.07,1.02,1.34,3.36,3.17,921.24,24.71,
3516570,-0.04,-0.08,1.01,1.4,3.54,3.17,921.28,24.72,
3516608,-0.04,-0.07,1.05,1.53,3.3,3.23,921.31,24.72,
3516646,-0.03,-0.08,1.02,1.28,3.36,3.23,921.34,24.71,
3516685,-0.03,-0.06,1.07,1.65,2.44,3.05,921.33,24.72,
3516723,-0.03,-0.07,1.03,1.59,3.3,3.17,921.31,24.72,
3516761,-0.03,-0.07,1.04,1.77,2.44,3.3,921.37,24.72,
3516799,-0.02,-0.08,1.03,1.95,2.87,3.23,921.31,24.7,
3516960,-0.02,-0.07,0.96,2.26,2.08,3.05,921.41,24.66,
3516998,-0.03,-0.08,0.91,1.95,2.93,3.11,921.33,24.67,
3517036,-0.01,-0.07,0.97,2.08,2.44,2.75,921.39,24.68,
3517299,-0.02,-0.08,1.02,1.83,2.08,2.38,921.46,24.58,
3517337,-0.02,-0.07,1.03,1.77,1.83,2.26,921.49,24.61,
3517375,-0.02,-0.07,1.04,1.89,1.65,2.32,921.55,24.62,
3517413,-0.02,-0.07,1.05,1.83,1.46,2.01,921.46,24.62,
3517452,-0.02,-0.07,1.07,2.08,1.16,2.08,921.47,24.63,
3517490,-0.02,-0.07,1.08,2.08,1.22,2.08,921.5,24.63,
3517528,-0.02,-0.07,1.08,2.14,1.22,1.95,921.51,24.63,
3517578,-0.02,-0.07,1.09,2.14,1.1,1.71,921.57,24.64,
3517616,-0.01,-0.07,1.09,2.2,1.16,1.71,921.56,24.65,
3517654,-0.02,-0.07,1.11,2.08,0.98,1.71,921.56,24.66,
3517692,-0.03,-0.07,1.08,2.26,1.65,1.65,921.59,24.66,
3517731,-0.03,-0.07,1.09,2.38,1.71,1.46,921.56,24.66,
3517769,-0.02,-0.07,1.09,2.44,2.08,1.4,921.6,24.67,
3517807,-0.02,-0.07,1.07,2.38,2.26,1.34,921.64,24.66,
3517845,-0.02,-0.07,1.07,2.32,2.38,1.28,921.55,24.67,
3517883,-0.03,-0.07,1.05,2.44,2.56,1.16,921.71,24.68,
3517922,-0.03,-0.07,1.07,2.5,2.01,1.4,921.61,24.67,
3517971,-0.02,-0.07,1.09,2.32,2.14,1.34,921.7,24.66,
3518010,-0.03,-0.07,1.07,2.08,2.44,1.28,921.64,24.67,
3518048,-0.02,-0.07,1.08,2.2,2.32,1.4,921.66,24.68,
3518086,-0.03,-0.07,1.08,2.08,2.2,1.28,921.64,24.67,
3518124,-0.02,-0.07,1.07,2.2,2.87,1.28,921.64,24.67,
3518163,-0.03,-0.07,1.07,2.32,2.99,1.4,921.7,24.68,
3518201,-0.03,-0.07,1.06,2.26,3.17,1.34,921.67,24.67,
3518239,-0.03,-0.07,1.05,2.5,2.99,1.16,921.69,24.67,
3518277,-0.03,-0.07,1.06,2.69,3.72,1.1,921.69,24.69,
3518327,-0.03,-0.07,1.03,2.69,4.09,1.28,921.68,24.67,
3518365,-0.02,-0.07,1.0,2.44,4.21,1.16,921.66,24.69,
3518403,-0.03,-0.07,0.99,2.56,4.7,1.16,921.71,24.68,
3518441,-0.03,-0.07,0.97,2.56,4.76,1.34,921.76,24.69,
3518480,-0.02,-0.07,0.94,2.56,5.31,1.22,921.77,24.69,
3518518,-0.02,-0.07,0.96,2.56,5.74,1.22,921.71,24.7,
3518556,-0.04,-0.07,0.95,2.44,6.23,1.16,921.71,24.69,
3518594,-0.03,-0.07,1.0,2.32,6.23,1.16,921.74,24.68,
3518633,-0.01,-0.07,1.13,2.75,4.76,1.1,921.74,24.7,
3518671,-0.04,-0.07,1.12,1.83,4.82,1.34,921.74,24.7,
3518721,-0.02,-0.05,1.21,1.71,4.7,1.46,921.68,24.69,
3518759,-0.02,-0.06,1.19,1.22,4.7,1.46,921.74,24.7,
3518797,-0.04,-0.05,1.23,1.59,3.78,1.53,921.82,24.69,
3518835,-0.04,-0.06,1.21,1.89,4.15,1.59,921.76,24.69,
3518873,-0.03,-0.06,1.21,2.2,3.36,1.65,921.75,24.69,
3518912,-0.02,-0.05,1.2,2.44,3.54,1.77,921.76,24.7,
3518950,-0.02,-0.06,1.15,2.44,3.54,1.83,921.77,24.71,
3518988,-0.02,-0.07,1.16,2.38,3.42,1.71,921.79,24.69,
3519026,-0.03,-0.06,1.15,2.69,3.23,1.77,921.83,24.7,
3519064,-0.03,-0.07,1.15,2.69,3.6,1.83,921.75,24.7,
3519114,-0.02,-0.07,1.11,2.32,4.09,1.77,921.83,24.7,
3519153,-0.02,-0.06,1.11,2.62,3.97,1.65,921.77,24.7,
3519191,-0.02,-0.07,1.1,2.26,3.6,1.71,921.78,24.7,
3519229,-0.02,-0.07,1.1,2.26,3.17,1.53,921.83,24.7,
3519267,-0.01,-0.07,1.12,2.26,3.3,1.71,921.79,24.7,
3519305,-0.02,-0.07,1.09,2.01,3.3,1.46,921.82,24.7,
3519344,-0.02,-0.07,1.08,1.65,2.99,1.53,921.83,24.7,
3519382,-0.02,-0.07,1.08,1.46,2.69,1.34,921.81,24.7,
3519420,-0.01,-0.07,1.09,1.53,2.69,1.34,921.78,24.71,
3519470,-0.02,-0.08,1.08,1.34,2.5,1.34,921.81,24.68,
3519508,-0.02,-0.07,1.07,1.28,2.56,1.28,921.78,24.7,
3519546,-0.02,-0.07,1.07,1.46,2.62,1.1,921.85,24.7,
3519584,-0.02,-0.07,1.05,1.28,2.56,1.1,921.8,24.71,
3519623,-0.02,-0.08,1.04,1.34,2.81,0.92,921.85,24.7,
3519661,-0.03,-0.07,1.07,1.28,2.99,0.85,921.85,24.7,
3519699,-0.02,-0.07,1.08,1.4,3.17,0.85,921.81,24.71,
3519737,-0.02,-0.07,1.08,1.04,3.11,0.67,921.85,24.7,
3519775,-0.02,-0.07,1.09,1.22,3.42,0.85,921.77,24.69,
3519814,-0.03,-0.07,1.12,0.98,3.48,0.79,921.82,24.7,
3519864,-0.03,-0.07,1.13,1.04,3.85,0.67,921.79,24.68,
3519902,-0.03,-0.07,1.13,1.22,4.27,0.55,921.81,24.7,
3519940,-0.03,-0.06,1.12,1.22,4.09,0.67,921.8,24.71,
3519978,-0.03,-0.06,1.15,1.4,3.78,0.67,921.83,24.71,
3520016,-0.02,-0.07,1.11,1.4,4.15,0.79,921.86,24.7,
3520054,-0.02,-0.06,1.09,1.46,3.48,0.55,921.79,24.7,
3520093,-0.03,-0.07,1.07,1.53,3.23,0.67,921.79,24.69,
3520131,-0.03,-0.07,1.03,1.59,2.99,0.67,921.8,24.71,
3520169,-0.03,-0.07,1.02,1.59,2.44,0.55,921.82,24.71,
3520207,-0.02,-0.08,1.01,1.53,2.32,0.61,921.8,24.7,
3520370,-0.03,-0.08,0.9,1.65,2.75,0.67,921.79,24.63,
3520408,-0.02,-0.08,0.87,1.4,2.75,0.61,921.83,24.66,
3520446,-0.03,-0.07,0.87,1.34,2.69,0.67,921.8,24.66,
3520618,-0.03,-0.08,0.9,1.28,3.91,0.73,921.8,24.6,
3520656,-0.02,-0.08,0.93,1.04,4.03,0.55,921.79,24.61,
3520694,-0.03,-0.08,0.92,0.79,4.27,0.55,921.73,24.63,
3520733,-0.03,-0.08,0.92,0.79,4.15,0.43,921.78,24.63,
3520771,-0.03,-0.07,0.95,0.73,3.85,0.67,921.78,24.63,
3520809,-0.03,-0.07,0.98,0.73,3.72,0.61,921.76,24.65,
3520859,-0.02,-0.08,1.01,0.98,3.66,0.55,921.82,24.64,
3520897,-0.03,-0.08,1.01,0.85,3.72,0.61,921.83,24.66,
3520935,-0.02,-0.08,1.01,0.73,3.91,0.61,921.85,24.66,
3520974,-0.02,-0.06,1.05,0.92,3.6,0.49,921.84,24.66,
3521012,-0.02,-0.07,1.02,1.16,3.66,0.55,921.79,24.64,
3521050,-0.02,-0.07,1.02,1.53,2.69,0.61,921.79,24.67,
3521088,-0.02,-0.08,1.03,1.53,3.3,0.49,921.83,24.66,
3521126,-0.02,-0.07,1.02,1.71,2.81,0.37,921.86,24.67,
3521165,-0.02,-0.07,1.03,1.71,2.38,0.43,921.81,24.66,
3521203,-0.03,-0.07,0.99,2.01,2.38,0.43,921.88,24.68,
3521253,-0.03,-0.07,0.97,1.95,2.87,0.43,921.83,24.66,
3521291,-0.02,-0.07,0.96,1.71,2.5,0.49,921.79,24.66,
3521329,-0.02,-0.07,0.96,1.65,2.5,0.43,921.79,24.66,
3521367,-0.02,-0.07,0.95,1.46,2.75,0.24,921.78,24.66,
3521406,-0.02,-0.07,0.96,1.4,2.75,0.37,921.83,24.68,
3521444,-0.02,-0.08,0.96,1.4,2.5,0.24,921.76,24.67,
3521482,-0.03,-0.08,0.95,1.53,2.5,0.31,921.82,24.68,
3521520,-0.02,-0.07,0.98,1.59,1.95,0.24,921.76,24.67,
3521559,-0.02,-0.07,0.95,1.46,2.26,0.24,921.84,24.69,
3521597,-0.03,-0.07,0.93,1.71,1.65,0.24,921.85,24.68,
3521647,-0.03,-0.07,0.94,1.71,1.83,0.31,921.81,24.66,
3521685,-0.02,-0.07,0.93,1.65,1.77,0.12,921.79,24.69,
3521723,-0.03,-0.07,0.91,1.89,2.01,0.31,921.78,24.67,
3521761,-0.03,-0.08,0.88,1.83,2.5,0.12,921.78,24.69,
3521799,-0.02,-0.08,0.85,1.77,2.14,0.18,921.83,24.69,
3521838,-0.03,-0.08,0.84,1.71,1.59,0.06,921.78,24.69,
3521876,-0.02,-0.07,0.84,1.65,2.2,0.06,921.83,24.7,
3521914,-0.02,-0.08,0.84,1.83,2.01,0.18,921.83,24.69,
3521952,-0.02,-0.08,0.86,1.71,1.53,0.06,921.79,24.68,
3522002,-0.03,-0.08,0.82,1.89,1.59,0.24,921.73,24.67,
3522040,-0.04,-0.08,0.78,1.83,1.28,0.06,921.77,24.69,
3522078,-0.02,-0.08,0.76,1.95,1.22,0.06,921.81,24.68,
3522117,-0.02,-0.08,0.74,1.83,1.04,-0.12,921.8,24.69,
3522155,-0.02,-0.08,0.73,1.95,1.59,0.0,921.8,24.69,
3522193,-0.02,-0.08,0.76,2.14,1.65,-0.12,921.83,24.68,
3522231,-0.03,-0.08,0.77,2.01,1.83,-0.06,921.74,24.69,
3522269,-0.04,-0.07,0.79,2.08,1.46,0.06,921.8,24.69,
3522308,-0.05,-0.07,0.81,2.01,2.44,0.06,921.84,24.69,
3522346,-0.04,-0.08,0.81,1.77,2.5,0.0,921.76,24.7,
3522396,-0.04,-0.07,0.85,1.95,2.44,0.24,921.78,24.67,
3522434,-0.03,-0.07,0.88,1.89,2.5,0.24,921.86,24.69,
3522472,-0.03,-0.08,0.89,1.89,2.69,0.43,921.85,24.69,
3522510,-0.04,-0.08,0.88,2.08,2.93,0.37,921.87,24.69,
3522549,-0.05,-0.08,0.9,2.44,3.05,0.49,921.87,24.69,
3522587,-0.04,-0.08,0.86,2.5,3.85,0.49,921.87,24.7,
3522625,-0.03,-0.07,0.89,2.87,3.78,0.43,921.83,24.69,
3522663,-0.03,-0.08,0.9,2.56,4.21,0.43,921.82,24.69,
3522701,-0.03,-0.08,0.88,2.5,3.91,0.55,921.88,24.69,
3522751,-0.04,-0.07,0.93,2.93,4.21,0.73,921.88,24.68,
3522789,-0.03,-0.07,0.95,2.44,4.21,0.43,921.87,24.68,
3522828,-0.04,-0.07,0.97,2.5,3.97,0.67,921.86,24.68,
3522866,-0.04,-0.06,0.98,2.38,4.33,0.61,921.92,24.71,
3522904,-0.04,-0.07,1.02,2.62,4.58,0.79,921.95,24.7,
3522942,-0.03,-0.07,1.03,2.38,4.33,0.73,921.95,24.7,
3522980,-0.02,-0.06,1.06,2.44,3.42,0.85,922.02,24.7,
3523019,-0.03,-0.07,1.05,2.38,3.66,0.98,921.94,24.69,
3523057,-0.02,-0.06,1.04,2.62,2.93,1.04,922.0,24.7,
3523095,-0.02,-0.07,1.02,2.5,1.95,1.16,921.98,24.7,
3523145,-0.03,-0.07,0.94,2.14,1.4,1.28,922.05,24.69,
3523183,-0.02,-0.07,0.96,2.56,1.4,1.22,921.95,24.69,
3523221,-0.02,-0.07,0.93,2.75,0.92,1.04,922.01,24.69,
3523260,-0.04,-0.07,0.89,2.87,0.61,1.22,922.01,24.69,
3523298,-0.05,-0.07,0.86,2.56,1.53,1.16,921.98,24.69,
3523336,-0.03,-0.08,0.87,2.62,1.59,0.98,921.98,24.69,
3523374,-0.05,-0.07,0.87,2.56,2.14,0.92,921.96,24.7,
3523413,-0.04,-0.07,0.85,2.38,2.62,1.16,921.94,24.7,
3523451,-0.04,-0.07,0.87,2.32,3.42,1.1,922.02,24.7,
3523489,-0.04,-0.07,0.87,2.32,3.85,0.98,922.02,24.7,
3523565,-0.05,-0.08,0.92,2.81,5.43,1.22,922.03,24.67,
3523603,-0.04,-0.07,0.93,2.93,5.55,1.1,922.09,24.68,
3523641,-0.04,-0.07,0.92,3.05,6.53,1.4,922.04,24.68,
3523732,-0.03,-0.07,0.91,3.42,6.29,1.65,922.09,24.66,
3523771,-0.04,-0.07,0.92,3.42,5.68,1.71,922.14,24.67,
3523809,-0.05,-0.07,0.91,3.54,5.74,1.77,922.12,24.67,
3523847,-0.03,-0.07,0.89,3.42,5.92,1.65,922.07,24.67,
3523885,-0.03,-0.07,0.9,3.48,5.19,1.89,922.11,24.66,
3523923,-0.03,-0.08,0.9,3.23,5.13,1.95,922.11,24.67,
3523973,-0.03,-0.08,0.92,3.23,4.39,2.14,922.16,24.67,
3524011,-0.03,-0.08,0.94,2.81,4.27,2.14,922.09,24.67,
3524050,-0.03,-0.07,0.98,2.81,4.15,1.95,922.08,24.69,
3524088,-0.03,-0.07,1.03,2.32,4.64,2.2,922.12,24.67,
3524126,-0.03,-0.07,1.12,2.26,4.33,2.01,922.09,24.68,
3524164,-0.03,-0.07,1.15,2.26,4.88,2.32,922.16,24.68,
3524202,-0.03,-0.05,1.18,2.44,4.88,2.08,922.2,24.7,
3524241,-0.04,-0.06,1.2,2.62,5.13,2.08,922.12,24.68,
3524279,-0.03,-0.07,1.18,2.69,5.62,2.2,922.16,24.69,
3524317,-0.04,-0.05,1.21,2.81,5.43,2.01,922.17,24.7,
3524367,-0.03,-0.05,1.21,2.93,5.98,2.32,922.22,24.68,
3524405,-0.03,-0.06,1.2,3.11,5.13,2.32,922.23,24.68,
3524443,-0.05,-0.07,1.16,3.11,4.7,2.32,922.19,24.68,
3524481,-0.04,-0.07,1.12,2.93,4.64,2.56,922.21,24.7,
3524519,-0.03,-0.06,1.11,2.99,4.27,2.5,922.21,24.7,
3524558,-0.03,-0.07,1.05,2.56,3.6,2.87,922.2,24.67,
3524596,-0.03,-0.07,1.03,2.69,2.81,2.69,922.26,24.67,
3524634,-0.04,-0.07,1.0,2.56,2.62,2.87,922.23,24.69,
3524672,-0.04,-0.07,0.97,2.5,2.01,2.99,922.3,24.69,
3524710,-0.03,-0.07,0.98,2.5,1.4,2.99,922.29,24.69,
3524760,-0.03,-0.07,0.97,2.14,0.92,3.05,922.24,24.68,
3524798,-0.03,-0.07,0.98,2.14,0.85,2.99,922.27,24.69,
3524837,-0.03,-0.08,0.98,1.83,1.16,2.99,922.28,24.69,
3524875,-0.03,-0.07,0.99,2.08,0.98,2.99,922.35,24.7,
3524913,-0.03,-0.08,0.98,1.83,1.65,2.93,922.33,24.69,
3524951,-0.03,-0.08,0.98,1.83,1.46,2.75,922.28,24.68,
3524989,-0.03,-0.08,0.98,1.65,1.83,2.81,922.28,24.68,
3525027,-0.03,-0.08,0.98,1.65,1.77,2.81,922.33,24.68,
3525066,-0.03,-0.08,0.98,1.65,1.4,2.75,922.31,24.67,
3525116,-0.03,-0.07,0.99,1.59,1.46,2.5,922.4,24.68,
3525154,-0.02,-0.07,0.97,1.71,1.65,2.62,922.36,24.68,
3525192,-0.02,-0.07,1.02,1.53,2.01,2.62,922.37,24.69,
3525230,-0.03,-0.07,0.99,1.34,1.77,2.56,922.37,24.69,
3525268,-0.03,-0.07,1.0,1.65,1.77,2.5,922.41,24.7,
3525306,-0.02,-0.07,0.98,1.77,2.5,2.44,922.39,24.69,
3525344,-0.02,-0.07,0.98,1.95,2.01,2.26,922.42,24.68,
3525383,-0.03,-0.07,0.95,1.77,2.62,2.2,922.43,24.7,
3525421,-0.02,-0.07,0.96,2.01,2.75,2.2,922.43,24.69,
3525459,-0.02,-0.07,0.96,2.2,3.54,2.01,922.42,24.69,
3525509,-0.03,-0.07,0.97,2.26,2.69,1.77,922.42,24.68,
3525547,-0.02,-0.07,0.95,2.08,3.48,1.83,922.39,24.68,
3525585,-0.01,-0.07,0.97,2.26,3.23,1.77,922.47,24.69,
3525623,-0.01,-0.07,0.98,2.2,3.23,1.83,922.44,24.69,
3525662,-0.03,-0.08,0.98,2.56,3.23,1.71,922.45,24.69,
3525700,-0.02,-0.07,1.02,2.62,3.85,1.59,922.55,24.69,
3525738,-0.01,-0.07,1.01,2.56,3.91,1.59,922.43,24.7,
3525776,-0.02,-0.07,1.0,2.75,3.48,1.71,922.53,24.69,
3525814,-0.03,-0.07,0.98,2.81,3.78,1.4,922.47,24.69,
3525853,-0.02,-0.07,0.97,2.81,3.85,1.46,922.56,24.69,
3525903,-0.01,-0.08,0.96,3.05,3.3,1.53,922.5,24.67,
3525941,-0.02,-0.07,0.95,3.17,2.87,1.34,922.57,24.68,
3525979,-0.02,-0.08,0.93,2.81,3.17,1.46,922.5,24.69,
3526017,-0.02,-0.08,0.96,3.05,2.44,1.16,922.56,24.69,
3526055,-0.03,-0.08,0.96,2.87,2.32,1.4,922.43,24.68,
3526094,-0.02,-0.07,0.98,2.75,2.2,1.16,922.5,24.69,
3526132,-0.02,-0.07,1.01,2.5,2.56,1.04,922.51,24.69,
3526170,-0.02,-0.08,1.01,2.26,2.87,1.04,922.58,24.69,
3526208,-0.02,-0.07,1.02,2.2,2.81,0.98,922.57,24.7,
3526258,-0.02,-0.08,1.01,2.08,2.75,1.04,922.56,24.68,
3526296,-0.01,-0.08,1.02,2.2,2.44,0.85,922.59,24.68,
3526335,-0.02,-0.08,1.01,2.01,2.5,0.79,922.6,24.69,
3526373,-0.02,-0.08,0.99,2.2,2.75,0.98,922.58,24.69,
3526411,-0.02,-0.08,1.01,2.14,3.23,0.79,922.61,24.69,
3526449,-0.02,-0.08,0.99,2.01,3.3,0.73,922.58,24.68,
3526487,-0.02,-0.08,0.99,2.32,2.87,0.73,922.58,24.69,
3526526,-0.02,-0.08,0.98,2.2,3.11,0.67,922.68,24.69,
3526564,-0.02,-0.08,0.99,2.14,3.05,0.61,922.67,24.7,
3526602,-0.02,-0.08,0.99,2.38,2.99,0.73,922.61,24.69,
3526678,-0.01,-0.08,0.98,2.32,3.23,0.55,922.65,24.67,
3526716,-0.02,-0.08,0.94,2.5,2.81,0.49,922.64,24.67,
3526754,-0.02,-0.08,0.92,2.62,2.87,0.49,922.65,24.69,
3526844,-0.02,-0.08,0.87,3.05,2.14,0.49,922.67,24.65,
3526882,-0.02,-0.08,0.84,2.87,1.89,0.37,922.67,24.66,
3526920,-0.02,-0.08,0.85,2.81,1.59,0.37,922.63,24.66,
3526958,-0.02,-0.08,0.83,2.32,1.34,0.31,922.68,24.67,
3526996,-0.04,-0.08,0.84,2.44,1.04,0.31,922.67,24.67,
3527035,-0.02,-0.09,0.81,2.01,1.53,0.24,922.67,24.67,
3527073,-0.01,-0.08,0.81,1.83,1.65,0.12,922.7,24.67,
3527123,-0.02,-0.08,0.8,1.34,2.08,0.18,922.69,24.67,
3527161,-0.02,-0.08,0.82,1.28,2.32,0.12,922.73,24.68,
3527199,-0.03,-0.08,0.84,1.1,2.2,0.06,922.73,24.68,
3527237,-0.03,-0.08,0.85,0.92,2.56,0.06,922.74,24.67,
3527275,-0.02,-0.08,0.86,0.67,2.81,0.12,922.69,24.67,
3527313,-0.02,-0.08,0.89,0.43,3.42,-0.12,922.75,24.67,
3527352,-0.01,-0.08,0.91,0.49,3.42,-0.06,922.73,24.68,
3527390,-0.03,-0.08,0.95,0.37,3.36,0.06,922.8,24.68,
3527428,-0.02,-0.08,0.95,0.37,3.54,-0.12,922.79,24.67,
3527478,-0.03,-0.07,0.99,0.49,3.11,-0.12,922.85,24.68,
3527516,-0.03,-0.08,0.95,0.31,3.42,0.0,922.8,24.67,
3527554,-0.04,-0.07,0.95,0.67,3.36,-0.12,922.78,24.67,
3527592,-0.03,-0.08,0.95,0.67,4.27,-0.12,922.84,24.69,
3527630,-0.02,-0.08,0.97,0.61,4.15,-0.06,922.81,24.67,
3527669,-0.03,-0.07,1.01,0.43,4.33,-0.24,922.85,24.69,
3527707,-0.04,-0.08,1.02,0.43,4.94,-0.12,922.81,24.67,
3527745,-0.04,-0.08,1.03,0.49,5.07,-0.24,922.87,24.68,
3527783,-0.04,-0.07,1.08,0.67,4.64,-0.12,922.85,24.69,
3527821,-0.04,-0.08,1.06,0.92,5.37,-0.06,922.82,24.67,
3527871,-0.04,-0.07,1.08,0.98,5.19,0.0,922.88,24.69,
3527909,-0.04,-0.07,1.07,0.92,5.49,0.0,922.93,24.68,
3527947,-0.04,-0.07,1.08,0.73,4.94,0.06,922.88,24.69,
3527986,-0.04,-0.07,1.09,0.73,5.19,0.0,922.88,24.68,
3528024,-0.04,-0.07,1.08,0.79,4.82,0.06,922.94,24.67,
3528062,-0.04,-0.07,1.09,0.55,4.64,0.18,922.99,24.69,
3528100,-0.04,-0.07,1.09,0.61,4.64,0.12,922.95,24.7,
3528138,-0.04,-0.07,1.1,0.43,4.58,0.31,922.95,24.69,
3528176,-0.04,-0.07,1.1,0.61,4.39,0.37,922.94,24.69,
3528226,-0.03,-0.07,1.13,0.73,4.33,0.37,923.03,24.68,
3528265,-0.03,-0.06,1.15,0.79,3.91,0.37,922.95,24.68,
3528303,-0.03,-0.06,1.17,0.98,3.85,0.49,922.96,24.68,
3528341,-0.04,-0.07,1.17,1.04,3.6,0.61,923.01,24.67,
3528379,-0.04,-0.06,1.2,1.28,3.11,0.61,922.98,24.67,
3528417,-0.03,-0.07,1.19,1.4,3.23,0.67,923.06,24.69,
3528455,-0.03,-0.06,1.19,1.65,2.5,0.61,923.01,24.68,
3528494,-0.04,-0.07,1.16,1.89,2.5,0.73,922.99,24.69,
3528532,-0.04,-0.07,1.15,2.14,2.38,0.55,923.06,24.7,
3528570,-0.04,-0.07,1.13,2.32,2.87,0.61,923.06,24.7,
3528620,-0.04,-0.07,1.07,2.38,2.32,0.79,923.06,24.68,
3528658,-0.05,-0.07,1.05,2.75,2.81,0.85,923.11,24.68,
3528696,-0.04,-0.07,1.02,2.87,3.05,0.98,923.09,24.68,
3528735,-0.03,-0.07,1.02,2.69,2.2,0.92,923.08,24.68,
3528773,-0.05,-0.07,0.98,2.56,2.32,0.98,923.08,24.68,
3528811,-0.04,-0.08,0.94,2.62,2.5,1.1,923.11,24.69,
3528849,-0.04,-0.08,0.89,2.44,2.56,1.16,923.1,24.69,
3528887,-0.04,-0.08,0.87,2.44,2.56,1.04,923.07,24.7,
3528926,-0.04,-0.07,0.85,2.14,2.87,1.28,923.11,24.69,
3528964,-0.02,-0.08,0.83,1.71,2.75,1.22,923.12,24.68,
3529014,-0.03,-0.08,0.87,1.83,1.46,1.22,923.08,24.68,
3529052,-0.03,-0.08,0.83,1.34,1.65,1.28,923.14,24.68,
3529090,-0.02,-0.08,0.86,1.4,1.89,1.28,923.09,24.69,
3529128,-0.03,-0.08,0.85,1.16,1.53,1.16,923.1,24.69,
3529166,-0.04,-0.08,0.87,1.28,1.04,1.1,923.18,24.68,
3529204,-0.03,-0.08,0.86,1.04,1.71,1.1,923.12,24.68,
3529243,-0.03,-0.08,0.89,1.04,1.71,1.1,923.18,24.69,
3529281,-0.03,-0.08,0.9,0.98,2.01,1.22,923.18,24.7,
3529319,-0.03,-0.07,0.93,1.16,1.77,1.16,923.19,24.69,
3529369,-0.03,-0.08,0.95,1.04,2.26,0.98,923.16,24.67,
3529407,-0.02,-0.08,0.98,1.1,1.53,1.04,923.18,24.68,
3529445,-0.02,-0.08,1.01,1.22,1.59,0.92,923.24,24.69,
3529483,-0.03,-0.08,1.01,1.1,2.14,0.85,923.23,24.69,
3529522,-0.03,-0.08,1.02,1.22,2.2,0.98,923.15,24.69,
3529560,-0.03,-0.08,1.03,1.16,2.44,0.92,923.3,24.69,
3529598,-0.03,-0.08,1.03,1.22,2.5,0.85,923.22,24.69,
3529636,-0.02,-0.08,1.03,1.34,2.5,0.85,923.23,24.69,
3529674,-0.03,-0.08,1.03,1.46,2.56,0.73,923.22,24.68,
3529713,-0.02,-0.07,1.04,1.53,2.56,0.67,923.26,24.68,
3529789,-0.03,-0.08,1.05,1.65,2.62,0.85,923.31,24.66,
3529827,-0.03,-0.08,1.05,1.89,2.38,0.85,923.3,24.68,
3529865,-0.02,-0.07,1.04,1.83,2.69,0.67,923.32,24.67,
3529955,-0.03,-0.08,1.02,1.83,2.99,0.67,923.3,24.64,
3529993,-0.02,-0.08,1.01,1.83,3.05,0.55,923.35,24.66,
3530031,-0.03,-0.08,1.0,1.77,2.93,0.61,923.31,24.66,
3530069,-0.04,-0.08,1.0,1.71,3.05,0.61,923.34,24.66,
3530107,-0.03,-0.08,1.0,1.89,3.23,0.49,923.39,24.67,
3530145,-0.02,-0.08,1.01,1.83,2.93,0.55,923.35,24.67,
3530184,-0.03,-0.08,1.01,1.53,3.23,0.55,923.37,24.67,
3530234,-0.03,-0.08,1.01,1.59,3.42,0.49,923.32,24.67,
3530272,-0.03,-0.08,1.01,1.71,3.6,0.37,923.36,24.67,
3530310,-0.03,-0.08,1.0,1.77,3.48,0.43,923.39,24.68,
3530348,-0.03,-0.08,1.01,1.77,3.42,0.43,923.32,24.67,
3530386,-0.03,-0.08,1.03,1.77,3.66,0.43,923.38,24.67,
3530424,-0.03,-0.08,1.04,1.83,3.36,0.37,923.39,24.67,
3530463,-0.04,-0.08,1.05,1.71,3.54,0.43,923.44,24.68,
3530501,-0.03,-0.08,1.05,1.59,3.78,0.37,923.4,24.67,
3530539,-0.03,-0.07,1.06,1.4,3.91,0.49,923.41,24.68,
3530589,-0.03,-0.08,1.09,1.46,3.54,0.43,923.42,24.67,
3530627,-0.04,-0.08,1.1,1.4,3.66,0.49,923.42,24.68,
3530665,-0.02,-0.08,1.09,1.46,3.6,0.55,923.42,24.66,
3530704,-0.01,-0.08,1.1,1.77,3.05,0.61,923.43,24.68,
3530742,-0.03,-0.09,1.05,1.65,2.99,0.61,923.45,24.67,
3530780,-0.04,-0.07,1.04,1.77,2.5,0.55,923.44,24.68,
3530818,-0.02,-0.07,1.04,1.89,2.87,0.43,923.4,24.67,
3530857,-0.02,-0.08,1.0,1.65,2.75,0.55,923.49,24.68,
3530895,-0.03,-0.07,1.02,1.77,2.75,0.43,923.44,24.67,
3530933,-0.03,-0.08,1.0,1.46,3.48,0.43,923.46,24.67,
3530983,-0.03,-0.08,1.03,1.59,3.91,0.43,923.45,24.67,
3531021,-0.03,-0.08,1.0,1.46,4.27,0.55,923.45,24.67,
3531059,-0.04,-0.08,1.02,1.59,4.27,0.37,923.44,24.67,
3531097,-0.04,-0.09,1.0,1.53,5.0,0.37,923.47,24.68,
3531136,-0.03,-0.08,0.97,1.65,4.76,0.49,923.53,24.68,
3531174,-0.04,-0.08,0.99,1.4,5.19,0.31,923.52,24.68,
3531212,-0.03,-0.09,0.97,1.1,5.37,0.49,923.5,24.68,
3531250,-0.04,-0.08,1.02,1.34,4.76,0.49,923.45,24.67,
3531289,-0.04,-0.08,1.01,1.22,5.0,0.49,923.46,24.68,
3531327,-0.04,-0.08,1.03,0.85,4.82,0.43,923.45,24.68,
3531377,-0.03,-0.07,1.09,0.85,5.13,0.49,923.54,24.66,
3531415,-0.03,-0.08,1.11,1.04,4.39,0.55,923.54,24.69,
3531453,-0.04,-0.08,1.1,1.16,4.64,0.55,923.59,24.67,
3531491,-0.04,-0.08,1.09,1.28,5.13,0.61,923.59,24.67,
3531529,-0.04,-0.09,1.04,1.22,5.55,0.67,923.55,24.68,
3531568,-0.03,-0.08,1.07,1.83,4.88,0.61,923.59,24.68,
3531606,-0.04,-0.08,1.04,1.83,5.19,0.61,923.55,24.67,
3531644,-0.02,-0.09,1.04,1.89,5.0,0.61,923.52,24.68,
3531682,-0.03,-0.08,1.06,1.89,4.88,0.73,923.58,24.68,
3531732,-0.03,-0.08,0.99,1.77,5.07,0.73,923.58,24.67,
3531771,-0.03,-0.08,1.04,2.14,4.46,0.55,923.57,24.67,
3531809,-0.03,-0.09,1.01,1.83,4.76,0.55,923.58,24.67,
3531847,-0.03,-0.08,1.04,2.08,3.72,0.67,923.55,24.66,
3531885,-0.03,-0.09,1.02,1.83,4.39,0.67,923.62,24.68,
3531923,-0.02,-0.08,1.04,1.89,3.6,0.49,923.63,24.69,
3531962,-0.03,-0.08,1.04,1.71,3.6,0.67,923.6,24.68,
3532000,-0.03,-0.08,1.02,1.71,3.54,0.55,923.54,24.68,
3532038,-0.04,-0.08,1.02,1.71,3.78,0.61,923.6,24.68,
3532076,-0.03,-0.09,0.99,1.65,3.66,0.49,923.62,24.69,
3532126,-0.04,-0.08,1.01,1.65,3.3,0.37,923.61,24.67,
3532164,-0.03,-0.07,1.03,1.59,2.93,0.43,923.56,24.68,
3532203,-0.03,-0.09,1.02,1.34,2.93,0.49,923.61,24.68,
3532241,-0.02,-0.08,1.05,1.34,2.56,0.24,923.62,24.68,
3532279,-0.03,-0.08,1.09,1.28,2.87,0.31,923.64,24.68,
3532317,-0.04,-0.08,1.06,1.22,3.11,0.31,923.57,24.67,
3532355,-0.04,-0.07,1.07,1.28,3.23,0.12,923.64,24.67,
3532394,-0.05,-0.08,1.05,1.34,3.72,0.43,923.63,24.66,
3532432,-0.03,-0.08,1.01,1.4,4.09,0.31,923.66,24.68,
3532470,-0.02,-0.07,1.04,1.53,4.09,0.06,923.68,24.67,
3532520,-0.03,-0.08,1.02,1.53,3.85,0.31,923.64,24.67,
3532558,-0.0,-0.08,1.05,1.71,3.36,0.24,923.64,24.67,
3532596,-0.01,-0.07,1.05,1.71,2.32,0.18,923.72,24.68,
3532634,-0.05,-0.08,1.04,1.77,2.08,0.18,923.66,24.68,
3532672,-0.01,-0.08,1.04,1.83,1.28,0.24,923.68,24.69,
3532711,-0.02,-0.08,1.03,1.83,0.49,0.12,923.68,24.67,
3532749,-0.03,-0.08,1.0,1.83,-0.06,0.12,923.65,24.67,
3532787,-0.03,-0.08,0.98,1.59,0.37,0.06,923.64,24.68,
3532825,-0.02,-0.07,0.97,1.53,-0.06,-0.12,923.65,24.69,
3532901,-0.04,-0.08,0.95,1.77,0.37,-0.18,923.68,24.66,
3532939,-0.02,-0.08,0.94,1.65,0.55,-0.24,923.67,24.67,
3532978,-0.01,-0.07,0.97,1.4,0.24,-0.37,923.7,24.67,
3533067,-0.03,-0.07,0.99,1.83,0.49,-0.49,923.67,24.64,
3533106,-0.02,-0.08,0.93,1.4,0.92,-0.49,923.69,24.64,
3533144,-0.05,-0.08,0.94,1.53,0.92,-0.73,923.73,24.65,
3533182,-0.04,-0.09,0.92,1.83,2.26,-0.79,923.67,24.65,
3533220,-0.03,-0.08,0.88,1.89,2.75,-0.73,923.73,24.65,
3533258,-0.02,-0.07,0.91,2.26,2.62,-0.73,923.7,24.66,
3533297,-0.03,-0.08,0.84,2.32,3.36,-0.85,923.67,24.66,
3533347,-0.05,-0.08,0.9,2.5,2.32,-0.92,923.66,24.65,
3533385,-0.02,-0.08,0.85,2.01,2.81,-0.85,923.63,24.66,
3533423,-0.04,-0.07,0.9,2.26,2.08,-0.98,923.68,24.66,
3533461,-0.05,-0.08,0.88,2.14,2.93,-0.85,923.67,24.66,
3533499,-0.03,-0.09,0.9,2.01,2.69,-0.79,923.64,24.66,
3533538,-0.03,-0.09,0.93,1.77,2.93,-0.85,923.66,24.65,
3533576,-0.04,-0.08,0.95,1.53,1.83,-0.61,923.69,24.66,
3533614,-0.06,-0.08,0.93,1.53,2.14,-0.67,923.71,24.66,
3533652,-0.03,-0.08,0.97,0.98,2.2,-0.67,923.65,24.66,
3533702,-0.03,-0.08,1.02,0.73,1.34,-0.43,923.71,24.66,
3533741,-0.03,-0.08,1.06,0.61,1.16,-0.37,923.68,24.66,
3533779,-0.05,-0.08,1.09,0.79,1.89,-0.49,923.78,24.67,
3533817,-0.04,-0.07,1.14,0.92,1.65,-0.31,923.67,24.65,
3533855,-0.04,-0.07,1.17,0.98,1.46,-0.24,923.69,24.67,
3533893,-0.05,-0.08,1.15,0.67,1.89,-0.06,923.72,24.66,
3533932,-0.04,-0.07,1.15,0.79,1.71,-0.06,923.72,24.66,
3533970,-0.04,-0.07,1.16,0.79,1.83,0.06,923.72,24.67,
3534008,-0.03,-0.07,1.18,1.16,1.95,0.0,923.76,24.67,
3534046,-0.04,-0.08,1.17,1.16,2.38,-0.06,923.71,24.67,
3534096,-0.05,-0.07,1.2,1.34,2.56,0.06,923.78,24.66,
3534134,-0.03,-0.08,1.15,1.4,2.87,0.0,923.8,24.67,
3534173,-0.04,-0.07,1.18,1.89,1.89,0.0,923.75,24.67,
3534211,-0.03,-0.07,1.16,1.77,2.75,0.0,923.74,24.66,
3534249,-0.05,-0.07,1.2,1.65,2.08,0.31,923.74,24.66,
3534287,-0.03,-0.07,1.23,1.53,2.14,0.31,923.76,24.67,
3534325,-0.03,-0.07,1.25,1.65,1.04,0.31,923.83,24.66,
3534364,-0.01,-0.07,1.21,1.59,1.83,0.18,923.81,24.67,
3534402,-0.03,-0.08,1.17,2.2,2.69,0.0,923.86,24.68,
3534452,-0.04,-0.08,1.05,2.08,4.15,-0.06,923.81,24.66,
3534490,-0.02,-0.07,1.05,2.5,5.0,-0.31,923.78,24.67,
3534528,-0.05,-0.08,0.96,2.32,6.71,-0.37,923.8,24.67,
3534566,-0.02,-0.07,1.0,2.32,6.59,-0.31,923.77,24.67,
3534605,-0.01,-0.08,1.02,1.95,6.47,-0.31,923.79,24.67,
3534643,-0.03,-0.07,1.14,2.44,4.03,-0.37,923.76,24.68,
3534681,-0.05,-0.1,1.09,1.83,5.07,-0.18,923.81,24.67,
3534719,-0.03,-0.09,1.09,2.01,4.88,-0.61,923.83,24.66,
3534757,-0.02,-0.1,1.06,1.95,6.04,-0.49,923.76,24.67,
3534796,-0.06,-0.07,0.96,2.5,6.41,-0.43,923.8,24.67,
3534846,-0.04,-0.07,0.88,2.56,7.81,-0.49,923.71,24.66,
3534884,-0.02,-0.09,0.87,2.26,7.93,-0.67,923.75,24.67,
3534922,-0.04,-0.09,0.9,1.4,6.9,-0.49,923.74,24.68,
3534960,-0.06,-0.08,0.95,1.34,7.69,-0.49,923.71,24.68,
3534998,-0.05,-0.07,1.08,1.89,6.84,-0.37,923.75,24.67,
3535037,-0.03,-0.07,1.13,2.08,5.25,-0.24,923.75,24.67,
3535075,-0.05,-0.09,1.09,2.69,4.58,-0.31,923.79,24.69,
3535113,-0.05,-0.07,1.04,2.75,2.87,-0.12,923.74,24.67,
3535151,-0.04,-0.08,1.0,2.81,2.93,-0.06,923.76,24.68,
3535201,-0.01,-0.07,0.99,2.93,1.4,-0.18,923.69,24.67,
3535239,-0.03,-0.09,0.86,2.38,1.28,0.0,923.7,24.67,
3535278,-0.05,-0.08,0.84,2.44,-0.43,0.12,923.68,24.67,
3535316,-0.05,-0.09,0.81,1.89,0.06,0.0,923.73,24.68,
3535354,-0.03,-0.07,0.85,1.4,0.12,-0.06,923.74,24.67,
3535392,-0.04,-0.09,0.91,2.08,0.61,0.12,923.66,24.67,
3535430,-0.05,-0.09,0.88,1.22,0.37,0.0,923.74,24.67,
3535469,-0.05,-0.06,1.03,2.44,0.24,0.06,923.72,24.69,
3535507,-0.07,-0.1,0.93,1.4,1.46,0.12,923.79,24.69,
3535545,-0.04,-0.07,0.98,1.53,0.0,-0.12,923.7,24.67,
3535595,-0.05,-0.07,1.0,0.61,1.89,0.18,923.77,24.67,
3535633,-0.02,-0.07,1.12,0.49,-0.18,0.31,923.7,24.68,
3535671,-0.01,-0.09,1.03,0.24,-0.79,0.12,923.74,24.68,
3535710,-0.09,-0.07,0.94,0.37,-1.46,0.24,923.67,24.68,
3535748,-0.05,-0.08,0.95,1.28,-1.04,0.31,923.69,24.67,
3535786,-0.03,-0.09,0.93,1.22,-0.61,0.12,923.69,24.67,
3535824,-0.05,-0.08,0.91,1.34,-1.4,0.18,923.73,24.66,
3535863,-0.12,-0.07,0.89,1.95,0.24,0.37,923.69,24.67,
3535901,-0.07,-0.09,0.86,1.34,1.65,0.31,923.71,24.67,
3535939,-0.04,-0.08,0.98,1.71,1.04,0.24,923.68,24.67,
3536015,-0.1,-0.08,0.96,1.71,3.72,0.67,923.7,24.65,
3536053,-0.04,-0.07,0.93,0.98,5.98,0.49,923.78,24.66,
3536091,-0.07,-0.06,0.96,1.77,5.49,0.79,923.74,24.66,
3536181,-0.06,-0.07,1.02,1.89,7.26,1.04,923.7,24.64,
3536219,-0.04,-0.08,1.03,1.65,6.9,1.34,923.73,24.64,
3536258,-0.04,-0.06,1.11,2.32,5.49,1.53,923.72,24.64,
3536296,-0.06,-0.08,1.06,2.01,6.35,1.71,923.76,24.65,
3536334,-0.04,-0.06,1.11,2.44,4.7,1.89,923.75,24.65,
3536372,-0.04,-0.08,1.08,2.81,3.85,2.08,923.78,24.66,
3536422,-0.06,-0.07,1.03,2.93,2.5,2.14,923.73,24.64,
3536460,-0.03,-0.08,1.07,3.17,3.3,2.14,923.75,24.64,
3536499,-0.04,-0.07,1.0,2.99,2.26,2.08,923.81,24.64,
3536537,-0.05,-0.08,1.0,3.72,1.77,2.32,923.74,24.65,
3536575,-0.04,-0.09,0.93,3.23,2.32,2.26,923.73,24.65,
3536613,-0.05,-0.08,0.91,3.91,2.08,2.08,923.8,24.65,
3536652,-0.04,-0.08,0.84,3.48,2.75,2.26,923.72,24.66,
3536690,-0.05,-0.07,0.89,3.6,2.38,2.26,923.73,24.66,
3536728,-0.04,-0.09,0.84,3.23,3.11,2.2,923.75,24.65,
3536766,-0.04,-0.08,0.84,2.93,2.32,2.26,923.67,24.66,
3536816,-0.05,-0.08,0.91,3.05,1.65,2.75,923.75,24.65,
3536854,-0.03,-0.08,0.88,2.69,1.04,2.5,923.76,24.65,
3536893,-0.05,-0.08,0.92,2.87,-0.37,2.56,923.73,24.66,
3536931,-0.04,-0.08,0.86,2.44,0.0,2.69,923.74,24.66,
3536969,-0.03,-0.08,0.9,2.5,-0.49,2.75,923.79,24.65,
3537007,-0.03,-0.08,0.89,2.32,-0.43,2.62,923.77,24.66,
3537046,-0.04,-0.08,0.9,2.32,-0.12,2.75,923.75,24.66,
3537084,-0.03,-0.09,0.92,2.5,0.0,2.75,923.78,24.66,
3537122,-0.03,-0.08,0.94,2.44,0.06,2.44,923.75,24.66,
3537172,-0.03,-0.08,0.91,2.62,0.61,2.69,923.78,24.66,
3537210,-0.03,-0.08,0.92,2.69,0.61,2.44,923.84,24.67,
3537248,-0.01,-0.08,0.91,2.62,0.49,2.5,923.82,24.67,
3537287,-0.03,-0.08,0.9,2.62,0.06,2.44,923.84,24.66,
3537325,-0.03,-0.09,0.87,2.69,0.31,2.44,923.77,24.66,
3537363,-0.03,-0.08,0.89,2.81,0.06,2.26,923.79,24.67,
3537401,-0.04,-0.08,0.86,2.56,0.06,2.32,923.76,24.66,
3537439,-0.03,-0.09,0.84,2.5,-0.43,2.38,923.85,24.68,
3537478,-0.03,-0.08,0.86,2.56,-0.43,2.2,923.8,24.67,
3537516,-0.01,-0.08,0.85,2.56,0.12,2.26,923.86,24.66,
3537566,-0.03,-0.08,0.88,2.44,-0.31,2.38,923.79,24.66,
3537604,-0.04,-0.08,0.88,2.44,0.12,2.32,923.81,24.67,
3537642,-0.03,-0.08,0.89,2.14,0.43,2.26,923.85,24.66,
3537680,-0.03,-0.08,0.91,2.14,0.43,2.26,923.82,24.67,
3537719,-0.02,-0.08,0.9,2.26,1.22,2.14,923.8,24.66,
3537757,-0.02,-0.08,0.91,2.56,1.53,1.95,923.85,24.67,
3537795,-0.03,-0.08,0.88,2.32,1.46,2.26,923.83,24.67,
3537833,-0.03,-0.08,0.9,2.69,1.16,2.08,923.86,24.66,
3537871,-0.03,-0.09,0.86,2.14,2.08,2.08,923.85,24.67,
3537909,-0.03,-0.08,0.9,2.14,1.65,2.08,923.86,24.67,
3537959,-0.02,-0.09,0.9,1.89,2.38,1.95,923.82,24.66,
3537998,-0.03,-0.08,0.92,1.89,2.32,2.01,923.88,24.66,
3538036,-0.02,-0.08,0.94,1.4,3.17,2.01,923.91,24.66,
3538074,-0.02,-0.08,0.95,1.4,3.17,2.2,923.9,24.65,
3538112,-0.01,-0.08,0.99,1.34,3.17,1.95,923.87,24.66,
3538150,-0.03,-0.08,0.97,1.22,3.42,1.95,923.88,24.66,
3538189,-0.02,-0.08,1.01,1.59,3.11,1.83,923.92,24.66,
3538227,-0.02,-0.08,0.99,1.34,3.6,1.71,923.93,24.67,
3538265,-0.0,-0.09,0.98,1.22,3.66,1.83,923.91,24.66,
3538315,-0.02,-0.08,1.0,1.65,3.78,1.89,923.95,24.65,
3538353,-0.0,-0.08,1.0,1.89,3.91,1.46,923.96,24.67,
3538391,-0.01,-0.08,0.99,1.71,3.91,1.4,923.97,24.67,
3538430,-0.01,-0.08,1.0,1.83,3.66,1.34,923.94,24.67,
3538468,-0.01,-0.09,1.0,2.01,3.6,1.46,923.95,24.67,
3538506,-0.01,-0.08,1.02,2.01,3.54,1.16,923.97,24.67,
3538544,-0.0,-0.09,1.01,1.83,3.6,1.1,924.01,24.66,
3538583,-0.02,-0.08,1.0,1.89,2.99,1.1,923.95,24.66,
3538621,-0.02,-0.08,1.01,1.89,2.99,0.98,924.02,24.67,
3538659,-0.01,-0.09,0.99,1.89,2.5,0.98,923.96,24.67,
3538709,-0.03,-0.09,0.99,1.77,2.32,0.98,924.02,24.66,
3538747,-0.02,-0.09,0.97,1.71,2.56,0.67,923.96,24.65,
3538785,-0.03,-0.09,0.93,1.65,2.75,0.61,924.04,24.66,
3538824,-0.03,-0.08,0.92,1.59,2.38,0.67,924.02,24.66,
3538862,-0.02,-0.08,0.92,1.53,2.32,0.73,924.03,24.67,
3538900,-0.03,-0.08,0.91,1.53,2.26,0.61,924.03,24.67,
3538938,-0.02,-0.08,0.95,1.53,2.38,0.73,923.99,24.67,
3538977,-0.02,-0.09,0.95,1.16,2.99,0.79,924.03,24.67,
3539015,-0.02,-0.08,0.96,1.16,2.75,0.61,924.03,24.66,
3539053,-0.04,-0.08,0.97,1.22,3.23,0.67,924.01,24.66,
3539129,-0.03,-0.08,0.94,1.16,2.87,0.67,924.09,24.65,
3539167,-0.04,-0.08,0.91,1.1,2.75,0.73,924.02,24.64,
3539205,-0.03,-0.08,0.9,1.1,2.75,0.67,923.99,24.65,
3539420,-0.02,-0.09,0.94,1.16,2.69,0.85,924.09,24.57,
3539458,-0.03,-0.08,0.95,1.04,2.62,0.85,924.14,24.6,
3539496,-0.0,-0.08,0.99,1.16,2.75,0.79,924.08,24.59,
3539534,-0.02,-0.08,1.0,1.04,2.26,0.85,924.11,24.61,
3539572,-0.03,-0.08,1.0,0.92,1.34,1.04,924.09,24.62,
3539611,-0.02,-0.08,1.04,1.53,0.98,0.92,924.08,24.62,
3539661,-0.02,-0.08,1.06,1.46,0.31,0.85,924.15,24.6,
3539699,-0.03,-0.08,1.05,1.59,-0.06,1.1,924.13,24.63,
3539737,-0.03,-0.08,1.05,1.59,0.06,0.85,924.21,24.62,
3539775,-0.04,-0.09,1.02,1.53,0.06,1.16,924.19,24.63,
3539813,-0.02,-0.08,1.02,1.65,-0.73,1.04,924.17,24.63,
3539852,-0.03,-0.08,1.0,1.59,-0.55,1.1,924.2,24.64,
3539890,-0.02,-0.07,0.99,1.46,0.12,0.98,924.19,24.64,
3539928,-0.03,-0.07,1.04,1.59,-0.49,1.1,924.18,24.64,
3539966,-0.03,-0.09,1.04,1.28,0.18,0.98,924.23,24.65,
3540004,-0.03,-0.08,1.04,1.16,0.06,0.92,924.25,24.64,
3540054,-0.02,-0.07,1.06,1.16,0.12,1.22,924.22,24.63,
3540093,-0.02,-0.07,1.02,0.92,-0.31,1.04,924.25,24.64,
3540131,-0.04,-0.08,1.03,1.16,-0.12,1.16,924.28,24.64,
3540169,-0.03,-0.08,1.02,1.04,0.49,0.98,924.21,24.64,
3540207,-0.02,-0.09,1.0,1.16,0.61,1.1,924.22,24.65,
3540245,-0.02,-0.08,1.02,1.22,0.73,0.98,924.26,24.65,
3540284,-0.04,-0.08,1.01,1.16,1.16,0.98,924.21,24.66,
3540322,-0.03,-0.08,1.03,1.1,1.28,0.92,924.26,24.65,
3540360,-0.02,-0.08,1.03,1.16,1.1,0.98,924.32,24.65,
3540398,-0.03,-0.08,1.03,1.34,1.16,0.98,924.26,24.66,
3540448,-0.02,-0.08,1.04,1.16,1.83,1.04,924.3,24.64,
3540486,-0.03,-0.08,1.02,1.16,1.77,0.92,924.25,24.64,
3540525,-0.04,-0.08,1.02,0.98,2.08,1.1,924.34,24.65,
3540563,-0.03,-0.08,1.0,1.22,2.81,0.98,924.28,24.65,
3540601,-0.03,-0.08,1.01,1.22,2.62,1.04,924.27,24.65,
3540639,-0.04,-0.08,1.0,1.28,2.81,1.04,924.27,24.64,
3540677,-0.03,-0.08,1.02,1.34,2.93,1.04,924.3,24.66,
3540716,-0.03,-0.08,1.01,1.22,3.3,1.04,924.36,24.64,
3540754,-0.04,-0.08,1.01,1.34,2.93,1.04,924.32,24.65,
3540804,-0.04,-0.08,0.99,1.46,3.6,0.98,924.3,24.65,
3540842,-0.04,-0.07,1.0,1.77,3.6,0.98,924.3,24.65,
3540880,-0.03,-0.07,1.0,1.83,4.03,1.1,924.35,24.66,
3540918,-0.03,-0.08,0.99,1.83,4.15,1.1,924.31,24.65,
3540957,-0.04,-0.08,0.99,2.08,4.33,1.04,924.34,24.66,
3540995,-0.04,-0.08,0.98,2.08,4.21,1.34,924.31,24.66,
3541033,-0.05,-0.08,0.97,2.14,4.09,1.28,924.33,24.66,
3541071,-0.04,-0.08,0.95,2.01,4.33,1.34,924.4,24.66,
3541109,-0.03,-0.08,0.97,2.2,3.97,1.34,924.37,24.66,
3541148,-0.04,-0.08,0.94,1.83,4.21,1.65,924.37,24.66,
3541198,-0.05,-0.08,0.97,2.2,3.48,1.65,924.34,24.64,
3541236,-0.04,-0.08,0.96,1.77,3.42,1.71,924.36,24.65,
3541274,-0.04,-0.07,1.01,1.89,2.81,1.83,924.36,24.66,
3541312,-0.04,-0.08,1.01,1.77,3.54,1.77,924.42,24.66,
3541350,-0.04,-0.07,1.02,1.89,2.69,1.95,924.38,24.67,
3541389,-0.03,-0.08,1.06,1.89,3.11,2.01,924.43,24.66,
3541427,-0.04,-0.08,1.09,2.08,2.32,2.14,924.44,24.66,
3541465,-0.05,-0.07,1.09,2.26,2.32,2.2,924.44,24.65,
3541503,-0.03,-0.07,1.07,1.95,2.44,2.38,924.42,24.66,
3541541,-0.03,-0.08,1.09,2.26,2.14,2.32,924.42,24.66,
3541591,-0.03,-0.08,1.06,2.2,2.62,2.44,924.45,24.64,
3541630,-0.03,-0.07,1.07,2.32,1.71,2.44,924.42,24.64,
3541668,-0.04,-0.08,1.07,2.26,2.44,2.5,924.45,24.66,
3541706,-0.04,-0.08,1.05,2.14,1.95,2.56,924.43,24.66,
3541744,-0.04,-0.08,1.08,2.08,1.95,2.5,924.45,24.66,
3541783,-0.04,-0.09,1.05,1.89,2.62,2.44,924.44,24.67,
3541821,-0.02,-0.08,1.05,2.01,2.32,2.26,924.45,24.66,
3541859,-0.03,-0.08,1.08,1.65,2.62,2.5,924.44,24.66,
3541897,-0.03,-0.09,1.05,1.71,2.69,2.44,924.46,24.67,
3541947,-0.05,-0.08,1.04,1.83,2.56,2.69,924.47,24.64,
3541985,-0.03,-0.08,1.02,1.65,2.93,2.69,924.44,24.66,
3542023,-0.0,-0.08,1.04,1.71,2.56,2.62,924.51,24.67,
3542062,-0.03,-0.08,1.02,1.65,3.05,2.75,924.43,24.66,
3542100,-0.04,-0.08,1.01,1.71,2.56,2.62,924.44,24.64,
3542138,-0.04,-0.08,1.01,1.53,2.38,2.87,924.5,24.66,
3542176,-0.03,-0.09,1.0,1.53,2.08,2.81,924.46,24.66,
3542214,-0.03,-0.09,0.98,1.59,2.08,2.81,924.46,24.64,
3542253,-0.04,-0.08,1.0,1.59,1.65,2.75,924.51,24.66,
3542291,-0.03,-0.08,0.98,1.53,1.89,2.93,924.55,24.67,
3542450,-0.03,-0.08,1.01,1.71,2.44,3.05,924.51,24.59,
3542488,-0.03,-0.08,1.01,1.46,2.38,3.05,924.57,24.61,
3542526,-0.03,-0.08,1.01,1.59,2.62,3.17,924.53,24.62,
3542787,-0.03,-0.08,1.06,1.65,3.66,3.05,924.55,24.54,
3542825,-0.02,-0.09,1.06,1.46,3.66,3.23,924.54,24.57,
3542863,-0.04,-0.09,1.06,1.59,3.36,3.11,924.58,24.58,
3542901,-0.03,-0.09,1.04,1.46,3.85,3.23,924.62,24.59,
3542940,-0.03,-0.08,1.05,1.77,3.54,3.11,924.62,24.6,
3542978,-0.02,-0.09,1.02,1.59,3.3,3.17,924.57,24.59,
3543016,-0.04,-0.09,0.97,1.46,3.3,3.17,924.59,24.6,
3543066,-0.02,-0.09,0.99,1.46,4.03,3.3,924.62,24.6,
3543104,-0.02,-0.09,0.97,1.4,4.21,3.05,924.56,24.6,
3543142,-0.04,-0.08,0.99,1.4,3.91,3.11,924.57,24.62,
3543181,-0.03,-0.09,0.98,1.22,3.97,3.23,924.62,24.62,
3543219,-0.03,-0.09,1.01,1.1,3.66,3.17,924.59,24.62,
3543257,-0.01,-0.08,1.02,0.98,3.54,3.05,924.59,24.61,
3543295,-0.02,-0.08,1.0,0.92,3.48,3.11,924.59,24.62,
3543333,-0.03,-0.09,1.03,1.1,3.3,3.23,924.65,24.63,
3543372,-0.02,-0.09,1.03,1.16,3.3,3.23,924.57,24.62,
3543422,-0.02,-0.08,1.07,1.28,2.14,3.23,924.61,24.63,
3543460,-0.02,-0.08,1.08,1.22,2.5,3.11,924.62,24.63,
3543498,-0.01,-0.08,1.1,1.22,2.75,3.05,924.68,24.63,
