timestamp,acc_x,acc_y,acc_z,rot_x,rot_y,rot_z,qfe,temp,Unnamed: 10
4283527,-0.03,-0.01,0.89,4.52,3.05,1.16,895.0,23.05,
4283565,-0.02,-0.02,0.88,4.94,3.05,1.1,894.98,23.05,
4283604,-0.03,-0.02,0.86,4.82,3.17,1.04,895.0,23.04,
4283642,-0.03,-0.02,0.85,5.55,3.05,1.1,894.98,23.05,
4283718,-0.03,-0.02,0.84,5.68,3.05,1.16,894.98,23.03,
4283756,-0.03,-0.03,0.81,5.37,3.3,1.16,894.97,23.05,
4283794,-0.03,-0.02,0.82,5.55,2.87,0.92,894.99,23.05,
4283884,-0.02,-0.02,0.8,4.88,3.36,1.1,894.89,23.0,
4283922,-0.03,-0.03,0.79,4.76,3.6,1.1,894.9,23.02,
4283960,-0.03,-0.02,0.79,4.15,3.91,0.92,894.87,23.02,
4283999,-0.02,-0.03,0.78,3.85,3.85,1.04,894.92,23.02,
4284037,-0.02,-0.02,0.79,3.6,3.78,0.92,894.84,23.03,
4284075,-0.03,-0.02,0.79,3.48,3.91,0.98,894.88,23.02,
4284113,-0.03,-0.02,0.79,3.17,3.72,1.04,894.87,23.03,
4284163,-0.02,-0.02,0.82,2.75,3.23,1.04,894.9,23.01,
4284201,-0.02,-0.02,0.83,2.81,3.36,1.16,894.9,23.03,
4284240,-0.03,-0.02,0.84,2.69,2.75,0.98,894.86,23.04,
4284278,-0.02,-0.01,0.87,2.87,2.69,1.22,894.89,23.03,
4284316,-0.02,-0.02,0.88,3.11,2.26,1.16,894.9,23.05,
4284354,-0.01,-0.01,0.87,3.42,2.5,1.04,894.9,23.04,
4284392,-0.02,-0.01,0.87,3.85,2.56,1.16,894.93,23.04,
4284431,-0.02,-0.02,0.85,4.46,2.87,1.1,894.95,23.05,
4284469,-0.02,-0.02,0.84,4.76,2.69,1.04,894.89,23.05,
4284507,-0.02,-0.01,0.84,5.13,2.93,0.92,894.93,23.05,
4284557,-0.01,-0.01,0.83,5.49,2.56,0.98,894.92,23.05,
4284595,-0.02,-0.02,0.81,5.62,2.62,0.79,894.93,23.06,
4284634,-0.02,-0.02,0.8,5.74,2.75,0.92,894.9,23.03,
4284672,-0.02,-0.02,0.81,5.86,2.62,0.79,894.91,23.05,
4284710,-0.01,-0.02,0.79,5.8,2.32,0.73,894.96,23.06,
4284748,-0.01,-0.02,0.79,5.98,1.59,0.73,894.9,23.05,
4284787,-0.01,-0.02,0.78,5.8,1.59,0.67,894.89,23.03,
4284825,-0.01,-0.02,0.8,6.1,1.1,0.67,894.94,23.05,
4284863,-0.02,-0.02,0.8,6.1,1.28,0.55,894.98,23.04,
4284913,-0.02,-0.01,0.82,6.16,1.16,0.49,894.93,23.03,
4284951,-0.01,-0.02,0.82,6.1,1.4,0.49,894.92,23.05,
4284989,-0.02,-0.02,0.81,6.04,1.16,0.43,894.93,23.04,
4285028,-0.02,-0.02,0.8,6.16,1.28,0.37,894.95,23.04,
4285066,-0.01,-0.02,0.77,5.86,1.4,0.43,894.93,23.05,
4285104,-0.01,-0.02,0.77,5.62,1.22,0.24,894.9,23.05,
4285142,-0.01,-0.03,0.75,5.31,1.1,0.31,894.93,23.05,
4285180,-0.02,-0.03,0.76,5.25,1.04,0.24,894.94,23.05,
4285219,-0.01,-0.02,0.77,4.82,1.16,0.12,894.93,23.05,
4285257,-0.01,-0.02,0.79,4.7,0.73,0.24,894.93,23.05,
4285307,-0.02,-0.02,0.78,4.58,0.85,0.12,894.96,23.03,
4285345,-0.01,-0.02,0.81,4.39,0.67,0.0,894.95,23.05,
4285383,-0.02,-0.02,0.82,4.09,0.67,0.06,894.97,23.05,
4285421,-0.01,-0.02,0.85,4.03,0.61,-0.06,894.98,23.05,
4285460,-0.02,-0.02,0.86,4.03,0.79,-0.12,894.94,23.04,
4285498,-0.02,-0.02,0.88,4.15,0.85,-0.18,895.0,23.05,
4285536,-0.01,-0.02,0.88,4.27,0.92,-0.31,895.01,23.06,
4285574,-0.02,-0.01,0.89,4.39,1.04,-0.31,894.98,23.06,
4285613,-0.02,-0.02,0.89,4.58,1.28,-0.37,895.0,23.05,
4285651,-0.02,-0.01,0.9,4.64,0.92,-0.37,894.97,23.06,
4285701,-0.04,-0.02,0.88,4.76,1.22,-0.31,894.98,23.05,
4285739,-0.03,-0.02,0.88,4.88,1.1,-0.31,894.98,23.05,
4285777,-0.02,-0.03,0.88,4.82,1.04,-0.24,895.0,23.06,
4285815,-0.02,-0.02,0.89,4.88,0.49,-0.12,895.01,23.05,
4285854,-0.04,-0.03,0.87,4.82,0.85,-0.18,894.98,23.05,
4285892,-0.03,-0.03,0.9,4.64,0.49,-0.12,895.07,23.06,
4285930,-0.02,-0.03,0.9,4.64,0.67,-0.06,895.03,23.04,
4285968,-0.04,-0.03,0.88,4.7,0.49,0.0,895.04,23.06,
4286007,-0.03,-0.02,0.87,4.7,0.67,0.0,895.09,23.06,
4286056,-0.04,-0.03,0.86,4.39,1.04,0.12,895.01,23.04,
4286095,-0.03,-0.03,0.84,4.46,0.98,0.12,895.09,23.05,
4286133,-0.03,-0.03,0.84,4.21,1.46,0.0,895.04,23.05,
4286171,-0.05,-0.03,0.86,4.27,1.89,0.24,895.13,23.06,
4286209,-0.03,-0.03,0.89,3.97,1.77,0.24,895.05,23.05,
4286247,-0.04,-0.03,0.92,4.03,1.77,0.18,895.02,23.04,
4286286,-0.04,-0.03,0.9,3.85,2.44,0.31,895.07,23.05,
4286324,-0.04,-0.02,0.9,3.91,2.69,0.24,895.1,23.05,
4286362,-0.04,-0.02,0.9,4.03,3.11,0.24,895.1,23.05,
4286400,-0.05,-0.03,0.92,3.97,2.87,0.43,895.1,23.05,
4286450,-0.05,-0.03,0.89,4.15,3.6,0.43,895.13,23.04,
4286489,-0.03,-0.02,0.92,4.39,3.05,0.55,895.17,23.05,
4286527,-0.04,-0.03,0.87,4.15,3.36,0.73,895.17,23.06,
4286565,-0.05,-0.03,0.85,4.27,2.81,0.92,895.15,23.05,
4286603,-0.04,-0.05,0.81,3.97,3.91,0.92,895.16,23.06,
4286642,-0.04,-0.04,0.76,3.54,3.78,1.1,895.21,23.05,
4286680,-0.05,-0.03,0.78,3.42,3.66,1.28,895.26,23.06,
4286718,-0.04,-0.04,0.74,2.81,4.15,1.28,895.23,23.05,
4286756,-0.03,-0.04,0.78,2.38,3.36,1.34,895.25,23.05,
4286832,-0.04,-0.04,0.8,1.22,3.85,1.59,895.25,23.02,
4286871,-0.03,-0.04,0.84,0.67,3.97,1.71,895.28,23.04,
4286909,-0.04,-0.04,0.86,-0.06,3.91,1.83,895.27,23.04,
4286999,-0.04,-0.03,0.92,-0.67,2.87,1.95,895.3,23.0,
4287037,-0.03,-0.03,0.93,-0.92,2.32,2.14,895.3,23.01,
4287075,-0.03,-0.02,0.97,-1.16,1.4,2.26,895.3,23.02,
4287113,-0.04,-0.03,0.96,-1.1,1.95,2.26,895.4,23.03,
4287152,-0.04,-0.03,0.97,-1.28,2.08,2.2,895.32,23.02,
4287190,-0.03,-0.02,1.0,-1.16,2.69,2.2,895.36,23.04,
4287228,-0.03,-0.02,1.01,-1.04,3.05,2.01,895.42,23.04,
4287278,-0.04,-0.02,1.04,-1.04,4.03,2.2,895.41,23.02,
4287316,-0.04,-0.02,1.07,-0.98,4.64,2.01,895.41,23.03,
4287355,-0.04,-0.0,1.11,-1.04,5.19,2.08,895.42,23.04,
4287393,-0.04,0.0,1.14,-0.98,5.25,2.14,895.44,23.04,
4287431,-0.03,-0.0,1.16,-0.92,5.8,2.14,895.43,23.04,
4287469,-0.03,0.0,1.2,-0.92,5.92,1.89,895.44,23.04,
4287507,-0.03,0.01,1.25,-0.79,6.04,1.95,895.47,23.05,
4287546,-0.03,0.02,1.25,-0.85,6.29,2.2,895.45,23.03,
4287584,-0.03,0.02,1.29,-0.24,6.59,2.01,895.45,23.04,
4287622,-0.03,0.0,1.25,-0.12,7.26,2.08,895.52,23.05,
4287672,-0.03,0.01,1.27,0.43,5.98,2.26,895.54,23.04,
4287710,-0.02,0.0,1.21,0.31,5.68,2.2,895.56,23.04,
4287749,-0.02,0.02,1.19,0.67,5.19,2.01,895.57,23.04,
4287787,-0.03,-0.0,1.16,0.98,5.49,2.32,895.52,23.04,
4287825,-0.01,-0.02,1.13,1.28,4.82,2.38,895.62,23.06,
4287863,-0.04,-0.01,1.12,1.46,4.52,2.32,895.62,23.05,
4287901,-0.04,-0.02,1.07,1.77,4.27,2.44,895.66,23.03,
4287940,-0.01,-0.01,1.07,1.95,3.78,2.14,895.63,23.05,
4287978,-0.02,-0.02,1.05,1.77,3.54,2.2,895.66,23.06,
4288028,-0.03,-0.03,1.02,1.65,3.23,2.08,895.69,23.04,
4288066,-0.02,-0.02,1.04,1.46,3.23,1.95,895.67,23.05,
4288104,-0.02,-0.02,1.03,1.4,2.81,2.01,895.67,23.05,
4288143,-0.03,-0.02,1.04,1.4,2.32,2.14,895.65,23.05,
4288181,-0.01,-0.03,1.04,1.1,2.2,1.95,895.68,23.05,
4288219,0.0,-0.03,1.02,0.85,2.01,1.95,895.71,23.04,
4288257,-0.01,-0.01,1.04,0.92,0.79,2.01,895.73,23.06,
4288296,-0.03,-0.02,1.04,0.55,0.49,1.83,895.72,23.06,
4288334,-0.01,-0.02,1.08,0.37,-0.31,1.83,895.73,23.05,
4288372,-0.02,-0.02,1.11,0.06,-0.49,2.01,895.74,23.06,
4288422,-0.02,-0.02,1.12,-0.06,-1.04,1.89,895.73,23.04,
4288460,-0.02,-0.01,1.14,-0.55,-1.77,1.89,895.76,23.05,
4288499,-0.02,-0.0,1.16,-0.49,-2.08,1.71,895.74,23.05,
4288537,-0.01,-0.01,1.16,-0.79,-2.14,1.89,895.73,23.04,
4288575,-0.02,-0.01,1.16,-0.85,-2.38,1.89,895.79,23.06,
4288613,-0.02,-0.01,1.18,-0.49,-2.26,1.71,895.81,23.06,
4288651,-0.02,-0.02,1.15,-0.55,-1.65,1.65,895.78,23.05,
4288690,-0.01,-0.02,1.17,-0.43,-0.73,1.04,895.8,23.05,
4288728,-0.01,-0.02,1.12,-0.55,0.0,1.22,895.94,23.05,
4288778,-0.02,-0.0,1.14,-0.18,0.06,0.98,895.81,23.05,
4288816,-0.03,-0.02,1.1,-0.12,0.61,0.79,895.85,23.05,
4288854,-0.02,-0.02,1.15,-0.06,0.61,0.55,895.87,23.05,
4288893,-0.03,-0.02,1.17,0.06,1.04,0.61,895.87,23.06,
4288931,-0.02,-0.02,1.15,0.0,1.53,0.43,895.8,23.04,
4288969,-0.02,-0.01,1.16,0.12,1.71,0.49,895.85,23.05,
4289007,-0.02,-0.01,1.16,0.18,1.59,0.43,895.84,23.04,
4289045,-0.04,-0.01,1.15,0.18,1.71,0.49,895.8,23.04,
4289084,-0.03,-0.01,1.15,0.37,2.01,0.49,895.85,23.05,
4289122,-0.02,-0.0,1.17,0.37,2.14,0.49,895.91,23.05,
4289172,-0.03,-0.01,1.19,0.55,2.01,0.43,895.85,23.03,
4289210,-0.03,-0.01,1.2,0.73,2.26,0.37,895.88,23.05,
4289248,-0.03,-0.01,1.2,0.73,2.44,0.37,895.84,23.04,
4289287,-0.03,-0.0,1.18,0.49,2.93,0.49,895.87,23.04,
4289325,-0.02,-0.0,1.21,0.73,3.11,0.43,895.81,23.04,
4289363,-0.04,-0.01,1.17,0.79,3.48,0.37,895.85,23.05,
4289401,-0.04,0.0,1.19,1.4,2.99,0.43,895.88,23.06,
4289439,-0.02,-0.01,1.22,1.65,2.75,0.55,895.84,23.05,
4289478,-0.03,-0.0,1.18,1.89,2.56,0.37,895.89,23.05,
4289516,-0.03,0.0,1.24,2.5,2.32,0.61,895.91,23.06,
4289566,-0.03,-0.0,1.18,2.93,2.62,0.61,895.9,23.03,
4289604,-0.04,0.01,1.22,3.54,2.99,0.49,895.9,23.05,
4289642,-0.02,-0.0,1.2,3.85,3.97,0.43,895.9,23.04,
4289681,-0.03,0.0,1.22,4.46,3.6,0.43,895.92,23.06,
4289719,-0.04,-0.02,1.13,4.52,4.88,0.67,895.95,23.05,
4289757,-0.03,-0.0,1.13,4.94,3.97,0.43,895.94,23.05,
4289795,-0.04,-0.01,1.09,5.49,4.64,0.61,895.91,23.06,
4289834,-0.02,-0.03,1.01,5.49,4.58,0.61,896.0,23.06,
4289872,-0.04,-0.02,1.01,6.23,4.09,0.61,895.96,23.06,
4289949,-0.02,-0.04,0.95,6.23,4.09,0.85,895.9,23.03,
4289987,-0.05,-0.03,0.96,6.41,4.03,0.73,895.88,23.03,
4290026,-0.03,-0.04,0.93,6.16,4.21,1.04,895.96,23.05,
4290115,-0.04,-0.04,0.93,5.98,3.3,1.1,895.92,23.01,
4290154,-0.05,-0.03,0.93,5.8,2.08,1.22,895.89,23.02,
4290192,-0.03,-0.04,0.93,5.49,2.56,1.22,895.84,23.03,
4290230,-0.04,-0.04,0.93,5.37,1.77,1.34,895.87,23.04,
4290268,-0.04,-0.04,0.94,5.8,0.85,1.65,895.89,23.04,
4290307,-0.04,-0.05,0.9,5.31,0.92,1.65,895.88,23.03,
4290345,-0.04,-0.04,0.88,5.13,0.61,1.71,895.9,23.03,
4290395,-0.04,-0.04,0.84,4.88,-0.67,2.32,895.87,23.03,
4290433,-0.05,-0.05,0.78,4.94,-0.98,2.08,895.88,23.04,
4290471,-0.04,-0.06,0.75,4.33,-0.61,2.32,895.91,23.04,
4290510,-0.04,-0.06,0.76,4.33,-1.34,2.5,895.86,23.04,
4290548,-0.05,-0.06,0.7,3.85,-1.95,2.69,895.89,23.04,
4290586,-0.05,-0.05,0.69,3.85,-1.95,2.87,895.88,23.03,
4290624,-0.04,-0.06,0.7,3.66,-1.59,2.81,895.94,23.04,
4290663,-0.05,-0.06,0.67,3.3,-1.95,2.87,895.93,23.05,
4290701,-0.05,-0.05,0.69,3.23,-1.95,3.05,895.9,23.05,
4290751,-0.05,-0.06,0.72,2.32,-1.53,3.42,895.92,23.04,
4290789,-0.04,-0.05,0.75,2.08,-1.4,3.42,895.86,23.03,
4290827,-0.05,-0.05,0.74,1.22,-0.37,3.42,895.94,23.05,
4290866,-0.04,-0.05,0.78,1.46,0.24,3.66,895.9,23.05,
4290904,-0.04,-0.05,0.78,0.85,0.92,3.72,895.99,23.05,
4290942,-0.06,-0.05,0.79,0.73,1.16,3.85,895.96,23.04,
4290980,-0.06,-0.06,0.78,0.37,3.54,3.85,895.95,23.05,
4291019,-0.05,-0.05,0.8,0.24,4.21,3.97,895.91,23.04,
4291057,-0.05,-0.05,0.85,0.49,3.97,4.03,896.01,23.04,
4291095,-0.04,-0.05,0.87,0.18,4.46,4.33,896.01,23.05,
4291145,-0.03,-0.05,0.94,0.55,4.76,4.58,895.96,23.03,
4291183,-0.02,-0.05,0.96,0.18,5.31,4.7,895.97,23.04,
4291222,-0.03,-0.03,1.02,0.55,3.97,5.0,896.04,23.04,
4291260,-0.04,-0.04,1.0,0.24,4.27,4.94,896.01,23.04,
4291298,-0.03,-0.04,1.01,0.18,4.27,5.25,896.02,23.04,
4291336,-0.02,-0.04,1.04,0.18,3.72,5.25,896.04,23.06,
4291375,-0.04,-0.05,0.98,0.0,3.85,5.43,896.05,23.05,
4291413,-0.04,-0.03,1.03,0.12,3.6,5.31,896.07,23.05,
4291451,-0.02,-0.04,1.04,-0.06,4.76,5.55,895.98,23.04,
4291489,-0.02,-0.04,1.04,0.12,4.09,5.49,896.06,23.06,
4291539,-0.04,-0.05,1.05,-0.06,5.07,5.8,896.1,23.04,
4291578,-0.03,-0.04,1.05,-0.18,5.19,5.74,896.1,23.05,
4291616,-0.0,-0.03,1.06,0.06,4.76,5.8,896.04,23.05,
4291654,-0.04,-0.02,1.06,0.37,4.27,5.92,896.05,23.05,
4291692,-0.02,-0.05,1.07,0.61,4.46,6.04,896.14,23.06,
4291731,-0.01,-0.05,1.07,0.49,4.64,6.1,896.08,23.05,
4291769,-0.01,-0.04,1.08,1.22,3.72,6.16,896.1,23.05,
4291807,-0.02,-0.05,1.02,1.04,4.03,6.35,896.14,23.05,
4291845,-0.0,-0.04,1.04,1.71,3.3,6.04,896.13,23.06,
4291895,-0.01,-0.05,0.98,1.28,3.17,6.47,896.17,23.05,
4291934,-0.01,-0.04,1.0,1.4,2.56,6.1,896.16,23.05,
4291972,-0.0,-0.05,1.02,1.4,3.97,5.92,896.18,23.05,
4292010,-0.0,-0.05,1.01,1.16,4.09,5.98,896.19,23.05,
4292048,-0.0,-0.04,1.05,1.46,3.97,6.16,896.17,23.05,
4292087,-0.02,-0.05,1.01,0.98,4.46,5.98,896.13,23.05,
4292125,-0.01,-0.05,1.05,0.85,3.78,6.04,896.15,23.05,
4292163,0.01,-0.04,1.04,0.12,4.46,5.98,896.23,23.05,
4292201,0.01,-0.04,1.1,0.43,4.15,5.68,896.16,23.05,
4292240,0.01,-0.06,1.05,-0.18,5.07,5.8,896.22,23.06,
4292290,0.01,-0.04,1.11,0.18,3.72,5.68,896.24,23.03,
4292328,0.01,-0.05,1.07,-0.06,3.85,5.62,896.17,23.04,
4292366,-0.0,-0.04,1.06,-0.37,2.99,5.31,896.2,23.04,
4292404,0.02,-0.05,1.06,-0.61,4.15,5.25,896.26,23.05,
4292443,0.02,-0.06,1.02,-0.43,3.72,4.94,896.29,23.05,
4292481,0.02,-0.05,1.07,-0.24,3.17,4.82,896.2,23.04,
4292519,0.02,-0.06,1.04,-0.37,3.91,4.64,896.22,23.04,
4292557,0.01,-0.04,1.08,-0.06,2.87,4.52,896.21,23.06,
4292596,0.02,-0.05,1.11,-0.24,3.36,4.39,896.22,23.05,
4292634,0.03,-0.06,1.09,-0.67,2.56,4.21,896.23,23.05,
4292684,0.02,-0.05,1.13,-0.55,1.83,4.15,896.21,23.04,
4292722,0.03,-0.04,1.14,-0.85,1.22,3.97,896.24,23.04,
4292760,0.03,-0.05,1.18,-0.73,0.55,4.03,896.21,23.05,
4292799,0.02,-0.05,1.15,-0.98,0.0,3.66,896.26,23.06,
4292837,0.01,-0.05,1.17,-0.79,0.31,3.36,896.28,23.06,
4292875,0.03,-0.05,1.14,-0.85,0.43,3.05,896.24,23.06,
4292913,0.02,-0.04,1.13,-0.85,0.0,2.93,896.23,23.05,
4292952,0.01,-0.05,1.12,-0.85,0.43,2.56,896.3,23.05,
4292990,0.02,-0.06,1.12,-0.55,0.92,2.26,896.26,23.05,
4293066,0.0,-0.05,1.1,-0.73,1.4,1.89,896.34,23.04,
4293104,0.01,-0.05,1.1,-0.61,2.2,1.46,896.28,23.03,
4293142,0.01,-0.05,1.11,-0.37,1.83,1.46,896.29,23.03,
4293232,0.0,-0.05,1.11,-0.18,1.83,1.04,896.27,23.01,
4293270,0.0,-0.05,1.13,0.06,1.65,1.1,896.29,23.02,
4293309,0.0,-0.06,1.13,0.06,1.46,0.85,896.29,23.02,
4293347,-0.0,-0.05,1.13,0.0,1.28,0.85,896.29,23.03,
4293385,0.0,-0.05,1.13,0.0,1.59,0.79,896.25,23.01,
4293423,0.01,-0.04,1.17,0.06,1.46,0.73,896.3,23.03,
4293462,0.01,-0.04,1.23,0.24,1.46,0.55,896.29,23.04,
4293511,0.0,-0.05,1.26,0.12,1.71,0.49,896.25,23.03,
4293550,-0.0,-0.04,1.3,0.06,2.32,0.37,896.3,23.05,
4293588,-0.01,-0.04,1.27,-0.24,2.14,0.31,896.32,23.05,
4293626,-0.01,-0.04,1.31,0.12,2.2,0.31,896.27,23.05,
4293664,-0.0,-0.05,1.24,0.12,3.11,0.12,896.31,23.06,
4293703,-0.01,-0.03,1.26,0.18,3.05,0.12,896.28,23.05,
4293741,-0.0,-0.05,1.17,0.18,3.6,0.12,896.3,23.05,
4293779,-0.02,-0.04,1.19,0.49,2.99,0.06,896.25,23.05,
4293817,-0.01,-0.05,1.17,0.24,3.91,-0.12,896.27,23.04,
4293856,-0.01,-0.05,1.17,0.43,3.54,-0.06,896.28,23.05,
4293906,-0.02,-0.05,1.14,0.06,4.15,-0.06,896.24,23.02,
4293944,-0.02,-0.05,1.15,0.24,4.21,-0.06,896.29,23.04,
4293982,-0.01,-0.05,1.16,0.06,4.76,-0.31,896.25,23.04,
4294020,-0.02,-0.06,1.13,0.12,4.15,-0.24,896.28,23.05,
4294059,-0.03,-0.05,1.15,0.24,4.64,-0.12,896.24,23.04,
4294097,-0.01,-0.05,1.14,-0.06,4.76,-0.12,896.2,23.04,
4294135,-0.01,-0.03,1.22,0.0,3.54,-0.06,896.21,23.03,
4294173,-0.01,-0.04,1.21,-0.31,3.42,0.06,896.23,23.03,
4294212,-0.02,-0.06,1.21,-0.18,3.05,-0.06,896.25,23.04,
4294262,-0.01,-0.05,1.2,-0.18,3.42,0.0,896.23,23.04,
4294300,-0.01,-0.04,1.17,-0.43,2.75,0.06,896.23,23.05,
4294338,-0.03,-0.05,1.1,-0.43,2.62,0.06,896.19,23.04,
4294376,-0.03,-0.05,1.09,-0.55,2.38,-0.18,896.21,23.05,
4294415,-0.02,-0.06,1.07,-0.85,3.11,0.0,896.14,23.03,
4294453,-0.02,-0.06,1.08,-0.92,2.38,-0.12,896.14,23.03,
4294491,-0.04,-0.06,1.08,-1.1,2.87,0.18,896.13,23.05,
4294529,-0.03,-0.05,1.1,-1.16,2.56,0.12,896.08,23.03,
4294568,-0.03,-0.05,1.13,-1.22,2.75,0.06,896.13,23.04,
4294606,-0.03,-0.05,1.11,-1.46,2.62,0.31,896.17,23.04,
4294656,-0.04,-0.04,1.16,-1.22,3.23,0.31,896.11,23.03,
4294694,-0.02,-0.05,1.13,-1.22,3.48,0.18,896.12,23.03,
4294732,-0.03,-0.05,1.15,-0.98,3.48,0.24,896.07,23.03,
4294771,-0.04,-0.05,1.12,-0.92,3.6,0.49,896.09,23.03,
4294809,-0.04,-0.05,1.11,-0.55,2.99,0.49,896.07,23.03,
4294847,-0.04,-0.05,1.07,-0.73,3.42,0.43,896.01,23.04,
4294885,-0.03,-0.04,1.09,-0.31,2.32,0.49,896.06,23.05,
4294924,-0.03,-0.05,1.12,-0.31,3.17,0.61,896.03,23.05,
4294962,-0.02,-0.06,1.1,-0.37,2.81,0.61,896.04,23.05,
4295012,-0.05,-0.04,1.11,-0.43,2.87,0.73,896.04,23.03,
4295050,-0.05,-0.05,1.11,-0.55,2.44,0.79,895.93,23.04,
4295088,-0.04,-0.04,1.17,-0.61,2.5,0.73,895.96,23.04,
4295127,-0.04,-0.05,1.14,-0.31,3.05,0.98,895.97,23.04,
4295165,-0.04,-0.03,1.19,0.0,2.99,0.79,895.99,23.04,
4295203,-0.04,-0.04,1.15,0.06,4.27,0.92,895.9,23.05,
4295241,-0.04,-0.03,1.18,0.67,3.72,0.98,895.92,23.03,
4295279,-0.04,-0.04,1.14,0.98,4.52,0.98,895.91,23.05,
4295318,-0.05,-0.04,1.13,1.28,4.52,1.04,895.91,23.05,
4295356,-0.03,-0.05,1.09,1.53,4.64,1.22,895.94,23.05,
4295406,-0.04,-0.04,1.02,1.83,3.54,1.4,895.92,23.04,
4295444,-0.05,-0.05,0.92,1.16,4.03,1.34,895.87,23.04,
4295482,-0.02,-0.05,0.96,1.83,3.17,1.34,895.84,23.04,
4295521,-0.05,-0.06,0.89,1.53,4.09,1.53,895.86,23.04,
4295559,-0.04,-0.05,0.93,2.01,3.97,1.65,895.82,23.05,
4295597,-0.03,-0.06,0.88,1.89,4.52,1.59,895.9,23.05,
4295635,-0.03,-0.05,0.86,1.89,3.91,1.65,895.78,23.04,
4295674,-0.05,-0.06,0.84,1.89,4.33,1.71,895.84,23.06,
4295712,-0.03,-0.08,0.78,1.1,5.43,1.77,895.76,23.05,
4295762,-0.02,-0.05,0.79,1.04,4.27,1.71,895.76,23.03,
4295800,-0.04,-0.06,0.78,0.31,3.91,1.83,895.71,23.03,
4295838,-0.04,-0.06,0.8,0.24,3.72,1.89,895.76,23.05,
4295877,-0.02,-0.07,0.84,0.18,3.85,1.77,895.76,23.05,
4295915,-0.03,-0.06,0.85,0.06,2.87,1.89,895.79,23.04,
4295953,-0.04,-0.06,0.87,0.24,2.93,1.95,895.74,23.05,
4295991,-0.02,-0.05,0.87,-0.18,2.99,1.89,895.69,23.04,
4296030,-0.03,-0.05,0.91,0.24,2.26,2.01,895.67,23.05,
4296068,-0.04,-0.06,0.87,-0.12,2.38,2.26,895.71,23.06,
4296106,-0.04,-0.05,0.89,0.06,1.89,2.2,895.7,23.05,
4296182,-0.03,-0.06,0.9,0.31,1.71,2.2,895.71,23.02,
4296220,-0.03,-0.05,0.92,0.55,1.65,2.32,895.62,23.03,
4296258,-0.03,-0.06,0.9,0.61,2.2,2.14,895.67,23.03,
4296348,-0.04,-0.06,0.89,0.98,2.5,2.26,895.66,23.01,
4296386,-0.04,-0.05,0.91,1.16,2.26,2.32,895.61,23.02,
4296425,-0.03,-0.06,0.91,1.1,2.75,2.38,895.58,23.01,
4296463,-0.03,-0.05,0.93,1.16,2.38,2.38,895.65,23.01,
4296501,-0.03,-0.05,0.96,1.1,2.38,2.69,895.57,23.02,
4296539,-0.03,-0.05,0.96,1.16,2.38,2.5,895.6,23.02,
4296577,-0.04,-0.05,0.98,1.28,2.5,2.56,895.61,23.03,
4296627,-0.03,-0.04,0.97,1.34,2.44,2.56,895.58,23.02,
4296666,-0.03,-0.05,0.96,1.53,2.44,2.75,895.56,23.03,
4296704,-0.03,-0.04,0.96,1.4,2.5,2.62,895.52,23.02,
4296742,-0.03,-0.04,0.96,1.53,2.81,2.69,895.59,23.03,
4296780,-0.02,-0.04,0.95,1.53,2.44,2.87,895.52,23.03,
4296819,-0.03,-0.04,0.95,1.83,2.14,2.69,895.57,23.03,
4296857,-0.03,-0.05,0.93,1.83,2.2,2.99,895.51,23.03,
4296895,-0.03,-0.05,0.94,2.08,2.01,2.99,895.54,23.03,
4296933,-0.03,-0.04,0.93,2.2,2.26,3.05,895.54,23.03,
4296983,-0.03,-0.05,0.94,2.2,2.32,2.87,895.52,23.03,
4297022,-0.03,-0.05,0.93,2.32,2.5,2.87,895.54,23.02,
4297060,-0.03,-0.05,0.94,2.44,2.56,3.05,895.51,23.03,
4297098,-0.03,-0.05,0.94,2.5,2.69,2.99,895.5,23.04,
4297136,-0.03,-0.04,0.94,2.26,3.05,2.99,895.48,23.03,
4297175,-0.03,-0.05,0.94,2.26,3.54,2.69,895.46,23.02,
4297213,-0.02,-0.04,0.94,2.32,3.85,2.99,895.46,23.03,
4297251,-0.03,-0.05,0.95,2.44,4.27,2.87,895.46,23.03,
4297289,-0.03,-0.04,0.94,2.56,4.52,2.99,895.47,23.02,
4297328,-0.04,-0.04,0.94,2.69,4.7,3.17,895.51,23.04,
4297378,-0.02,-0.04,0.94,2.75,4.94,3.05,895.44,23.02,
4297416,-0.02,-0.04,0.94,2.62,4.7,3.17,895.45,23.04,
4297454,-0.02,-0.05,0.92,2.62,4.88,3.17,895.43,23.03,
4297492,-0.02,-0.04,0.92,2.5,4.64,3.23,895.46,23.03,
4297531,-0.02,-0.04,0.93,2.14,4.58,3.11,895.43,23.03,
4297569,-0.02,-0.04,0.92,2.14,4.46,3.3,895.42,23.03,
4297607,-0.02,-0.04,0.93,2.14,4.03,3.36,895.43,23.04,
4297645,-0.01,-0.04,0.94,2.08,3.85,3.23,895.45,23.05,
4297684,-0.02,-0.04,0.94,1.83,3.54,3.11,895.43,23.02,
4297722,-0.02,-0.04,0.96,2.14,3.23,3.17,895.42,23.03,
4297772,-0.02,-0.04,0.95,2.14,2.81,3.17,895.42,23.03,
4297810,-0.02,-0.04,0.96,2.32,2.5,3.3,895.46,23.05,
4297848,-0.02,-0.04,0.96,2.14,2.38,3.11,895.37,23.03,
4297887,-0.01,-0.04,0.96,2.2,1.77,2.87,895.4,23.03,
4297925,-0.02,-0.04,0.96,2.32,1.65,3.05,895.39,23.04,
4297963,-0.02,-0.04,0.96,2.56,1.77,2.75,895.39,23.03,
4298001,-0.01,-0.04,0.98,2.56,1.65,2.87,895.36,23.03,
4298040,-0.02,-0.04,0.99,2.56,1.59,2.75,895.38,23.03,
4298078,-0.02,-0.04,0.97,2.5,1.77,2.69,895.34,23.04,
4298128,-0.01,-0.04,0.98,2.44,1.65,2.69,895.31,23.01,
4298166,-0.02,-0.04,0.96,2.38,1.95,2.62,895.36,23.03,
4298204,-0.02,-0.04,0.97,2.38,1.46,2.5,895.33,23.04,
4298243,-0.02,-0.04,0.97,2.08,1.59,2.26,895.33,23.04,
4298281,-0.02,-0.04,0.96,2.08,2.01,2.26,895.33,23.04,
4298319,-0.02,-0.04,0.97,2.01,1.65,2.26,895.28,23.04,
4298357,-0.02,-0.04,0.96,1.95,1.71,2.2,895.33,23.03,
4298396,-0.02,-0.04,0.95,2.01,1.89,2.08,895.29,23.03,
4298434,-0.02,-0.04,0.95,2.08,2.14,2.01,895.31,23.04,
4298472,-0.01,-0.04,0.92,1.95,1.89,2.08,895.35,23.04,
4298522,-0.03,-0.03,0.94,1.89,2.08,1.89,895.28,23.02,
4298560,-0.02,-0.04,0.93,1.95,2.38,1.89,895.27,23.03,
4298599,-0.02,-0.03,0.98,1.89,2.2,1.71,895.28,23.03,
4298637,-0.02,-0.04,0.97,1.83,2.87,1.71,895.28,23.04,
4298675,-0.02,-0.03,0.97,1.53,2.87,1.77,895.24,23.03,
4298713,-0.02,-0.03,0.99,1.4,3.3,1.46,895.27,23.04,
4298752,-0.02,-0.03,1.0,1.4,2.99,1.53,895.24,23.03,
4298790,-0.02,-0.03,1.01,1.53,3.11,1.28,895.25,23.04,
4298828,-0.03,-0.03,1.0,1.71,3.23,1.4,895.25,23.03,
4298866,-0.02,-0.03,1.01,1.65,2.93,1.4,895.24,23.04,
4298916,-0.03,-0.03,1.0,1.77,2.87,1.46,895.25,23.02,
4298955,-0.02,-0.03,1.01,1.77,2.81,1.28,895.24,23.05,
4298993,-0.02,-0.03,1.0,1.77,2.87,1.1,895.23,23.03,
4299031,-0.03,-0.03,1.0,1.71,2.69,1.16,895.22,23.04,
4299069,-0.02,-0.03,1.0,1.95,2.81,1.4,895.21,23.04,
4299108,-0.03,-0.03,1.0,1.83,2.5,1.28,895.2,23.04,
4299146,-0.02,-0.03,0.99,1.77,2.81,1.22,895.19,23.03,
4299184,-0.02,-0.03,0.99,1.83,2.81,1.1,895.27,23.05,
4299222,-0.03,-0.03,0.99,1.83,3.11,1.16,895.13,23.04,
4299298,-0.03,-0.02,0.98,1.95,3.23,1.22,895.19,23.01,
4299337,-0.03,-0.03,0.96,1.95,3.48,1.22,895.17,23.03,
4299375,-0.03,-0.03,0.98,2.14,3.05,1.1,895.15,23.03,
4299465,-0.03,-0.03,0.98,2.14,2.87,1.16,895.13,23.0,
4299503,-0.04,-0.03,0.96,2.2,2.93,1.04,895.09,23.0,
4299541,-0.03,-0.03,0.97,2.01,2.38,1.16,895.17,23.02,
4299579,-0.03,-0.03,0.97,2.26,2.56,1.16,895.09,23.01,
4299618,-0.03,-0.03,0.97,2.2,2.01,1.22,895.14,23.01,
4299656,-0.04,-0.03,0.96,2.5,2.14,1.22,895.12,23.03,
4299694,-0.03,-0.03,0.95,2.5,1.83,1.28,895.14,23.03,
4299744,-0.04,-0.03,0.96,2.62,1.77,1.4,895.14,23.01,
4299782,-0.03,-0.03,0.95,2.56,1.83,1.22,895.13,23.03,
4299821,-0.03,-0.02,0.96,2.87,1.46,1.28,895.1,23.03,
4299859,-0.04,-0.03,0.95,2.5,1.71,1.28,895.08,23.03,
4299897,-0.03,-0.04,0.93,2.62,1.71,1.28,895.13,23.03,
4299935,-0.03,-0.03,0.94,2.69,1.65,1.4,895.18,23.05,
4299974,-0.04,-0.03,0.91,2.56,1.71,1.59,895.11,23.03,
4300012,-0.04,-0.03,0.93,2.75,1.95,1.34,895.11,23.03,
4300050,-0.03,-0.03,0.92,2.38,2.5,1.53,895.1,23.03,
4300088,-0.03,-0.03,0.94,2.44,2.32,1.4,895.09,23.04,
4300138,-0.04,-0.04,0.93,2.69,2.44,1.65,895.09,23.02,
4300177,-0.03,-0.03,0.94,2.5,2.44,1.59,895.11,23.03,
4300215,-0.03,-0.03,0.93,2.56,2.81,1.77,895.06,23.04,
4300253,-0.03,-0.03,0.92,2.87,2.38,1.65,895.13,23.04,
4300291,-0.03,-0.03,0.93,2.87,2.75,1.77,895.07,23.03,
4300330,-0.03,-0.03,0.91,3.05,2.81,1.95,895.11,23.04,
4300368,-0.03,-0.03,0.9,3.42,2.14,1.95,895.09,23.03,
4300406,-0.03,-0.04,0.89,3.23,1.95,1.89,895.06,23.03,
4300444,-0.03,-0.04,0.88,3.17,1.95,1.95,895.07,23.05,
4300494,-0.03,-0.03,0.88,3.23,2.14,1.95,895.03,23.03,
4300533,-0.03,-0.04,0.87,3.11,2.44,1.95,895.03,23.03,
4300571,-0.03,-0.03,0.9,3.05,2.62,2.01,895.06,23.03,
4300609,-0.03,-0.04,0.92,2.81,2.81,1.89,895.04,23.03,
4300647,-0.03,-0.04,0.91,2.56,2.87,1.95,895.06,23.05,
4300686,-0.03,-0.03,0.94,2.44,2.5,2.08,894.98,23.03,
4300724,-0.03,-0.03,0.95,2.2,2.99,2.08,895.08,23.04,
4300762,-0.03,-0.03,0.98,2.2,2.87,1.95,895.04,23.03,
4300800,-0.03,-0.02,1.01,2.08,3.3,2.08,895.07,23.05,
4300839,-0.03,-0.02,1.02,1.89,3.6,2.01,894.99,23.03,
4300889,-0.03,-0.02,1.02,1.65,4.33,2.01,895.0,23.02,
4300927,-0.02,-0.02,1.02,1.53,4.33,1.95,894.98,23.03,
4300965,-0.03,-0.01,1.05,1.65,4.03,2.26,895.0,23.04,
4301003,-0.04,-0.02,1.03,1.46,4.33,2.26,895.06,23.05,
4301042,-0.03,-0.02,1.08,1.77,3.6,2.2,895.0,23.03,
4301080,-0.02,-0.02,1.04,1.77,3.85,2.44,895.05,23.03,
4301118,-0.03,-0.01,1.06,1.71,2.87,2.38,895.04,23.05,
4301156,-0.03,-0.02,1.06,1.71,3.3,2.44,895.05,23.03,
4301195,-0.03,-0.03,1.03,1.71,3.23,2.32,895.04,23.04,
4301233,-0.02,-0.02,1.06,1.95,2.56,2.38,895.01,23.04,
4301283,-0.03,-0.02,1.02,1.95,2.26,2.38,894.99,23.03,
4301321,-0.03,-0.02,1.04,1.89,2.26,2.44,894.98,23.03,
4301359,-0.02,-0.02,1.02,1.59,2.38,2.38,894.99,23.04,
4301398,-0.03,-0.02,1.03,1.65,1.77,2.5,894.97,23.04,
4301436,-0.04,-0.02,1.0,1.34,1.65,2.56,894.98,23.03,
4301474,-0.03,-0.02,1.02,1.4,1.53,2.44,894.98,23.02,
4301512,-0.03,-0.02,1.0,1.22,1.59,2.69,894.98,23.03,
4301551,-0.04,-0.02,1.02,1.4,0.92,2.62,895.01,23.03,
4301589,-0.04,-0.02,1.01,1.22,1.34,2.69,895.0,23.04,
4301639,-0.03,-0.03,1.03,1.59,1.4,2.69,894.99,23.03,
4301677,-0.04,-0.02,1.03,1.71,1.28,2.81,894.96,23.04,
4301715,-0.04,-0.02,1.02,1.71,1.89,2.93,894.94,23.03,
4301754,-0.04,-0.01,1.02,2.01,2.08,2.81,895.01,23.05,
4301792,-0.03,-0.02,1.03,1.89,2.26,2.81,894.97,23.04,
4301830,-0.03,-0.03,1.0,1.89,2.56,2.69,894.98,23.03,
4301868,-0.03,-0.02,1.01,2.08,2.75,2.93,894.93,23.03,
4301907,-0.03,-0.03,1.0,2.26,3.11,2.99,894.95,23.04,
4301945,-0.03,-0.02,0.99,2.14,2.87,2.99,894.95,23.03,
4301983,-0.04,-0.02,0.99,2.2,3.17,2.99,894.97,23.04,
4302033,-0.03,-0.03,0.97,2.56,3.11,3.17,894.95,23.03,
4302071,-0.03,-0.03,0.95,2.44,3.11,3.11,894.96,23.03,
4302110,-0.03,-0.02,0.94,2.56,2.93,3.42,894.99,23.03,
4302148,-0.04,-0.03,0.94,2.81,2.75,3.17,894.95,23.03,
4302186,-0.04,-0.03,0.93,2.69,3.11,3.42,894.98,23.04,
4302224,-0.03,-0.03,0.93,2.62,3.05,3.36,894.97,23.04,
4302263,-0.03,-0.03,0.92,2.5,3.05,3.3,894.98,23.04,
4302301,-0.04,-0.03,0.92,2.44,3.42,3.54,894.97,23.06,
4302339,-0.03,-0.03,0.9,2.32,3.85,3.54,894.97,23.03,
4302377,-0.02,-0.03,0.91,2.56,3.48,3.42,894.97,23.05,
4302453,-0.03,-0.03,0.88,2.56,3.97,3.66,894.93,23.01,
4302492,-0.03,-0.03,0.89,2.56,4.58,3.54,894.94,23.02,
4302530,-0.02,-0.03,0.9,2.56,4.46,3.54,894.95,23.01,
4302620,-0.03,-0.03,0.92,2.44,4.82,3.42,894.97,22.99,
4302658,-0.02,-0.03,0.93,2.5,4.94,3.66,894.95,23.0,
4302696,-0.02,-0.03,0.93,2.44,4.7,3.78,894.93,22.98,
4302734,-0.02,-0.03,0.95,2.38,4.64,3.6,894.96,23.02,
4302773,-0.02,-0.03,0.93,2.14,4.7,3.66,894.98,23.01,
4302811,-0.02,-0.02,0.95,2.32,4.21,3.72,894.96,23.03,
4302861,-0.02,-0.02,0.95,2.01,4.27,3.66,895.0,23.02,
4302899,-0.01,-0.03,0.96,1.83,4.21,3.6,894.91,23.01,
4302937,-0.02,-0.03,0.97,2.08,4.21,3.66,894.96,23.01,
4302976,-0.01,-0.03,0.97,2.08,4.03,3.6,894.99,23.02,
4303014,-0.02,-0.02,0.96,2.08,4.15,3.66,894.97,23.02,
4303052,-0.02,-0.02,0.97,2.2,4.21,3.54,895.0,23.02,
4303090,-0.02,-0.02,0.98,2.14,3.91,3.36,894.97,23.04,
4303129,-0.03,-0.02,0.98,2.62,3.54,3.54,894.98,23.03,
4303167,-0.02,-0.03,0.98,2.81,3.66,3.48,894.95,23.03,
4303205,-0.01,-0.02,0.98,2.99,3.42,3.6,894.96,23.02,
4303255,-0.01,-0.02,0.97,3.23,3.3,3.72,895.0,23.01,
4303293,-0.01,-0.03,0.94,3.11,2.93,3.54,894.99,23.03,
4303332,-0.01,-0.03,0.96,3.11,2.99,3.54,894.98,23.03,
4303370,-0.0,-0.03,0.94,2.99,2.38,3.3,894.96,23.02,
4303408,-0.01,-0.02,0.96,3.11,1.65,3.42,894.95,23.03,
4303446,-0.01,-0.02,0.94,2.81,1.83,3.36,894.97,23.02,
4303485,-0.01,-0.02,0.95,3.05,1.46,3.3,895.0,23.03,
4303523,-0.01,-0.03,0.92,2.75,1.89,2.99,894.92,23.03,
4303561,-0.01,-0.03,0.92,3.05,1.95,2.99,895.03,23.03,
4303611,-0.01,-0.03,0.87,3.17,2.69,2.87,894.97,23.02,
4303649,-0.02,-0.03,0.87,3.54,2.32,2.75,894.99,23.02,
4303688,-0.02,-0.04,0.86,3.3,2.32,2.56,895.0,23.03,
4303726,-0.01,-0.04,0.85,3.05,2.56,2.56,895.03,23.03,
4303764,-0.01,-0.03,0.87,2.99,2.99,2.44,894.93,23.03,
4303802,-0.01,-0.03,0.87,2.5,2.99,2.38,895.01,23.04,
4303840,-0.01,-0.03,0.91,2.38,2.87,2.32,894.97,23.03,
4303879,-0.02,-0.04,0.9,2.26,2.87,2.32,894.98,23.03,
4303917,-0.02,-0.02,0.97,2.01,2.26,2.32,894.97,23.03,
4303955,-0.01,-0.03,0.97,1.59,2.62,2.32,894.95,23.03,
4304005,-0.01,-0.02,1.01,1.71,2.56,2.2,894.95,23.02,
4304043,-0.01,-0.02,1.04,1.46,2.75,2.26,894.93,23.03,
4304082,-0.02,-0.02,1.03,1.59,2.99,2.14,894.95,23.03,
4304120,-0.02,-0.01,1.05,1.59,3.17,2.2,894.95,23.04,
4304158,-0.01,-0.02,1.04,1.71,3.91,2.01,894.96,23.03,
4304196,-0.02,-0.02,1.04,1.71,4.03,1.95,894.96,23.04,
4304235,-0.02,-0.02,1.04,1.95,4.21,1.95,894.98,23.04,
4304273,-0.02,-0.02,1.03,1.77,4.15,1.83,895.01,23.04,
4304311,-0.02,-0.02,1.02,1.95,4.64,1.95,895.01,23.04,
4304349,-0.01,-0.03,0.99,1.71,4.7,1.95,895.0,23.03,
4304399,-0.03,-0.04,0.96,2.2,4.52,1.83,894.99,23.03,
4304438,-0.02,-0.04,0.93,2.69,4.52,1.83,895.01,23.04,
4304476,-0.0,-0.03,0.95,2.75,4.27,1.89,895.07,23.04,
4304514,-0.01,-0.04,0.89,2.75,4.46,1.83,895.01,23.03,
4304552,-0.02,-0.03,0.92,2.93,4.21,1.77,894.98,23.04,
4304591,0.0,-0.04,0.89,2.87,4.33,1.53,895.06,23.04,
4304629,-0.0,-0.04,0.89,2.81,3.72,1.53,895.02,23.04,
4304667,-0.01,-0.04,0.87,2.44,4.03,1.65,895.01,23.04,
4304705,-0.01,-0.04,0.87,2.01,3.91,1.4,895.0,23.03,
4304755,-0.01,-0.04,0.89,2.08,4.03,1.4,895.02,23.03,
4304794,-0.01,-0.04,0.9,1.65,3.23,1.34,895.01,23.03,
4304832,-0.0,-0.04,0.92,1.22,3.3,1.16,895.05,23.02,
4304870,-0.01,-0.03,0.95,1.16,3.36,1.16,895.03,23.04,
4304908,-0.02,-0.03,0.95,0.73,3.3,1.16,895.03,23.03,
4304947,-0.01,-0.03,0.98,0.67,3.48,1.04,894.98,23.03,
4304985,-0.01,-0.02,1.0,0.37,3.3,0.79,895.02,23.04,
4305023,-0.01,-0.02,1.01,0.18,3.11,0.85,895.03,23.03,
4305061,0.01,-0.02,1.05,0.18,2.99,0.67,895.0,23.02,
4305100,0.0,-0.02,1.07,0.12,2.62,0.55,895.04,23.03,
4305150,-0.02,-0.02,1.1,0.18,2.2,0.79,895.04,23.02,
4305188,-0.0,-0.02,1.1,0.55,1.83,0.49,895.05,23.02,
4305226,-0.01,-0.02,1.11,0.79,1.28,0.37,895.03,23.03,
4305264,-0.0,-0.02,1.09,0.79,1.4,0.37,895.05,23.03,
4305303,-0.0,-0.02,1.07,0.85,0.85,0.49,895.05,23.03,
4305341,-0.01,-0.02,1.08,1.16,0.79,0.31,895.04,23.02,
4305379,-0.01,-0.03,1.07,0.98,0.98,0.12,895.07,23.04,
4305417,-0.01,-0.03,1.08,1.16,0.67,0.0,895.07,23.03,
4305456,-0.01,-0.02,1.08,1.28,0.55,-0.06,895.1,23.03,
4305494,-0.01,-0.02,1.07,1.28,0.43,-0.12,895.07,23.03,
4305570,-0.01,-0.03,1.06,1.53,0.55,-0.43,895.07,23.01,
4305608,0.0,-0.03,1.03,1.59,0.43,-0.67,895.07,23.02,
4305646,-0.01,-0.03,0.98,1.59,-0.12,-0.67,895.11,23.02,
4305736,0.0,-0.04,1.0,1.46,-0.73,-0.92,895.1,22.99,
4305774,-0.02,-0.04,1.04,1.46,-1.22,-1.16,895.0,23.01,
4305813,-0.02,-0.04,1.01,1.22,-0.79,-1.04,895.06,23.0,
4305851,-0.02,-0.02,1.06,1.28,-1.53,-1.22,895.06,23.01,
4305889,-0.02,-0.03,1.05,1.1,-1.22,-1.34,895.04,23.02,
4305927,-0.03,-0.03,1.06,1.16,-1.34,-1.34,895.11,23.02,
4305977,-0.02,-0.03,1.05,1.1,-0.92,-1.4,895.01,23.0,
4306016,-0.03,-0.02,1.06,1.22,-0.73,-1.46,895.03,23.01,
4306054,-0.04,-0.02,1.1,1.16,0.55,-1.53,895.03,23.02,
4306092,-0.02,-0.03,1.12,1.16,1.34,-1.46,894.98,23.01,
4306130,-0.04,-0.03,1.14,1.22,2.01,-1.65,894.99,23.01,
4306169,-0.04,-0.02,1.1,1.16,2.99,-1.4,895.03,23.02,
4306207,-0.03,-0.01,1.12,1.22,3.48,-1.59,895.05,23.03,
4306245,-0.03,-0.02,1.1,1.34,4.15,-1.46,895.05,23.03,
4306283,-0.03,-0.02,1.1,1.4,4.15,-1.46,894.97,23.01,
4306321,-0.04,-0.03,1.08,1.4,4.76,-1.22,895.02,23.02,
4306371,-0.03,-0.02,1.09,1.53,4.52,-1.16,895.03,23.02,
4306410,-0.05,-0.02,1.07,1.4,5.19,-1.1,895.04,23.02,
4306448,-0.04,-0.04,1.04,1.34,4.7,-0.98,895.05,23.03,
4306486,-0.03,-0.04,1.0,1.46,4.76,-0.67,894.98,23.03,
4306524,-0.03,-0.03,0.98,1.46,4.58,-0.55,895.05,23.03,
4306563,-0.04,-0.04,0.97,1.59,4.76,-0.31,895.08,23.02,
4306601,-0.04,-0.04,0.94,1.46,4.58,-0.37,895.02,23.01,
4306639,-0.04,-0.04,0.99,1.4,4.94,-0.24,894.98,23.02,
4306677,-0.03,-0.04,1.0,1.16,5.43,-0.24,894.91,23.01,
4306727,-0.03,-0.02,1.03,0.85,5.43,-0.18,895.02,23.02,
4306766,-0.05,-0.02,1.08,0.67,6.04,-0.18,894.98,23.03,
4306804,-0.04,-0.03,1.1,0.49,6.1,-0.12,894.95,23.02,
4306842,-0.04,-0.02,1.11,0.43,5.55,0.0,895.03,23.02,
4306880,-0.05,-0.02,1.09,0.43,5.31,0.06,894.95,23.03,
4306919,-0.04,-0.02,1.1,0.67,5.37,0.31,894.99,23.04,
4306957,-0.02,-0.02,1.11,0.67,5.49,0.31,894.99,23.04,
4306995,-0.04,-0.02,1.14,0.92,4.52,0.43,894.89,23.02,
4307033,-0.05,-0.03,1.11,0.85,5.19,0.67,894.94,23.04,
4307071,-0.04,-0.03,1.15,1.16,4.76,0.61,894.94,23.03,
4307121,-0.04,-0.02,1.14,1.22,4.52,0.92,894.93,23.02,
4307160,-0.05,-0.02,1.13,1.53,4.09,0.85,894.89,23.03,
4307198,-0.04,-0.02,1.13,1.65,4.15,1.16,894.97,23.04,
4307236,-0.03,-0.02,1.12,1.53,3.17,1.34,894.93,23.02,
4307274,-0.05,-0.01,1.11,1.4,2.75,1.77,894.88,23.02,
4307313,-0.03,-0.03,1.14,1.46,2.75,1.65,894.92,23.03,
4307351,-0.04,-0.03,1.14,1.59,2.01,1.83,894.88,23.02,
4307389,-0.04,-0.03,1.11,1.46,1.53,1.95,894.88,23.03,
4307427,-0.03,-0.03,1.12,1.59,0.61,2.08,894.92,23.02,
4307477,-0.0,-0.02,1.07,1.65,0.61,2.2,894.89,23.02,
4307516,-0.03,-0.03,1.06,1.77,-0.55,2.32,894.87,23.02,
4307554,-0.04,-0.04,1.03,1.34,-0.49,2.14,894.87,23.02,
4307592,-0.04,-0.04,1.04,1.4,-1.04,2.14,894.91,23.03,
4307630,-0.03,-0.04,1.03,1.34,-0.37,2.32,894.89,23.03,
4307669,-0.03,-0.04,1.04,1.53,-0.85,2.14,894.88,23.03,
4307707,-0.04,-0.04,1.02,1.46,-0.43,2.26,894.91,23.04,
4307745,-0.04,-0.03,1.0,1.34,0.49,2.2,894.84,23.03,
4307783,-0.04,-0.04,1.01,1.22,1.34,2.2,894.86,23.03,
4307821,-0.03,-0.04,1.01,0.98,2.01,2.2,894.85,23.03,
4307871,-0.05,-0.04,1.0,0.98,3.6,2.32,894.83,23.02,
4307910,-0.04,-0.03,1.02,1.1,4.21,2.2,894.87,23.04,
4307948,-0.03,-0.04,1.02,0.98,4.46,2.38,894.87,23.03,
4307986,-0.03,-0.04,0.99,0.55,4.15,2.44,894.84,23.03,
4308024,-0.04,-0.04,1.0,0.55,4.21,2.32,894.89,23.04,
4308063,-0.03,-0.03,0.98,0.49,4.27,2.5,894.82,23.03,
4308101,-0.02,-0.03,1.0,0.24,3.3,2.62,894.83,23.04,
4308139,-0.02,-0.03,1.01,0.12,2.44,2.69,894.78,23.03,
4308177,-0.03,-0.04,0.99,0.0,2.2,2.5,894.8,23.03,
4308216,-0.03,-0.03,1.03,0.43,1.34,2.5,894.74,23.03,
4308266,-0.02,-0.04,1.02,0.43,0.85,2.69,894.74,23.02,
4308304,-0.06,-0.04,0.98,0.43,0.31,2.75,894.74,23.03,
4308342,-0.05,-0.03,0.96,0.24,0.85,2.93,894.74,23.02,
4308380,-0.04,-0.03,0.95,0.18,0.49,2.93,894.67,23.03,
4308419,-0.05,-0.03,0.96,0.31,0.24,3.05,894.72,23.02,
4308457,-0.06,-0.04,0.95,0.12,0.43,3.36,894.73,23.03,
4308495,-0.04,-0.04,1.0,0.24,1.46,3.23,894.76,23.03,
4308533,-0.04,-0.05,0.98,0.31,1.59,3.23,894.75,23.04,
4308572,-0.05,-0.03,0.96,0.67,1.59,3.3,894.76,23.04,
4308647,-0.04,-0.04,0.87,0.67,3.6,3.54,894.73,23.0,
4308686,-0.04,-0.04,0.84,0.49,4.39,3.48,894.67,23.02,
4308724,-0.05,-0.05,0.79,-0.06,4.27,3.54,894.68,23.02,
4308887,-0.04,-0.04,0.93,-0.98,6.53,3.05,894.65,22.95,
4308926,-0.04,-0.04,0.89,-0.85,6.41,3.23,894.61,22.96,
4308964,-0.03,-0.03,0.9,-0.49,5.92,3.36,894.6,22.97,
4309002,-0.06,-0.03,0.89,-0.18,5.68,3.36,894.59,22.98,
4309040,-0.07,-0.04,0.87,0.06,6.16,3.66,894.58,22.99,
4309079,-0.06,-0.04,0.87,0.43,5.98,3.72,894.65,23.0,
4309117,-0.06,-0.03,0.88,0.92,4.82,3.85,894.56,23.0,
4309167,-0.06,-0.03,0.88,1.4,5.0,4.21,894.63,22.99,
4309205,-0.05,-0.03,0.9,1.53,5.0,4.27,894.58,22.99,
4309243,-0.04,-0.03,0.93,1.89,4.39,4.52,894.63,23.01,
4309282,-0.06,-0.03,0.9,2.08,4.64,4.64,894.66,23.01,
4309320,-0.06,-0.02,0.92,2.44,4.58,4.64,894.68,23.02,
4309358,-0.05,-0.03,0.89,2.08,4.88,4.76,894.69,23.02,
4309396,-0.05,-0.02,0.92,2.44,4.46,4.76,894.58,23.01,
4309435,-0.05,-0.02,0.91,2.62,5.37,4.82,894.68,23.02,
4309473,-0.04,-0.03,0.91,2.56,6.16,4.88,894.66,23.03,
4309523,-0.04,-0.03,0.93,2.93,6.04,4.88,894.7,23.01,
4309561,-0.05,-0.03,0.91,3.11,5.74,4.94,894.72,23.01,
4309599,-0.04,-0.03,0.92,3.3,6.1,5.0,894.66,23.01,
4309638,-0.03,-0.02,0.89,3.05,5.86,4.88,894.65,23.02,
4309676,-0.03,-0.02,0.89,3.42,5.0,5.07,894.69,23.02,
4309714,-0.03,-0.03,0.84,2.99,5.49,5.19,894.66,23.02,
4309752,-0.02,-0.03,0.9,2.81,4.33,5.25,894.7,23.02,
4309791,-0.01,-0.03,0.88,2.38,4.33,5.19,894.7,23.02,
4309829,-0.03,-0.02,0.89,2.38,3.3,5.13,894.65,23.02,
4309867,-0.01,-0.03,0.91,2.26,2.5,5.19,894.7,23.03,
4309917,-0.01,-0.02,0.94,2.5,1.53,5.07,894.71,23.02,
4309955,-0.01,-0.02,0.95,2.69,1.04,5.13,894.69,23.03,
4309994,-0.02,-0.02,0.94,2.81,0.43,5.19,894.69,23.02,
4310032,-0.01,-0.02,0.97,3.36,0.12,5.0,894.7,23.02,
4310070,-0.01,-0.02,0.94,3.42,-0.06,5.0,894.75,23.03,
4310108,-0.01,-0.02,0.95,3.78,-0.85,4.76,894.75,23.04,
4310147,-0.01,-0.02,0.93,3.78,-1.1,4.64,894.7,23.03,
4310185,-0.01,-0.02,0.94,3.85,-1.16,4.7,894.78,23.04,
4310223,-0.01,-0.01,0.95,3.91,-1.53,4.58,894.7,23.03,
4310261,-0.01,-0.01,0.97,4.09,-1.65,4.52,894.71,23.03,
4310311,-0.01,-0.02,0.97,4.27,-0.98,4.09,894.71,23.02,
4310349,-0.01,-0.01,0.97,4.52,-0.67,4.03,894.71,23.02,
4310388,-0.01,-0.01,0.96,4.64,-0.24,3.85,894.7,23.02,
4310426,-0.01,-0.01,0.96,4.94,0.06,3.78,894.75,23.03,
4310464,-0.0,-0.01,0.98,5.07,0.24,3.66,894.69,23.02,
4310502,-0.02,-0.01,0.94,4.94,0.55,3.54,894.71,23.03,
4310541,-0.01,-0.01,0.98,5.07,1.16,3.36,894.77,23.03,
4310579,0.0,-0.02,0.94,4.94,1.46,3.6,894.75,23.04,
4310617,-0.0,-0.02,0.94,5.25,1.71,3.17,894.78,23.03,
4310667,0.0,-0.03,0.84,4.76,2.56,3.05,894.76,23.02,
4310705,0.0,-0.02,0.85,4.76,2.87,2.87,894.74,23.02,
4310744,0.01,-0.03,0.81,4.33,3.23,2.75,894.77,23.03,
4310782,-0.0,-0.02,0.82,3.85,2.62,2.69,894.74,23.03,
4310820,-0.01,-0.03,0.85,3.36,2.87,2.5,894.73,23.03,
4310858,-0.0,-0.03,0.9,3.17,2.38,2.69,894.71,23.03,
4310897,0.0,-0.03,0.91,2.62,2.38,2.44,894.72,23.03,
4310935,-0.01,-0.02,0.96,2.81,2.01,2.14,894.71,23.02,
4310973,0.0,-0.03,0.9,2.5,3.23,2.01,894.75,23.02,
4311011,-0.01,-0.01,0.94,2.56,2.26,2.01,894.74,23.04,
4311061,-0.0,-0.02,0.89,2.01,3.17,2.01,894.76,23.01,
4311099,-0.0,-0.01,0.93,2.2,2.56,1.77,894.71,23.02,
4311138,0.0,-0.03,0.93,1.71,2.99,1.71,894.72,23.02,
4311176,-0.01,-0.03,0.96,1.83,2.26,1.77,894.75,23.03,
4311214,-0.01,-0.02,0.94,1.77,2.62,1.65,894.74,23.03,
4311252,-0.01,-0.01,0.94,1.95,2.69,1.4,894.76,23.03,
4311291,-0.01,-0.01,0.93,1.83,2.56,1.46,894.72,23.03,
4311329,-0.02,-0.02,0.93,1.77,2.81,1.28,894.74,23.02,
4311367,-0.02,-0.02,0.95,1.59,3.3,1.22,894.76,23.02,
4311405,-0.01,-0.02,0.94,1.46,3.54,1.22,894.79,23.04,
4311455,-0.02,-0.01,0.97,1.53,3.66,1.4,894.76,23.01,
4311494,-0.02,-0.02,0.94,1.34,4.33,1.22,894.73,23.02,
4311532,-0.02,-0.01,0.95,1.46,4.82,1.1,894.76,23.03,
4311570,-0.02,-0.01,0.96,1.59,5.0,1.1,894.83,23.03,
4311608,-0.02,-0.01,0.98,1.65,5.25,1.04,894.77,23.03,
4311647,-0.02,-0.01,0.98,1.65,5.8,1.1,894.82,23.02,
4311685,-0.01,-0.0,1.0,1.53,6.23,0.98,894.78,23.03,
4311723,-0.03,-0.0,1.01,1.53,6.47,1.28,894.76,23.03,
4311761,-0.03,-0.0,1.03,1.83,6.96,0.98,894.83,23.04,
4311837,-0.02,0.0,1.03,2.62,7.02,1.22,894.77,23.0,
4311876,-0.03,0.0,1.01,2.81,7.02,1.22,894.85,23.01,
4311914,-0.02,-0.0,0.99,3.05,6.84,1.22,894.78,23.01,
4312004,-0.02,-0.01,1.0,2.99,6.71,1.4,894.78,22.98,
4312042,-0.02,-0.01,1.02,2.99,6.59,1.53,894.8,22.99,
4312080,-0.02,0.0,1.04,2.87,6.29,1.4,894.74,23.01,
4312118,-0.02,0.01,1.06,2.81,5.49,1.59,894.77,23.01,
4312157,-0.02,0.01,1.06,2.69,5.13,1.59,894.82,23.0,
4312195,-0.03,0.02,1.1,2.87,4.94,1.53,894.85,23.01,
4312233,-0.01,0.01,1.08,2.5,5.0,1.46,894.8,23.03,
4312283,-0.03,0.02,1.16,2.87,4.46,1.22,894.77,23.0,
4312321,-0.02,0.01,1.12,2.26,5.19,1.16,894.86,23.01,
4312360,-0.02,0.02,1.15,2.26,4.52,1.16,894.85,23.02,
4312398,-0.02,0.01,1.08,2.32,5.07,1.22,894.86,23.01,
4312436,-0.02,0.01,1.04,2.32,4.39,1.04,894.83,23.01,
4312474,-0.01,0.01,1.04,2.26,4.52,1.04,894.85,23.02,
4312513,-0.01,-0.0,1.0,2.32,4.03,1.16,894.93,23.02,
4312551,-0.02,-0.01,0.99,2.5,3.42,0.92,894.83,23.02,
4312589,-0.02,-0.01,0.98,2.2,3.3,1.04,894.85,23.02,
4312627,-0.01,-0.01,1.0,2.08,3.3,1.04,894.93,23.02,
4312677,-0.02,-0.01,0.98,2.44,3.3,0.92,894.86,23.01,
4312716,-0.01,-0.02,0.96,2.14,3.23,0.67,894.87,23.01,
4312754,-0.01,-0.01,0.98,2.14,3.17,0.73,894.95,23.03,
4312792,-0.01,-0.02,0.92,2.14,2.99,0.61,894.9,23.02,
4312830,-0.02,-0.03,0.92,2.38,3.48,0.49,894.89,23.03,
4312869,-0.0,-0.03,0.89,2.14,3.54,0.55,894.89,23.01,
4312907,-0.01,-0.02,0.91,2.2,2.01,0.37,894.85,23.02,
4312945,-0.02,-0.03,0.89,2.14,2.14,0.43,894.92,23.02,
4312983,-0.01,-0.02,0.9,1.77,1.95,0.49,894.96,23.03,
4313022,-0.01,-0.02,0.93,1.59,1.53,0.37,894.88,23.03,
4313072,-0.01,-0.03,0.95,1.22,1.34,0.24,894.92,23.02,
4313110,-0.0,-0.02,0.97,0.73,1.16,0.12,894.87,23.02,
4313148,-0.01,-0.01,1.01,0.73,0.92,0.18,894.94,23.02,
4313186,-0.01,-0.01,1.01,0.55,0.92,-0.06,894.88,23.02,
4313225,-0.01,-0.01,1.03,0.61,0.61,-0.18,894.88,23.03,
4313263,-0.01,-0.02,1.03,0.85,1.22,-0.12,894.85,23.01,
4313301,-0.0,-0.01,1.04,0.55,1.28,-0.31,894.88,23.02,
4313339,-0.01,-0.01,1.06,0.55,1.46,-0.24,894.9,23.02,
4313377,-0.01,-0.01,1.05,0.73,1.46,-0.49,894.91,23.03,
4313427,-0.01,-0.01,1.05,0.61,2.01,-0.67,894.87,23.01,
4313466,-0.0,-0.0,1.08,0.49,1.77,-0.79,894.9,23.02,
4313504,-0.01,-0.01,1.09,0.55,1.77,-0.85,894.89,23.01,
4313542,-0.02,-0.01,1.08,0.43,1.77,-0.73,894.89,23.02,
4313580,-0.02,-0.01,1.1,0.43,2.2,-1.16,894.89,23.03,
4313619,-0.02,-0.02,1.09,0.55,2.44,-1.22,894.93,23.02,
4313657,-0.02,-0.01,1.08,0.37,2.87,-1.28,894.9,23.02,
4313695,-0.01,-0.01,1.06,0.61,3.05,-1.28,894.89,23.03,
4313733,-0.01,-0.01,1.07,0.61,2.99,-1.53,894.96,23.02,
4313771,-0.02,-0.01,1.03,0.37,3.54,-1.59,894.91,23.02,
4313821,-0.03,-0.01,1.07,0.73,3.54,-1.65,894.86,23.01,
4313860,-0.02,-0.01,1.05,0.85,3.54,-1.71,894.88,23.02,
4313898,-0.02,-0.01,1.07,0.85,3.66,-1.71,894.9,23.02,
4313936,-0.03,-0.02,1.05,1.1,4.46,-1.83,894.9,23.03,
4313974,-0.02,-0.01,1.04,1.34,4.15,-1.77,894.88,23.03,
4314013,-0.03,-0.01,1.04,1.53,4.52,-2.01,894.95,23.03,
4314051,-0.03,-0.01,1.02,1.71,4.58,-1.83,894.93,23.03,
4314089,-0.04,-0.02,1.04,1.71,4.88,-1.83,894.93,23.03,
4314127,-0.03,-0.02,1.02,1.77,4.7,-1.95,894.88,23.02,
4314177,-0.04,-0.01,1.01,2.01,4.64,-1.65,894.86,23.01,
4314216,-0.03,-0.02,1.0,1.95,4.52,-1.65,894.95,23.02,
4314254,-0.02,-0.01,1.0,2.38,3.78,-1.65,894.91,23.02,
4314292,-0.03,-0.02,0.95,2.32,3.6,-1.46,894.86,23.02,
4314330,-0.03,-0.02,0.94,2.44,2.26,-1.4,894.88,23.02,
4314369,-0.03,-0.03,0.91,2.32,2.38,-1.28,894.89,23.02,
4314407,-0.04,-0.02,0.91,2.38,1.1,-1.16,894.9,23.02,
4314445,-0.04,-0.03,0.92,2.69,1.22,-1.1,894.85,23.03,
4314483,-0.02,-0.03,0.9,2.38,1.04,-1.28,894.9,23.02,
4314522,-0.03,-0.02,0.93,2.5,0.98,-1.28,894.88,23.02,
4314572,-0.02,-0.03,0.88,1.83,0.98,-1.28,894.92,23.01,
4314610,-0.03,-0.03,0.9,1.89,0.98,-1.16,894.93,23.01,
4314648,-0.02,-0.02,0.94,1.71,0.18,-1.16,894.94,23.02,
4314686,-0.04,-0.02,0.94,1.77,0.06,-1.04,894.87,23.02,
4314725,-0.03,-0.02,0.95,1.65,-0.18,-0.98,894.89,23.02,
4314763,-0.03,-0.02,0.97,1.89,-0.67,-0.92,894.94,23.03,
4314801,-0.03,-0.02,0.95,1.77,-0.49,-0.92,894.9,23.02,
4314839,-0.04,-0.02,0.95,1.71,-0.37,-0.92,894.95,23.02,
4314878,-0.03,-0.01,0.97,1.65,-0.12,-1.04,894.96,23.03,
4314954,-0.04,-0.02,0.97,1.95,-0.67,-0.79,894.95,23.0,
4314992,-0.03,-0.03,0.99,2.2,-0.31,-0.85,894.89,23.0,
4315030,-0.03,-0.02,0.96,2.2,0.12,-0.85,894.88,23.01,
4315120,-0.04,-0.02,0.93,2.32,0.43,-0.73,894.89,22.98,
4315158,-0.03,-0.02,0.94,2.69,0.49,-0.67,894.92,22.99,
4315196,-0.05,-0.03,0.92,2.56,0.55,-0.55,894.96,23.01,
4315235,-0.05,-0.01,0.96,2.81,0.24,-0.37,894.96,23.0,
4315273,-0.04,-0.03,0.95,2.38,0.73,-0.43,894.94,23.0,
4315311,-0.04,-0.02,0.96,2.26,0.55,-0.18,894.91,23.01,
4315361,-0.05,-0.03,0.97,2.01,1.83,0.0,894.89,23.0,
4315399,-0.05,-0.03,0.92,2.38,2.01,-0.06,894.96,23.0,
4315437,-0.05,-0.02,0.94,2.56,2.75,0.12,894.93,23.0,
4315476,-0.04,-0.03,0.91,2.56,2.99,0.12,895.01,23.0,
4315514,-0.05,-0.03,0.91,2.81,3.11,0.18,894.96,23.01,
4315552,-0.05,-0.03,0.9,2.56,4.03,0.37,895.01,23.01,
4315590,-0.04,-0.02,0.97,3.17,3.78,0.37,894.93,23.01,
4315629,-0.05,-0.03,0.91,2.81,4.09,0.67,894.98,23.02,
4315667,-0.05,-0.03,0.96,2.99,3.48,0.79,894.97,23.01,
4315705,-0.03,-0.03,0.96,2.81,4.58,0.55,894.94,23.03,
4315755,-0.03,-0.03,0.95,2.93,3.97,0.98,894.97,23.01,
4315793,-0.05,-0.03,0.87,2.69,4.64,0.92,895.01,23.02,
4315832,-0.04,-0.02,0.9,2.93,4.21,1.04,894.98,23.01,
4315870,-0.04,-0.04,0.89,2.87,4.88,1.1,894.99,23.02,
4315908,-0.04,-0.03,0.88,2.69,4.21,1.28,895.01,23.01,
4315946,-0.03,-0.02,0.9,2.62,4.58,1.22,894.98,23.03,
4315985,-0.03,-0.03,0.89,2.38,4.64,1.46,894.98,23.03,
4316023,-0.04,-0.04,0.87,2.01,4.15,1.53,895.0,23.02,
4316061,-0.04,-0.03,0.92,1.83,3.85,1.65,895.05,23.03,
4316099,-0.04,-0.04,0.9,1.4,4.21,1.4,894.97,23.01,
4316149,-0.04,-0.02,0.92,1.65,3.11,1.89,895.04,23.03,
4316188,-0.04,-0.03,0.92,0.98,3.66,2.01,895.0,23.02,
4316226,-0.03,-0.03,0.93,0.79,2.99,2.01,894.98,23.03,
4316264,-0.05,-0.03,0.94,0.73,3.48,1.95,895.01,23.02,
4316302,-0.04,-0.02,0.96,0.67,2.93,2.38,895.06,23.03,
4316341,-0.04,-0.03,0.96,0.61,2.81,2.32,895.04,23.02,
4316379,-0.05,-0.02,0.98,0.55,2.44,2.44,895.02,23.02,
4316417,-0.04,-0.03,1.0,0.67,2.5,2.93,895.07,23.02,
4316455,-0.02,-0.01,1.02,0.79,2.26,2.93,895.04,23.03,
4316505,-0.05,-0.01,1.01,1.04,2.26,3.17,895.03,23.01,
4316544,-0.04,-0.02,1.0,0.85,2.32,3.11,894.99,23.01,
4316582,-0.02,-0.02,1.02,0.98,2.14,3.11,895.11,23.02,
4316620,-0.03,-0.03,0.99,0.98,2.44,3.05,895.06,23.02,
4316658,-0.03,-0.02,0.98,1.34,2.14,3.17,895.07,23.02,
4316696,-0.02,-0.03,0.94,1.4,2.62,2.93,895.09,23.02,
4316735,-0.02,-0.02,0.94,1.34,2.44,2.81,895.13,23.03,
4316773,-0.02,-0.03,0.94,1.83,2.75,2.87,895.12,23.03,
4316811,-0.03,-0.03,0.92,1.77,3.23,2.87,895.09,23.02,
4316849,-0.02,-0.02,0.97,1.71,2.93,2.87,895.07,23.02,
4316899,-0.03,-0.03,0.95,1.53,3.48,2.93,895.17,23.02,
4316938,-0.01,-0.03,0.97,1.71,3.17,2.69,895.15,23.01,
4316976,-0.01,-0.04,0.99,1.89,3.42,2.69,895.14,23.02,
4317014,-0.02,-0.03,0.94,1.89,2.93,2.62,895.15,23.01,
4317052,-0.02,-0.03,0.94,1.89,2.93,2.62,895.22,23.02,
4317090,-0.03,-0.04,0.9,1.59,3.05,2.56,895.17,23.03,
4317129,-0.02,-0.03,0.91,1.46,2.38,2.5,895.14,23.03,
4317167,-0.02,-0.03,0.9,0.98,2.62,2.44,895.14,23.02,
4317205,-0.02,-0.03,0.92,1.16,2.81,2.38,895.2,23.03,
4317243,-0.02,-0.03,0.93,0.61,3.17,2.26,895.2,23.01,
4317293,-0.04,-0.03,0.97,0.49,2.69,2.32,895.16,23.01,
4317332,-0.03,-0.03,0.95,0.24,3.23,2.5,895.23,23.02,
4317370,-0.03,-0.01,1.0,0.55,1.77,2.32,895.14,23.01,
4317408,-0.02,-0.02,0.98,0.43,2.08,2.44,895.19,23.02,
4317446,-0.04,-0.02,0.95,0.06,1.65,2.62,895.25,23.02,
4317484,-0.04,-0.02,1.01,0.49,1.46,2.75,895.25,23.02,
4317523,-0.02,-0.03,1.02,0.31,1.1,2.69,895.23,23.03,
4317561,-0.04,-0.03,1.04,0.73,0.73,2.87,895.19,23.02,
4317599,-0.03,-0.02,1.03,0.55,1.46,2.87,895.2,23.02,
4317649,-0.01,-0.02,1.05,0.85,1.22,2.69,895.23,23.01,
4317687,-0.02,-0.01,1.04,1.1,1.1,2.69,895.2,23.01,
4317726,-0.02,-0.02,1.04,1.53,1.34,2.62,895.28,23.01,
4317764,-0.01,-0.03,1.01,1.4,2.2,2.56,895.3,23.03,
4317802,-0.03,-0.02,1.02,1.59,1.77,2.56,895.29,23.03,
4317840,-0.03,-0.02,1.05,1.95,1.71,2.69,895.26,23.01,
4317878,-0.02,-0.03,1.02,1.83,2.32,2.5,895.29,23.03,
4317917,-0.02,-0.02,1.06,2.01,2.62,2.5,895.39,23.03,
4317955,-0.02,-0.03,1.05,2.2,2.93,2.62,895.39,23.03,
4317993,-0.02,-0.03,1.04,2.26,2.5,2.5,895.33,23.03,
4318069,-0.01,-0.02,1.0,2.26,3.78,2.44,895.31,23.0,
4318107,-0.01,-0.04,1.0,1.95,3.85,2.5,895.29,23.0,
4318146,-0.02,-0.03,1.02,2.26,3.85,2.38,895.31,23.01,
4318235,-0.01,-0.02,1.07,2.56,4.03,2.32,895.31,22.97,
4318274,-0.02,-0.03,1.07,2.75,3.66,2.32,895.33,23.0,
4318312,0.0,-0.03,1.05,2.5,3.97,2.32,895.4,23.0,
4318350,-0.0,-0.03,1.04,2.44,4.09,2.32,895.42,23.01,
4318388,-0.01,-0.03,0.99,2.2,3.17,2.26,895.36,23.0,
4318427,-0.01,-0.04,0.99,2.56,3.11,2.14,895.36,23.0,
4318465,-0.0,-0.04,0.95,2.08,3.91,1.83,895.39,23.01,
4318515,-0.0,-0.03,1.01,2.56,3.05,1.77,895.38,23.0,
4318553,-0.0,-0.03,0.95,2.2,3.6,1.53,895.37,23.01,
4318591,-0.01,-0.02,0.96,2.38,4.03,1.59,895.34,22.99,
4318630,0.0,-0.02,0.95,2.08,4.52,1.46,895.41,23.01,
4318668,-0.0,-0.03,0.94,2.2,4.27,1.46,895.4,23.01,
4318706,-0.0,-0.04,0.93,2.2,5.13,1.22,895.4,23.02,
4318744,-0.0,-0.03,0.92,2.08,5.25,0.92,895.49,23.01,
4318783,0.01,-0.03,0.94,2.2,5.37,0.98,895.4,23.01,
4318821,-0.01,-0.01,0.89,2.2,5.31,0.79,895.47,23.02,
4318871,-0.01,-0.03,0.96,2.56,5.0,0.79,895.47,23.01,
4318909,-0.0,-0.04,0.95,2.32,3.78,0.98,895.46,23.01,
4318947,-0.01,-0.03,0.97,2.69,2.99,0.73,895.45,23.0,
4318986,0.0,-0.03,0.98,2.2,2.81,0.85,895.4,23.01,
4319024,-0.0,-0.04,0.99,2.62,2.69,0.92,895.5,23.02,
4319062,0.0,-0.02,0.94,1.83,2.08,0.92,895.46,23.01,
4319100,-0.02,-0.0,1.03,2.32,0.92,0.92,895.41,23.01,
4319139,-0.01,-0.02,0.98,1.34,1.83,0.85,895.43,23.01,
4319177,0.0,0.0,1.1,1.65,0.79,0.92,895.44,23.02,
4319215,-0.0,-0.01,1.09,0.98,2.2,0.92,895.46,23.02,
4319265,-0.01,0.0,1.09,1.04,2.08,0.61,895.46,23.01,
4319303,0.01,0.0,1.16,0.61,3.66,0.49,895.48,23.01,
4319342,-0.01,0.0,1.14,0.49,3.97,0.31,895.45,23.01,
4319380,-0.03,0.02,1.19,0.43,4.82,0.18,895.48,23.0,
4319418,-0.01,0.01,1.19,0.73,5.86,0.0,895.44,23.01,
4319456,-0.0,0.03,1.24,0.55,6.04,-0.06,895.51,23.02,
4319494,0.0,0.03,1.29,0.61,6.65,0.0,895.43,23.02,
4319533,-0.01,0.03,1.29,0.61,6.71,-0.06,895.51,23.03,
4319571,-0.0,0.02,1.32,1.1,7.02,-0.24,895.49,23.02,
4319609,-0.01,0.03,1.29,1.28,6.71,-0.24,895.47,23.02,
4319659,-0.01,0.03,1.3,1.59,6.9,-0.06,895.49,23.02,
4319697,-0.01,0.03,1.25,1.83,6.29,-0.24,895.47,23.01,
4319736,-0.02,0.02,1.25,2.01,7.02,-0.31,895.48,23.02,
4319774,0.01,0.0,1.18,2.32,5.8,-0.24,895.5,23.01,
4319812,-0.01,0.01,1.22,2.99,4.94,-0.06,895.46,23.01,
4319850,0.01,-0.01,1.13,2.75,5.8,-0.12,895.51,23.03,
4319888,-0.0,0.01,1.19,3.05,4.15,-0.18,895.52,23.02,
4319927,-0.0,-0.01,1.13,2.93,5.13,-0.18,895.49,23.01,
4319965,0.0,-0.0,1.13,3.17,4.09,-0.49,895.54,23.01,
4320003,0.0,-0.0,1.14,2.44,4.58,-0.55,895.5,23.02,
4320053,0.02,-0.01,1.14,2.44,3.91,-0.79,895.45,23.01,
4320091,0.0,-0.01,1.12,2.08,4.33,-0.85,895.53,23.01,
4320130,-0.01,-0.01,1.11,2.14,3.85,-0.92,895.51,23.02,
4320168,0.01,-0.01,1.12,1.95,4.33,-0.85,895.47,23.01,
4320206,0.01,-0.02,1.11,1.89,3.48,-1.22,895.5,23.03,
4320244,-0.0,-0.02,1.09,2.14,2.62,-1.04,895.47,23.02,
4320283,0.01,-0.04,1.07,2.26,2.14,-1.04,895.51,23.02,
4320321,0.01,-0.04,1.08,2.2,1.65,-1.34,895.5,23.02,
4320359,0.0,-0.03,1.04,2.01,1.34,-1.22,895.5,23.02,
4320409,-0.0,-0.04,0.99,2.14,1.34,-1.4,895.51,23.02,
4320447,-0.01,-0.04,0.98,1.89,1.16,-1.53,895.51,23.02,
4320486,-0.0,-0.05,0.99,1.46,0.61,-1.59,895.46,23.02,
4320524,-0.0,-0.06,0.94,1.16,1.04,-1.71,895.48,23.01,
4320562,-0.0,-0.04,0.98,0.79,0.79,-1.89,895.44,23.02,
4320600,-0.01,-0.05,0.96,0.12,1.53,-1.71,895.56,23.02,
4320639,0.02,-0.06,0.94,0.0,1.04,-2.01,895.51,23.02,
4320677,-0.01,-0.05,0.95,-0.18,1.59,-2.14,895.51,23.01,
4320715,-0.01,-0.05,0.92,-0.06,1.71,-2.01,895.48,23.01,
4320753,0.0,-0.04,0.9,-0.43,1.34,-2.44,895.49,23.02,
4320803,-0.01,-0.05,0.92,-0.67,1.89,-2.2,895.52,23.01,
4320842,0.0,-0.05,0.94,-0.98,1.28,-2.56,895.49,23.01,
4320880,0.0,-0.05,0.97,-0.85,0.67,-2.62,895.49,23.02,
4320918,-0.0,-0.04,0.94,-1.22,0.31,-2.62,895.5,23.01,
4320956,-0.01,-0.04,0.97,-0.79,-0.31,-2.69,895.52,23.02,
4320995,-0.01,-0.05,0.93,-1.22,0.12,-2.69,895.52,23.03,
4321033,-0.01,-0.04,0.96,-0.73,-0.61,-3.05,895.49,23.02,
4321071,-0.02,-0.05,0.93,-1.1,0.12,-2.87,895.54,23.03,
4321109,-0.03,-0.05,0.9,-0.98,0.43,-2.93,895.51,23.03,
4321185,-0.03,-0.04,0.91,-0.67,1.22,-3.17,895.54,22.99,
4321224,-0.02,-0.04,0.92,-0.67,1.53,-3.23,895.49,23.01,
4321262,-0.04,-0.04,0.95,-0.61,2.69,-3.05,895.5,23.01,
4321352,-0.03,-0.03,1.03,-0.55,4.27,-3.42,895.45,22.96,
4321390,-0.04,-0.03,1.05,-0.31,4.33,-3.23,895.46,23.0,
4321428,-0.05,-0.03,1.04,-0.24,4.33,-3.23,895.45,23.0,
4321466,-0.03,-0.03,1.06,-0.18,4.27,-2.93,895.43,22.99,
4321505,-0.04,-0.02,1.08,0.06,3.66,-2.81,895.4,23.0,
4321543,-0.05,-0.03,1.07,0.61,2.81,-2.5,895.44,23.0,
4321593,-0.04,-0.04,1.03,0.55,2.5,-2.44,895.38,22.99,
4321631,-0.06,-0.03,1.02,0.92,1.83,-2.32,895.38,23.0,
4321669,-0.06,-0.04,0.94,0.85,1.77,-2.08,895.37,22.99,
4321708,-0.06,-0.03,0.95,1.16,1.46,-1.95,895.41,22.99,
4321746,-0.07,-0.05,0.9,1.22,2.26,-1.83,895.42,23.0,
4321784,-0.06,-0.05,0.92,1.53,1.83,-1.83,895.37,22.99,
4321822,-0.06,-0.04,0.94,1.4,2.2,-1.65,895.42,22.99,
4321861,-0.08,-0.03,0.93,1.34,2.2,-1.28,895.38,23.01,
4321899,-0.06,-0.02,0.98,1.28,2.2,-1.1,895.36,22.98,
4321937,-0.06,-0.03,1.05,0.92,2.5,-1.16,895.34,22.99,
4321987,-0.07,-0.03,1.07,0.43,2.62,-0.49,895.34,22.98,
4322025,-0.07,-0.02,1.13,1.04,2.75,-0.37,895.36,22.98,
4322064,-0.05,-0.03,1.07,0.92,3.91,-0.24,895.38,22.99,
4322102,-0.06,-0.02,1.08,1.28,3.05,0.0,895.42,22.99,
4322140,-0.06,-0.03,1.02,1.22,3.6,0.18,895.43,23.0,
4322178,-0.06,-0.03,1.0,2.01,2.99,0.31,895.34,23.0,
4322217,-0.06,-0.04,0.97,2.14,3.3,0.55,895.41,23.0,
4322255,-0.07,-0.05,0.96,2.75,2.69,0.55,895.38,23.0,
4322293,-0.04,-0.04,0.92,3.05,2.5,0.55,895.36,23.0,
4322343,-0.04,-0.05,0.87,3.6,3.11,0.67,895.37,22.99,
4322381,-0.06,-0.05,0.85,3.48,3.91,0.67,895.38,23.0,
4322420,-0.06,-0.05,0.86,3.48,3.72,0.67,895.41,22.99,
4322458,-0.07,-0.05,0.83,3.42,4.64,0.79,895.37,23.0,
4322496,-0.06,-0.05,0.84,3.54,5.0,0.79,895.37,22.99,
4322534,-0.06,-0.05,0.87,3.48,5.19,1.04,895.33,23.0,
4322573,-0.05,-0.05,0.82,2.93,5.92,1.1,895.38,23.0,
4322611,-0.06,-0.04,0.9,2.69,5.8,1.16,895.34,23.01,
4322649,-0.05,-0.04,0.93,2.08,6.65,1.53,895.3,23.0,
4322687,-0.05,-0.04,0.91,1.95,6.59,1.59,895.31,23.0,
4322737,-0.06,-0.04,1.0,1.83,6.65,1.65,895.33,22.99,
4322776,-0.05,-0.04,0.98,1.16,6.47,1.89,895.38,23.0,
4322814,-0.03,-0.02,1.07,1.89,5.86,1.89,895.36,23.0,
4322852,-0.04,-0.03,1.03,1.1,6.23,2.08,895.34,23.01,
4322890,-0.05,-0.02,1.08,1.4,4.15,2.56,895.35,23.0,
4322929,-0.04,-0.03,1.09,1.65,4.15,2.75,895.32,23.01,
4322967,-0.03,-0.04,1.06,1.46,3.05,2.62,895.32,23.01,
4323005,-0.03,-0.02,1.05,1.46,2.01,2.75,895.37,23.02,
4323043,-0.04,-0.01,1.06,1.28,1.22,3.05,895.42,23.01,
4323082,-0.01,-0.02,1.12,1.53,0.37,2.62,895.31,23.02,
4323132,-0.05,-0.02,1.1,0.79,-0.18,2.87,895.26,22.99,
4323170,-0.04,-0.01,1.21,0.98,-0.49,2.81,895.33,23.02,
4323208,-0.03,-0.02,1.17,0.43,-0.06,2.69,895.26,23.0,
4323246,-0.06,0.01,1.27,1.04,-1.71,2.75,895.26,23.02,
4323285,-0.04,-0.01,1.26,0.98,0.0,2.87,895.28,23.02,
4323323,-0.04,0.01,1.24,0.61,-0.31,2.62,895.26,23.03,
4323361,-0.07,0.02,1.36,1.71,0.12,2.62,895.3,23.01,
4323399,-0.07,-0.02,1.2,0.92,1.71,2.81,895.26,23.02,
4323438,-0.05,0.0,1.33,1.71,0.79,2.62,895.32,23.01,
4323488,-0.05,-0.01,1.21,1.83,2.32,2.87,895.31,22.99,
4323526,-0.05,-0.01,1.18,2.5,1.65,2.81,895.37,23.01,
4323564,-0.05,-0.02,1.12,2.38,2.87,2.81,895.3,23.01,
4323602,-0.04,-0.02,1.11,2.93,2.38,3.05,895.27,23.01,
4323641,-0.04,-0.03,1.09,2.93,3.3,3.05,895.31,23.01,
4323679,-0.03,-0.03,1.08,3.48,3.05,2.99,895.31,23.01,
4323717,-0.04,-0.04,1.04,3.42,3.54,2.87,895.36,23.01,
4323755,-0.04,-0.04,1.0,3.36,3.42,2.99,895.34,23.01,
4323794,-0.02,-0.04,0.99,3.42,3.78,3.05,895.33,23.01,
4323832,-0.03,-0.05,0.93,3.05,4.39,2.99,895.31,23.01,
4323882,-0.03,-0.04,0.9,3.23,4.03,3.11,895.36,23.01,
4323920,-0.03,-0.05,0.88,2.81,4.21,2.69,895.37,23.01,
4323958,-0.02,-0.05,0.89,2.87,3.72,3.17,895.32,23.0,
4323997,-0.03,-0.05,0.92,2.69,3.48,2.87,895.32,23.01,
4324035,-0.02,-0.05,0.91,2.38,3.6,2.81,895.29,23.01,
4324073,-0.03,-0.04,0.92,2.32,3.11,2.93,895.35,23.01,
4324111,-0.03,-0.04,0.9,1.77,2.5,2.99,895.3,23.01,
4324150,-0.02,-0.05,0.9,1.83,1.95,3.05,895.29,23.0,
4324188,-0.02,-0.05,0.91,1.77,1.22,2.99,895.28,23.01,
4324226,-0.02,-0.04,0.9,1.46,0.43,2.93,895.26,23.02,
4324302,-0.03,-0.05,0.93,0.98,-0.92,3.11,895.27,22.98,
4324340,-0.03,-0.03,0.97,1.04,-1.59,2.93,895.24,22.99,
4324379,-0.03,-0.03,1.0,1.1,-0.98,2.99,895.27,22.99,
4324468,-0.04,-0.02,1.03,0.73,-0.55,2.69,895.22,22.97,
4324507,-0.04,-0.02,1.04,0.79,0.67,2.75,895.26,22.97,
4324545,-0.02,-0.02,1.08,0.67,0.79,2.5,895.24,22.99,
4324583,-0.03,-0.02,1.1,0.67,1.28,2.44,895.23,22.99,
4324622,-0.03,-0.02,1.08,0.92,2.44,2.14,895.24,22.98,
4324660,-0.02,-0.03,1.05,1.04,3.17,2.08,895.22,22.99,
4324710,-0.04,-0.02,1.05,1.28,3.05,2.44,895.22,22.97,
4324748,-0.04,-0.02,1.02,1.46,3.6,2.32,895.25,22.99,
4324786,-0.03,-0.03,1.02,1.46,3.6,2.14,895.22,23.0,
4324825,-0.03,-0.03,1.02,1.59,3.17,2.2,895.2,22.99,
4324863,-0.04,-0.02,1.02,1.65,2.38,2.44,895.17,22.99,
4324901,-0.03,-0.03,1.02,1.65,3.05,2.26,895.17,23.0,
4324939,-0.02,-0.02,1.03,1.53,2.81,2.56,895.17,22.99,
4324978,-0.03,-0.02,1.02,1.59,2.32,2.56,895.2,23.01,
4325016,-0.04,-0.02,1.0,1.34,2.44,2.44,895.2,23.01,
4325054,-0.02,-0.03,1.0,1.34,2.5,2.69,895.17,23.01,
4325104,-0.03,-0.03,0.98,1.46,2.08,2.93,895.16,22.99,
4325142,-0.03,-0.03,1.0,1.46,1.59,2.93,895.16,23.0,
4325181,-0.03,-0.03,0.98,1.34,1.22,2.81,895.13,23.0,
4325219,-0.03,-0.02,0.97,1.34,0.49,2.93,895.09,23.0,
4325257,-0.02,-0.02,0.97,1.34,0.55,2.75,895.14,23.0,
4325295,-0.03,-0.02,0.96,1.34,0.06,2.99,895.09,22.99,
4325334,-0.02,-0.02,0.99,1.46,0.06,2.99,895.14,23.01,
4325372,-0.02,-0.02,1.01,1.53,0.31,2.87,895.14,23.01,
4325410,-0.03,-0.02,1.02,1.53,0.12,3.05,895.19,23.01,
4325448,-0.03,-0.02,1.01,1.65,0.06,2.99,895.1,23.01,
4325498,-0.02,-0.02,1.03,2.2,0.61,3.05,895.09,22.99,
4325537,-0.01,-0.03,1.02,2.32,0.73,2.75,895.1,23.0,
4325575,-0.02,-0.02,0.99,2.62,0.85,2.75,895.14,23.01,
4325613,-0.02,-0.02,1.0,2.87,1.22,2.62,895.09,23.0,
4325651,-0.02,-0.02,0.99,3.05,1.4,2.5,895.11,23.0,
4325690,-0.02,-0.02,1.0,3.05,1.22,2.44,895.1,23.01,
4325728,-0.02,-0.03,0.99,3.11,1.34,2.44,895.12,23.0,
4325766,-0.02,-0.03,0.97,3.17,1.22,2.2,895.11,23.01,
4325804,-0.02,-0.02,0.95,2.99,2.2,2.01,895.11,23.0,
4325854,-0.01,-0.02,0.96,3.23,2.5,2.08,895.11,23.0,
4325893,-0.03,-0.03,0.91,2.93,2.5,2.14,895.07,23.01,
4325931,-0.04,-0.03,0.92,3.42,2.26,1.89,895.1,23.0,
4325969,-0.02,-0.03,0.88,3.3,2.99,1.77,895.1,23.01,
4326007,-0.02,-0.02,0.89,3.66,2.56,1.65,895.05,23.0,
4326046,-0.01,-0.03,0.89,3.23,3.42,1.71,895.09,23.0,
4326084,-0.03,-0.03,0.9,3.54,3.72,1.65,895.06,23.01,
4326122,-0.02,-0.03,0.91,3.3,4.27,1.53,895.03,23.0,
4326160,-0.03,-0.02,0.9,2.99,4.52,1.34,895.06,23.02,
4326199,-0.03,-0.02,0.94,2.87,4.39,1.16,895.1,23.03,
4326249,-0.02,-0.02,0.98,2.75,4.33,1.16,895.02,22.99,
4326287,-0.02,-0.02,0.98,2.62,4.27,1.28,895.0,23.0,
4326325,-0.02,-0.02,0.99,2.69,4.27,1.4,895.04,23.01,
4326363,-0.04,-0.02,0.96,2.62,4.52,1.4,895.0,23.01,
4326402,-0.03,-0.02,0.96,2.81,4.03,1.53,895.0,23.01,
4326440,-0.03,-0.02,0.96,2.62,3.91,1.53,895.02,23.02,
4326478,-0.03,-0.03,0.92,2.62,3.91,1.77,895.09,23.02,
4326516,-0.02,-0.02,0.94,2.5,3.3,1.77,894.96,23.0,
4326554,-0.03,-0.02,0.91,2.44,3.11,1.89,894.99,23.01,
4326593,-0.03,-0.02,0.92,2.38,2.62,2.01,894.97,23.01,
4326643,-0.03,-0.03,0.9,2.26,2.5,2.14,895.01,23.0,
4326681,-0.03,-0.03,0.92,2.14,2.26,1.83,894.98,23.0,
4326719,-0.02,-0.03,0.95,2.14,1.77,2.08,894.99,23.01,
4326757,-0.03,-0.02,0.94,1.89,1.89,2.01,894.93,23.01,
4326796,-0.02,-0.01,0.98,1.46,1.53,2.08,895.01,23.01,
4326834,-0.02,-0.02,0.99,1.59,1.53,2.14,894.99,23.01,
4326872,-0.03,-0.03,0.95,1.53,1.22,2.14,895.05,23.02,
4326910,-0.02,-0.01,1.0,2.08,0.79,1.95,894.95,23.01,
4326949,-0.01,-0.02,0.95,1.95,1.34,2.08,895.01,23.01,
4326999,-0.03,-0.02,0.96,2.2,0.43,2.14,894.96,23.0,
4327037,-0.03,-0.03,0.91,2.32,1.65,2.14,895.0,23.01,
4327075,-0.02,-0.02,0.92,2.26,1.04,2.08,894.95,23.01,
4327113,-0.02,-0.02,0.93,2.5,1.22,2.01,895.01,23.0,
4327151,-0.03,-0.03,0.89,2.44,1.53,2.01,894.96,23.01,
4327190,-0.02,-0.03,0.91,2.69,1.89,2.01,894.99,23.01,
4327228,-0.02,-0.03,0.9,2.44,1.89,1.83,894.99,23.01,
4327266,-0.04,-0.03,0.9,2.69,1.46,1.95,894.99,23.01,
4327304,-0.03,-0.03,0.88,2.44,2.32,1.89,895.03,23.02,
4327343,-0.02,-0.02,0.9,2.75,2.38,1.83,894.98,23.01,
4327419,-0.02,-0.03,0.9,2.93,2.2,2.01,895.02,22.98,
4327457,-0.03,-0.02,0.92,2.81,2.56,1.95,895.02,22.99,
4327495,-0.02,-0.03,0.92,2.81,2.32,2.14,895.02,22.99,
4327585,-0.02,-0.04,0.89,2.87,3.05,1.95,895.0,22.95,
4327623,-0.01,-0.02,0.91,2.93,2.81,2.01,894.99,22.98,
4327661,-0.01,-0.02,0.89,3.05,3.05,1.89,895.0,22.99,
4327699,-0.02,-0.03,0.87,3.05,3.05,1.83,895.01,22.98,
4327738,-0.01,-0.03,0.9,3.11,3.85,1.83,894.98,22.98,
4327776,-0.01,-0.04,0.88,2.81,3.85,1.89,894.98,23.0,
4327814,-0.03,-0.02,0.9,3.42,3.36,1.95,894.99,22.99,
4327864,-0.02,-0.03,0.88,2.93,4.15,1.77,895.0,22.97,
4327902,-0.0,-0.03,0.92,2.99,3.72,1.65,894.94,22.99,
4327941,-0.01,-0.03,0.89,2.56,3.78,1.71,894.99,22.99,
4327979,-0.01,-0.02,0.89,2.5,3.66,1.59,894.99,23.01,
4328017,-0.01,-0.02,0.91,2.14,4.15,1.53,894.97,23.0,
4328055,-0.01,-0.02,0.91,2.08,4.09,1.46,894.99,23.0,
4328094,-0.01,-0.02,0.97,2.32,3.78,1.46,894.96,23.01,
4328132,-0.0,-0.03,0.93,2.2,4.39,1.34,894.99,23.0,
4328170,-0.01,-0.02,0.98,2.2,3.91,1.53,894.99,23.0,
4328220,-0.01,-0.02,0.98,2.26,3.72,1.28,894.97,23.0,
4328258,-0.02,-0.03,0.97,2.5,4.27,1.34,894.98,23.0,
4328297,-0.01,-0.03,0.96,2.32,4.33,1.34,894.91,22.98,
4328335,-0.01,-0.01,0.96,2.62,4.27,1.16,895.04,23.0,
4328373,-0.02,-0.01,0.93,2.5,4.58,1.22,894.98,23.0,
4328411,-0.01,-0.02,0.96,2.81,4.33,1.1,894.92,23.0,
4328450,-0.01,-0.02,0.97,2.81,4.46,1.28,894.95,23.0,
4328488,-0.01,-0.01,1.0,3.11,3.66,1.04,894.97,23.0,
4328526,-0.02,-0.02,0.98,3.11,3.48,1.22,895.0,23.0,
4328564,-0.02,-0.01,1.0,3.42,3.11,0.98,894.95,23.0,
4328614,-0.02,-0.01,1.0,3.3,3.54,1.16,895.05,23.0,
4328653,-0.01,-0.02,0.99,3.3,2.93,0.98,895.02,23.0,
4328691,-0.03,-0.02,0.96,3.42,3.17,1.16,895.0,23.0,
4328729,-0.03,-0.03,0.91,3.48,3.3,1.22,895.04,23.0,
4328767,-0.01,-0.02,0.91,3.42,2.81,1.28,894.97,22.99,
4328806,-0.03,-0.03,0.88,3.3,2.62,1.28,894.97,23.0,
4328844,-0.03,-0.03,0.88,3.17,2.62,1.46,895.03,23.01,
4328882,-0.02,-0.03,0.9,3.23,2.69,1.16,894.99,23.01,
4328920,-0.02,-0.04,0.89,3.23,2.69,1.22,895.03,23.02,
4328959,-0.02,-0.03,0.91,3.11,2.5,0.98,894.96,23.0,
4329009,-0.02,-0.04,0.9,3.05,3.3,0.92,895.02,23.0,
4329047,-0.02,-0.03,0.89,2.81,3.72,0.79,895.05,23.0,
4329085,-0.02,-0.04,0.89,2.75,4.58,0.73,895.01,23.0,
4329123,-0.03,-0.04,0.85,2.38,4.76,0.73,894.99,23.0,
4329162,-0.03,-0.03,0.91,2.5,4.21,0.61,895.0,23.0,
4329200,-0.02,-0.04,0.88,2.01,5.07,0.61,895.01,23.0,
4329238,-0.01,-0.03,0.9,1.89,4.82,0.61,895.05,23.0,
4329276,-0.02,-0.04,0.89,1.83,4.33,0.79,895.06,23.01,
4329315,-0.03,-0.04,0.89,1.71,3.17,0.92,895.07,23.02,
4329365,-0.0,-0.03,0.89,1.28,2.69,0.92,895.06,22.99,
4329403,-0.01,-0.04,0.9,1.04,1.71,0.98,895.11,22.99,
4329441,-0.03,-0.04,0.87,0.79,1.28,0.92,895.09,23.01,
4329479,-0.01,-0.03,0.91,0.73,0.31,0.92,895.12,23.0,
4329518,-0.01,-0.04,0.9,0.31,0.49,0.98,895.05,22.99,
4329556,-0.02,-0.03,0.93,0.49,-1.1,0.98,895.08,23.01,
4329594,-0.03,-0.03,0.93,0.67,-0.37,0.67,895.09,23.01,
4329632,-0.02,-0.03,0.94,0.49,-0.12,0.79,895.07,23.0,
4329671,-0.0,-0.03,0.97,0.67,-0.12,0.67,895.09,23.01,
4329709,-0.01,-0.02,0.96,0.55,0.06,0.67,895.1,23.0,
4329759,-0.03,-0.02,0.98,0.61,0.79,0.49,895.08,22.98,
4329797,-0.02,-0.03,0.99,0.43,1.16,0.24,895.12,22.99,
4329835,-0.0,-0.02,1.03,0.85,1.04,0.24,895.11,23.0,
4329874,-0.03,-0.02,0.98,0.67,1.71,0.24,895.13,22.99,
4329912,-0.02,-0.01,1.0,0.92,1.95,0.31,895.13,23.0,
4329950,-0.02,-0.02,0.99,0.79,2.87,0.18,895.15,22.99,
4329988,-0.02,-0.02,0.99,0.92,2.62,0.06,895.15,23.0,
4330027,-0.02,-0.02,1.0,1.16,2.87,0.06,895.15,23.01,
4330065,-0.02,-0.02,0.97,1.28,2.93,0.06,895.11,23.0,
4330103,-0.02,-0.02,0.98,1.28,2.87,0.12,895.16,23.01,
4330153,-0.02,-0.02,0.95,1.22,3.3,0.06,895.17,22.97,
4330191,-0.02,-0.02,0.98,1.28,2.93,0.12,895.2,22.99,
4330230,-0.03,-0.02,0.97,1.4,3.48,0.0,895.13,23.0,
4330268,-0.02,-0.02,0.98,1.4,3.3,0.06,895.15,22.99,
4330306,-0.02,-0.02,0.99,1.46,3.23,0.12,895.19,23.0,
4330344,-0.03,-0.02,0.97,1.4,3.54,0.12,895.16,23.0,
4330383,-0.03,-0.01,0.97,1.46,3.66,0.0,895.21,23.0,
4330421,-0.02,-0.02,0.97,1.4,4.27,-0.06,895.17,22.99,
4330459,-0.02,-0.01,0.97,1.34,4.27,-0.06,895.23,23.01,
4330536,-0.03,-0.02,0.96,1.59,4.76,0.12,895.2,22.98,
4330575,-0.02,-0.02,0.99,1.89,4.46,0.0,895.2,22.98,
4330613,-0.02,-0.01,0.98,1.46,4.82,0.0,895.18,22.98,
4330703,-0.03,-0.02,1.02,1.65,3.91,0.18,895.2,22.95,
4330741,-0.03,-0.0,1.05,1.83,3.6,0.12,895.18,22.96,
4330779,-0.03,-0.01,1.01,1.65,3.05,0.12,895.22,22.98,
4330817,-0.03,-0.01,1.05,1.83,2.5,0.18,895.17,22.98,
4330856,-0.03,-0.02,1.01,1.71,2.99,0.24,895.19,22.99,
4330894,-0.04,-0.01,1.02,2.2,2.14,0.37,895.29,22.98,
4330932,-0.04,-0.01,0.98,2.26,2.14,0.43,895.25,22.98,
4330982,-0.04,-0.01,1.01,2.81,1.1,0.61,895.18,22.98,
4331020,-0.04,-0.02,0.97,2.62,1.4,0.67,895.18,22.98,
4331058,-0.03,-0.01,1.0,2.38,0.79,0.67,895.26,22.99,
4331097,-0.03,-0.0,1.05,2.38,1.65,0.55,895.22,22.99,
4331135,-0.03,-0.01,1.05,2.14,1.95,0.55,895.24,22.99,
4331173,-0.04,0.01,1.12,2.26,1.28,0.73,895.23,22.99,
4331211,-0.04,-0.01,1.12,2.08,2.26,0.73,895.23,23.0,
4331250,-0.03,-0.0,1.12,2.08,2.2,0.61,895.27,22.99,
4331288,-0.04,0.0,1.12,2.26,2.38,0.55,895.26,23.0,
4331326,-0.03,0.0,1.11,2.5,2.38,0.61,895.26,22.99,
4331376,-0.03,-0.01,1.05,2.62,3.48,0.55,895.26,22.98,
4331414,-0.04,-0.01,1.05,2.75,3.36,0.67,895.22,22.99,
4331453,-0.04,-0.01,1.04,2.99,3.48,0.55,895.27,22.99,
4331491,-0.04,-0.02,1.01,2.81,3.54,0.61,895.32,23.01,
4331529,-0.04,-0.02,1.02,2.93,3.48,0.67,895.27,22.98,
4331567,-0.04,-0.02,1.0,2.87,2.99,0.73,895.31,23.0,
4331606,-0.03,-0.01,1.02,3.05,2.56,0.92,895.27,23.01,
4331644,-0.03,-0.02,0.98,2.81,2.87,0.79,895.31,23.0,
4331682,-0.03,-0.03,0.97,2.75,2.81,0.98,895.36,23.01,
4331732,-0.04,-0.04,0.94,2.81,2.99,0.92,895.28,22.99,
4331770,-0.05,-0.03,0.88,2.87,3.11,0.98,895.35,23.0,
4331808,-0.04,-0.03,0.9,3.05,3.6,0.92,895.29,22.99,
4331847,-0.03,-0.03,0.92,2.81,3.91,0.73,895.33,23.0,
4331885,-0.04,-0.03,0.88,2.81,4.27,0.92,895.33,22.99,
4331923,-0.04,-0.03,0.91,2.62,4.39,0.92,895.33,23.01,
4331961,-0.04,-0.03,0.92,2.26,4.76,0.85,895.33,23.0,
4332000,-0.03,-0.03,0.93,2.08,4.76,0.73,895.33,22.99,
4332038,-0.02,-0.04,0.94,1.95,5.37,0.79,895.36,23.01,
4332076,-0.04,-0.03,0.92,1.46,5.43,0.98,895.35,23.01,
4332126,-0.04,-0.03,0.96,1.4,5.31,0.92,895.35,22.99,
4332164,-0.03,-0.03,0.95,1.28,5.19,0.85,895.36,22.99,
4332203,-0.04,-0.02,0.97,1.46,4.64,0.92,895.37,22.98,
4332241,-0.03,-0.02,0.98,1.46,4.39,0.98,895.32,23.0,
4332279,-0.04,-0.03,0.99,1.71,3.97,0.98,895.35,23.01,
4332317,-0.03,-0.03,0.99,1.46,4.03,1.04,895.38,23.0,
4332356,-0.03,-0.02,0.98,1.77,3.36,1.04,895.4,23.01,
4332394,-0.04,-0.02,0.99,1.77,3.3,1.34,895.4,23.0,
4332432,-0.04,-0.03,0.96,1.65,2.99,1.16,895.41,23.0,
4332470,-0.04,-0.03,0.98,1.83,2.75,1.16,895.37,23.0,
4332520,-0.03,-0.02,0.98,1.83,3.17,1.16,895.42,22.99,
4332559,-0.04,-0.02,1.01,2.01,3.05,1.1,895.48,22.99,
4332597,-0.04,-0.02,1.01,1.83,3.36,1.16,895.4,22.99,
4332635,-0.03,-0.02,1.03,2.08,3.11,1.16,895.45,22.99,
4332673,-0.03,-0.02,1.04,1.89,3.05,1.04,895.44,22.99,
4332712,-0.04,-0.01,1.04,1.83,2.56,1.1,895.46,23.0,
4332750,-0.03,-0.02,1.06,1.83,3.23,1.28,895.4,22.99,
4332788,-0.03,-0.02,1.04,1.89,2.93,1.22,895.46,23.0,
4332826,-0.04,-0.02,1.05,2.14,3.42,1.04,895.46,22.99,
4332876,-0.04,-0.02,1.04,2.38,3.05,1.28,895.42,22.98,
4332915,-0.04,-0.02,1.05,2.32,3.6,1.16,895.46,23.0,
4332953,-0.04,-0.02,1.04,2.32,3.42,1.22,895.42,22.99,
4332991,-0.04,-0.02,1.04,2.2,3.66,1.28,895.47,23.01,
4333029,-0.04,-0.02,1.03,2.01,3.48,1.34,895.46,22.99,
4333068,-0.04,-0.02,1.06,1.89,3.11,1.46,895.43,23.01,
4333106,-0.03,-0.02,1.07,1.77,3.05,1.4,895.48,23.0,
4333144,-0.03,-0.02,1.07,1.95,2.81,1.4,895.47,23.0,
4333182,-0.03,-0.02,1.09,2.01,2.62,1.4,895.46,23.01,
4333221,-0.04,-0.02,1.07,2.08,2.26,1.34,895.47,22.99,
4333271,-0.04,-0.02,1.07,2.14,1.65,1.46,895.48,22.99,
4333309,-0.04,-0.03,1.05,2.32,1.22,1.34,895.45,23.0,
4333347,-0.05,-0.02,1.03,2.2,0.79,1.34,895.48,23.0,
4333385,-0.04,-0.02,1.03,2.32,0.55,1.46,895.47,22.99,
4333424,-0.03,-0.02,1.04,2.44,0.37,1.4,895.45,23.0,
4333462,-0.04,-0.03,1.04,2.5,0.06,1.34,895.48,23.0,
4333500,-0.04,-0.03,1.02,2.56,0.0,1.53,895.54,23.01,
4333538,-0.04,-0.03,1.02,2.75,-0.61,1.46,895.56,23.0,
4333577,-0.04,-0.03,1.0,2.56,-0.55,1.28,895.5,23.01,
4333652,-0.04,-0.04,0.99,2.93,-0.61,1.46,895.53,22.97,
4333691,-0.04,-0.04,0.98,2.99,-1.22,1.4,895.53,22.99,
4333729,-0.04,-0.03,0.95,3.05,-1.16,1.46,895.56,22.99,
4333819,-0.04,-0.04,0.94,3.36,-1.4,1.4,895.51,22.96,
4333857,-0.03,-0.04,0.94,3.42,-1.65,1.4,895.51,22.96,
4333895,-0.04,-0.04,0.93,3.36,-1.34,1.28,895.53,22.97,
4333933,-0.04,-0.04,0.91,3.54,-1.4,1.28,895.55,22.98,
4333972,-0.05,-0.04,0.92,3.54,-1.16,1.34,895.55,22.97,
4334010,-0.04,-0.04,0.9,3.6,-0.98,1.4,895.55,22.98,
4334048,-0.05,-0.04,0.9,3.48,-0.92,1.34,895.56,22.99,
4334098,-0.05,-0.04,0.88,3.6,-0.43,1.46,895.55,22.98,
4334136,-0.05,-0.04,0.89,3.6,-0.06,1.4,895.54,22.98,
4334175,-0.04,-0.04,0.88,3.6,0.37,1.53,895.5,22.98,
4334213,-0.04,-0.04,0.89,3.6,0.49,1.4,895.53,23.0,
4334251,-0.04,-0.04,0.87,3.54,0.67,1.4,895.6,22.98,
4334289,-0.05,-0.04,0.87,3.54,0.55,1.59,895.6,22.99,
4334327,-0.04,-0.04,0.88,3.72,0.55,1.77,895.67,22.99,
4334366,-0.04,-0.05,0.85,3.54,0.61,1.71,895.61,22.99,
4334404,-0.05,-0.05,0.85,3.6,0.49,1.71,895.65,23.0,
4334442,-0.05,-0.05,0.84,3.48,0.67,1.83,895.62,22.99,
4334492,-0.04,-0.05,0.84,3.42,0.61,1.95,895.63,22.98,
4334530,-0.04,-0.05,0.83,3.3,0.37,1.95,895.67,22.99,
4334569,-0.05,-0.05,0.81,3.11,0.55,2.2,895.66,22.99,
4334607,-0.04,-0.05,0.83,3.11,0.67,2.14,895.68,22.99,
4334645,-0.03,-0.05,0.82,2.87,0.61,2.38,895.65,23.0,
4334683,-0.04,-0.05,0.83,2.69,0.31,2.14,895.66,23.0,
4334722,-0.05,-0.06,0.83,2.56,0.43,2.14,895.69,23.01,
4334760,-0.04,-0.05,0.84,2.44,0.43,2.26,895.69,23.0,
4334798,-0.04,-0.05,0.84,2.2,0.55,2.56,895.71,22.99,
4334848,-0.04,-0.05,0.86,2.01,0.43,2.56,895.69,22.99,
4334886,-0.04,-0.05,0.85,1.83,0.67,2.56,895.75,23.0,
4334924,-0.04,-0.05,0.87,1.89,0.61,2.5,895.72,23.0,
4334963,-0.04,-0.05,0.88,1.46,0.79,2.62,895.74,22.99,
4335001,-0.04,-0.05,0.88,1.77,0.61,2.62,895.71,22.99,
4335039,-0.04,-0.05,0.89,1.53,0.92,2.69,895.75,23.0,
4335077,-0.04,-0.04,0.9,1.71,0.24,2.75,895.82,23.0,
4335116,-0.03,-0.05,0.91,1.77,0.31,2.87,895.81,23.0,
4335154,-0.03,-0.05,0.92,1.83,0.12,2.81,895.84,23.0,
4335192,-0.04,-0.04,0.92,1.77,0.31,2.93,895.81,23.01,
4335242,-0.04,-0.04,0.95,1.95,0.18,2.87,895.84,23.0,
4335280,-0.03,-0.05,0.94,1.89,0.12,2.81,895.88,23.0,
4335319,-0.04,-0.04,0.98,2.2,-0.24,3.05,895.88,23.0,
4335357,-0.03,-0.04,0.99,2.44,-0.18,2.99,895.87,23.01,
4335395,-0.03,-0.04,0.99,2.56,-0.49,2.93,895.87,22.99,
4335433,-0.03,-0.04,0.99,2.75,0.0,3.05,895.93,23.01,
4335472,-0.02,-0.04,0.99,2.99,-0.06,2.99,895.9,22.99,
4335510,-0.04,-0.04,0.97,2.62,0.0,3.05,895.9,22.99,
4335548,-0.03,-0.04,1.0,2.99,0.06,3.05,895.84,23.0,
4335598,-0.03,-0.04,0.97,2.99,0.55,3.05,895.93,22.99,
4335636,-0.03,-0.03,1.02,3.11,-0.12,2.99,895.9,22.98,
4335675,-0.03,-0.05,1.04,3.05,0.49,3.11,895.91,22.99,
4335713,-0.04,-0.05,0.99,3.11,0.92,3.11,896.02,23.01,
4335751,-0.03,-0.04,1.0,3.36,1.89,2.99,895.98,22.99,
4335789,-0.04,-0.05,0.96,3.48,2.38,3.05,896.0,22.99,
4335828,-0.03,-0.05,0.9,3.48,2.62,2.87,896.02,22.99,
4335866,-0.03,-0.05,0.88,3.6,3.85,2.75,896.03,22.99,
4335904,-0.03,-0.06,0.89,3.66,4.15,2.69,895.99,22.98,
4335942,-0.03,-0.06,0.86,3.36,3.97,2.87,896.0,22.97,
4335992,-0.05,-0.06,0.83,2.99,4.94,2.81,895.97,22.97,
4336030,-0.03,-0.06,0.85,2.99,4.82,2.81,896.05,22.98,
4336069,-0.04,-0.06,0.83,2.38,4.7,2.87,895.99,22.98,
4336107,-0.04,-0.06,0.89,2.5,4.52,2.93,896.02,22.98,
4336145,-0.04,-0.06,0.85,1.83,5.55,3.23,896.02,22.98,
4336183,-0.04,-0.06,0.91,1.89,5.13,3.23,896.11,23.01,
4336222,-0.04,-0.07,0.9,1.4,5.8,3.48,896.07,22.99,
4336260,-0.05,-0.07,0.88,1.04,4.82,3.42,896.1,22.99,
4336298,-0.04,-0.06,0.94,1.28,4.03,3.72,896.06,22.98,
4336336,-0.03,-0.06,0.92,0.67,4.15,3.78,896.07,22.98,
4336386,-0.04,-0.06,0.94,0.43,3.85,4.15,896.13,22.99,
4336425,-0.03,-0.05,0.95,-0.06,3.3,4.27,896.12,22.98,
4336463,-0.04,-0.06,0.99,-0.06,3.66,4.15,896.15,22.98,
4336501,-0.03,-0.06,1.01,-0.31,4.52,4.15,896.16,22.99,
4336539,-0.04,-0.06,1.03,-0.43,4.33,4.33,896.21,22.99,
4336578,-0.04,-0.05,1.0,-0.73,4.46,4.46,896.21,23.01,
4336616,-0.04,-0.05,1.0,-0.37,4.03,4.58,896.18,22.99,
4336654,-0.03,-0.06,0.97,-0.55,4.09,4.7,896.22,22.99,
4336692,-0.03,-0.05,0.99,-0.31,2.99,4.64,896.21,23.0,
4336768,-0.03,-0.06,1.02,-0.55,3.17,4.76,896.29,22.96,
4336807,-0.03,-0.06,1.07,-0.92,3.05,4.94,896.29,22.99,
4336845,-0.03,-0.06,1.08,-0.85,2.69,4.94,896.3,22.98,
4336935,-0.02,-0.05,1.12,-1.1,2.56,5.13,896.32,22.95,
4336973,-0.01,-0.05,1.13,-1.16,2.32,5.0,896.31,22.96,
4337011,-0.02,-0.05,1.15,-1.1,2.38,4.94,896.35,22.96,
4337050,-0.02,-0.05,1.21,-1.22,2.56,5.07,896.37,22.98,
4337088,-0.03,-0.04,1.23,-1.1,2.38,5.19,896.37,22.98,
4337126,-0.01,-0.05,1.23,-1.34,2.38,4.94,896.44,22.97,
4337164,-0.02,-0.05,1.24,-1.1,2.26,4.82,896.42,22.98,
4337214,-0.0,-0.05,1.23,-1.04,3.11,4.76,896.41,22.96,
4337253,-0.01,-0.04,1.23,-0.79,2.81,4.64,896.43,22.97,
4337291,-0.02,-0.05,1.22,-0.67,2.99,4.64,896.5,22.98,
4337329,-0.02,-0.05,1.2,-0.61,3.3,4.52,896.48,22.98,
4337367,-0.01,-0.05,1.22,-0.31,3.17,4.39,896.49,22.98,
4337406,-0.02,-0.05,1.19,-0.18,3.36,4.33,896.47,22.98,
4337444,-0.01,-0.05,1.18,-0.12,2.99,4.33,896.48,22.98,
4337482,-0.01,-0.05,1.18,0.06,3.3,4.33,896.51,22.99,
4337520,-0.01,-0.06,1.17,0.18,3.42,4.15,896.51,22.99,
4337570,-0.02,-0.06,1.14,0.0,2.99,4.33,896.52,22.97,
4337609,-0.01,-0.06,1.16,0.18,2.75,4.09,896.51,22.98,
4337647,-0.01,-0.06,1.12,0.24,2.69,4.03,896.58,22.99,
4337685,-0.01,-0.05,1.14,0.31,2.26,4.15,896.58,22.99,
4337723,-0.01,-0.06,1.11,0.18,2.99,4.03,896.57,22.98,
4337762,-0.01,-0.06,1.13,0.37,2.38,3.85,896.57,23.0,
4337800,-0.02,-0.06,1.12,0.06,2.75,3.91,896.56,22.99,
4337838,-0.01,-0.06,1.13,0.06,2.56,3.66,896.57,22.98,
4337876,-0.01,-0.06,1.12,-0.12,2.62,3.54,896.64,22.99,
4337915,-0.01,-0.03,1.13,0.0,2.32,3.66,896.51,22.98,
4337965,-0.02,-0.06,1.14,-0.12,2.75,3.54,896.64,22.99,
4338003,-0.01,-0.06,1.13,-0.18,2.69,3.42,896.55,22.98,
4338041,-0.01,-0.06,1.12,-0.18,2.56,3.36,896.6,22.97,
4338079,-0.01,-0.06,1.12,-0.24,2.75,3.3,896.55,22.97,
4338118,-0.01,-0.06,1.12,-0.37,2.62,3.17,896.62,22.98,
4338156,-0.0,-0.06,1.13,-0.12,2.5,3.3,896.53,22.99,
4338194,-0.01,-0.06,1.1,-0.37,2.62,3.11,896.62,22.97,
4338232,-0.01,-0.06,1.1,-0.49,2.5,3.17,896.61,22.99,
4338270,-0.01,-0.07,1.08,-0.55,2.62,2.87,896.64,22.99,
4338320,-0.01,-0.07,1.08,-0.61,2.75,2.87,896.57,22.96,
4338359,-0.02,-0.06,1.08,-0.55,3.42,2.87,896.61,22.97,
4338397,0.0,-0.07,1.08,-0.55,3.11,2.69,896.6,22.98,
4338435,-0.01,-0.07,1.1,-0.67,2.99,2.87,896.63,22.99,
4338473,-0.01,-0.08,1.09,-0.49,3.23,2.93,896.62,22.98,
4338512,-0.0,-0.07,1.1,-0.49,3.05,2.81,896.64,22.99,
4338550,-0.01,-0.06,1.11,-0.49,2.69,2.81,896.65,22.98,
4338588,-0.01,-0.06,1.08,-0.61,2.69,2.62,896.63,22.98,
4338626,-0.0,-0.06,1.13,-0.37,2.14,2.56,896.65,22.97,
4338665,-0.0,-0.08,1.07,-0.31,2.14,2.44,896.67,22.98,
4338715,-0.02,-0.07,1.12,0.12,1.46,2.44,896.64,22.95,
4338753,-0.0,-0.07,1.07,0.06,1.95,2.26,896.67,22.97,
4338791,-0.01,-0.06,1.11,0.98,1.46,2.38,896.66,22.98,
4338829,-0.02,-0.08,1.06,0.55,2.56,2.2,896.6,22.97,
4338868,-0.01,-0.07,1.08,0.61,1.95,2.14,896.66,22.99,
4338906,-0.01,-0.06,1.07,0.24,3.05,2.14,896.7,22.98,
4338944,-0.02,-0.07,1.07,0.55,2.62,2.2,896.61,22.98,
4338982,-0.01,-0.07,1.1,0.49,3.05,2.08,896.64,22.98,
4339021,-0.01,-0.07,1.12,0.55,2.62,2.01,896.67,22.98,
4339059,-0.01,-0.07,1.14,0.61,2.75,2.08,896.65,22.98,
4339109,-0.0,-0.07,1.13,0.61,3.05,1.77,896.64,22.96,
4339147,-0.01,-0.06,1.15,0.49,3.17,1.83,896.62,22.97,
4339185,-0.01,-0.07,1.12,0.61,3.17,1.89,896.62,22.97,
4339224,-0.02,-0.07,1.12,0.79,3.11,1.83,896.61,22.98,
4339262,-0.0,-0.07,1.11,0.73,2.87,1.89,896.62,22.98,
4339300,-0.01,-0.07,1.12,1.1,2.26,1.83,896.63,22.99,
4339338,-0.02,-0.07,1.11,0.85,2.14,2.01,896.67,22.99,
4339377,-0.0,-0.07,1.1,0.85,2.44,1.95,896.64,22.99,
4339415,-0.0,-0.07,1.1,0.92,2.2,1.65,896.63,22.97,
4339465,-0.02,-0.07,1.08,1.04,2.14,1.83,896.64,22.98,
4339503,-0.0,-0.07,1.05,1.04,2.75,1.65,896.63,22.97,
4339541,-0.01,-0.07,1.07,0.98,2.14,1.46,896.65,22.98,
4339580,-0.01,-0.07,1.07,1.16,2.44,1.65,896.58,22.97,
4339618,-0.01,-0.08,1.03,1.1,2.81,1.53,896.55,22.98,
4339656,-0.02,-0.07,1.04,0.92,2.93,1.46,896.62,22.98,
4339694,-0.02,-0.07,1.07,1.1,3.42,1.4,896.57,22.97,
4339733,-0.02,-0.08,1.03,1.16,3.17,1.34,896.58,22.97,
4339771,-0.01,-0.07,1.07,1.46,2.5,1.28,896.62,22.98,
4339809,-0.01,-0.07,1.03,1.22,3.11,1.28,896.67,22.98,
4339885,-0.02,-0.07,1.0,1.28,4.21,1.16,896.63,22.95,
4339923,-0.01,-0.07,1.02,0.92,4.03,1.1,896.52,22.95,
4339962,-0.01,-0.08,1.0,0.49,4.52,1.22,896.54,22.96,
4340052,-0.02,-0.07,1.02,-0.43,5.8,1.22,896.59,22.94,
4340090,-0.02,-0.07,1.06,-0.37,5.37,0.92,896.57,22.94,
4340128,-0.03,-0.08,1.04,-0.79,5.86,1.04,896.52,22.95,
4340166,-0.01,-0.06,1.08,-0.73,5.55,1.1,896.52,22.95,
4340205,-0.03,-0.07,1.1,-0.79,6.04,1.22,896.56,22.95,
4340243,-0.01,-0.07,1.13,-0.55,6.04,1.1,896.51,22.94,
4340293,-0.02,-0.07,1.15,-0.06,6.1,1.22,896.59,22.95,
4340331,-0.03,-0.07,1.11,0.24,5.68,1.28,896.52,22.95,
4340369,-0.02,-0.06,1.15,0.92,5.43,1.28,896.56,22.95,
4340408,-0.04,-0.08,1.08,1.04,5.31,1.53,896.59,22.95,
4340446,-0.04,-0.07,1.08,1.59,4.33,1.46,896.55,22.95,
4340484,-0.03,-0.07,1.0,1.95,4.76,1.71,896.55,22.96,
4340522,-0.04,-0.07,0.96,2.01,4.27,1.77,896.56,22.97,
4340561,-0.03,-0.07,0.9,1.89,4.39,1.89,896.55,22.97,
4340599,-0.01,-0.07,0.85,1.71,5.25,1.83,896.5,22.96,
4340637,-0.02,-0.07,0.92,1.71,5.0,1.71,896.5,22.96,
4340687,-0.03,-0.08,0.91,1.65,5.31,1.77,896.52,22.95,
4340725,-0.02,-0.08,0.96,1.83,5.13,1.53,896.51,22.96,
4340764,-0.03,-0.08,0.95,1.95,5.19,1.65,896.54,22.96,
4340802,-0.03,-0.08,0.95,2.2,5.0,1.77,896.51,22.96,
4340840,-0.03,-0.08,0.91,2.26,5.19,1.65,896.51,22.96,
4340878,-0.03,-0.07,0.92,2.75,4.58,1.65,896.45,22.97,
4340917,-0.02,-0.08,0.89,2.32,4.46,1.77,896.44,22.97,
4340955,-0.02,-0.07,0.88,2.5,4.39,1.83,896.43,22.96,
4340993,-0.03,-0.07,0.91,2.38,3.78,1.89,896.47,22.96,
4341031,-0.03,-0.08,0.92,2.44,3.66,1.83,896.45,22.97,
4341081,-0.03,-0.07,0.95,2.5,3.42,2.01,896.45,22.95,
4341119,-0.04,-0.07,0.94,2.38,3.72,2.2,896.48,22.97,
4341158,-0.03,-0.08,0.94,2.26,3.6,2.2,896.43,22.96,
4341196,-0.02,-0.07,0.94,2.38,3.54,2.14,896.47,22.96,
4341234,-0.02,-0.07,0.94,2.2,3.36,2.08,896.45,22.98,
4341272,-0.03,-0.07,0.93,2.2,3.23,2.2,896.45,22.96,
4341311,-0.02,-0.07,0.95,2.08,2.81,2.26,896.47,22.96,
4341349,-0.02,-0.07,0.95,2.08,2.81,2.14,896.48,22.96,
4341387,-0.02,-0.07,0.98,2.26,2.08,2.01,896.45,22.95,
4341437,-0.02,-0.08,0.97,2.01,2.32,2.2,896.47,22.95,
4341475,-0.02,-0.07,0.98,2.26,2.01,2.08,896.42,22.96,
4341514,-0.01,-0.07,0.99,2.5,1.59,2.14,896.44,22.95,
4341552,-0.02,-0.07,0.98,2.38,0.79,2.08,896.51,22.96,
4341590,-0.02,-0.07,0.99,2.2,0.61,2.08,896.45,22.95,
4341628,-0.02,-0.07,0.97,2.38,0.37,1.95,896.46,22.95,
4341667,-0.03,-0.07,0.97,2.44,0.55,2.01,896.5,22.96,
4341705,-0.01,-0.08,0.94,2.5,1.22,1.89,896.42,22.96,
4341743,-0.01,-0.07,0.95,2.69,1.16,1.83,896.36,22.95,
4341781,-0.02,-0.07,0.93,2.69,1.89,1.71,896.46,22.96,
4341831,-0.02,-0.07,0.96,2.81,2.2,1.59,896.45,22.96,
4341870,-0.02,-0.07,0.93,2.81,2.75,1.53,896.45,22.96,
4341908,-0.02,-0.07,0.96,2.99,2.01,1.46,896.45,22.96,
4341946,-0.02,-0.07,0.94,3.23,2.26,1.4,896.43,22.96,
4341984,-0.02,-0.07,0.92,3.17,2.2,1.53,896.47,22.97,
4342022,-0.02,-0.07,0.93,3.11,1.95,1.4,896.43,22.96,
4342061,-0.02,-0.08,0.92,2.99,2.32,1.53,896.38,22.97,
4342099,-0.03,-0.07,0.91,3.11,1.83,1.53,896.39,22.97,
4342137,-0.02,-0.07,0.91,2.69,1.65,1.46,896.34,22.95,
4342175,-0.03,-0.07,0.91,2.5,2.01,1.53,896.45,22.97,
4342225,-0.01,-0.07,0.94,2.38,1.95,1.59,896.43,22.96,
4342264,-0.03,-0.08,0.9,2.08,2.5,1.53,896.42,22.96,
4342302,-0.05,-0.07,0.89,2.08,2.69,1.59,896.41,22.98,
4342340,-0.02,-0.08,0.88,1.77,3.3,1.59,896.42,22.97,
4342378,-0.03,-0.07,0.87,1.53,3.3,1.59,896.42,22.96,
4342417,-0.03,-0.07,0.88,1.4,3.6,1.53,896.41,22.97,
4342455,-0.02,-0.07,0.87,1.53,4.27,1.65,896.34,22.97,
4342493,-0.04,-0.08,0.87,1.04,3.85,1.53,896.42,22.97,
4342531,-0.04,-0.07,0.92,0.98,3.91,1.77,896.4,22.97,
4342581,-0.03,-0.07,0.91,0.61,4.15,1.83,896.37,22.96,
4342620,-0.02,-0.06,0.98,0.43,3.11,1.71,896.36,22.95,
4342658,-0.03,-0.07,0.98,-0.06,3.17,1.89,896.46,22.96,
4342696,-0.03,-0.06,0.99,-0.06,2.08,2.14,896.42,22.97,
4342734,-0.03,-0.07,0.99,-0.31,1.95,2.26,896.43,22.97,
4342773,-0.04,-0.06,0.99,-0.31,1.28,2.44,896.4,22.97,
4342811,-0.04,-0.06,1.01,-0.37,0.43,2.56,896.42,22.96,
4342849,-0.03,-0.07,1.03,-0.37,0.55,2.69,896.41,22.98,
4342887,-0.03,-0.06,1.04,-0.18,0.37,2.56,896.4,22.96,
4342926,-0.04,-0.06,1.05,0.06,0.73,2.81,896.41,22.98,
4343002,-0.04,-0.06,1.04,0.12,1.95,2.87,896.43,22.95,
4343040,-0.02,-0.05,1.03,0.12,2.44,2.81,896.38,22.95,
4343078,-0.02,-0.05,1.06,0.37,2.75,2.75,896.39,22.95,
4343168,-0.02,-0.06,1.08,0.61,2.69,2.87,896.48,22.92,
4343206,-0.02,-0.06,1.08,0.85,2.14,2.87,896.46,22.94,
4343245,-0.01,-0.06,1.09,1.16,2.2,2.87,896.43,22.95,
4343283,-0.03,-0.06,1.04,1.34,2.08,2.93,896.45,22.95,
4343321,-0.02,-0.06,1.04,1.83,1.71,3.05,896.47,22.96,
4343359,-0.02,-0.06,1.01,1.89,2.5,3.11,896.46,22.95,
4343398,-0.03,-0.06,1.02,2.08,2.14,2.93,896.41,22.95,
4343448,-0.02,-0.06,1.0,2.2,2.14,3.05,896.41,22.94,
4343486,-0.02,-0.06,1.03,2.38,2.32,2.99,896.44,22.95,
4343524,-0.01,-0.06,1.02,2.62,2.44,2.93,896.44,22.95,
4343562,-0.03,-0.06,1.03,2.81,1.77,2.87,896.48,22.96,
4343601,-0.02,-0.06,0.99,2.75,2.56,2.93,896.42,22.96,
4343639,-0.01,-0.05,1.01,2.99,2.32,2.75,896.47,22.95,
4343677,-0.02,-0.06,0.96,2.69,2.99,2.93,896.41,22.95,
4343715,-0.01,-0.06,0.94,2.99,3.05,2.93,896.42,22.96,
4343754,-0.01,-0.06,0.94,3.05,3.23,2.75,896.47,22.97,
4343804,-0.01,-0.06,0.93,3.05,2.87,2.56,896.5,22.95,
4343842,-0.01,-0.07,0.91,2.93,3.3,2.5,896.41,22.97,
4343880,-0.01,-0.07,0.87,2.44,3.91,2.56,896.42,22.95,
4343918,-0.01,-0.06,0.86,2.56,3.91,2.44,896.44,22.97,
4343957,-0.01,-0.06,0.83,2.01,3.91,2.32,896.46,22.98,
4343995,-0.01,-0.06,0.86,2.08,3.72,2.26,896.44,22.97,
4344033,-0.02,-0.07,0.86,1.89,3.97,2.14,896.43,22.98,
4344071,-0.02,-0.06,0.89,1.89,3.42,2.38,896.42,22.97,
4344110,-0.0,-0.06,0.93,1.95,3.11,2.14,896.48,22.97,
4344148,-0.0,-0.06,0.92,1.77,2.5,2.2,896.43,22.98,
4344198,-0.01,-0.06,0.9,1.77,2.38,2.26,896.42,22.96,
4344236,-0.02,-0.06,0.89,1.83,2.2,2.32,896.44,22.96,
4344274,-0.01,-0.06,0.92,1.65,2.38,2.14,896.49,22.97,
4344313,-0.01,-0.05,0.96,1.59,1.59,2.14,896.4,22.96,
4344351,-0.03,-0.06,0.97,1.89,1.59,2.08,896.42,22.96,
4344389,-0.04,-0.06,0.99,1.46,2.14,2.08,896.42,22.98,
4344427,-0.01,-0.06,1.02,1.28,2.44,1.89,896.39,22.97,
4344465,-0.02,-0.05,1.01,1.28,1.89,1.89,896.41,22.97,
4344504,-0.03,-0.06,0.99,1.53,2.56,1.89,896.5,22.98,
4344542,-0.03,-0.07,0.94,1.89,3.6,2.01,896.42,22.98,
4344592,-0.01,-0.06,0.95,2.01,3.6,1.83,896.47,22.96,
4344630,-0.02,-0.06,0.91,2.2,2.62,1.83,896.45,22.96,
4344668,-0.04,-0.05,0.93,2.38,1.71,1.77,896.49,22.96,
4344707,-0.03,-0.06,0.92,2.08,2.38,1.89,896.47,22.97,
4344745,-0.03,-0.07,0.91,2.2,1.34,1.95,896.37,22.97,
4344783,-0.03,-0.07,0.91,2.2,1.4,1.89,896.39,22.97,
4344821,-0.04,-0.07,0.86,2.14,1.89,2.2,896.36,22.96,
4344860,-0.02,-0.06,0.84,2.2,1.71,2.26,896.44,22.98,
4344898,-0.03,-0.06,0.82,1.71,1.16,2.32,896.45,22.98,
4344948,-0.03,-0.07,0.85,1.65,0.73,2.38,896.38,22.96,
4344986,-0.02,-0.07,0.86,1.16,0.98,2.44,896.43,22.97,
4345024,-0.02,-0.06,0.91,1.71,0.24,2.5,896.44,22.97,
4345063,-0.03,-0.07,0.89,1.1,0.31,2.5,896.48,22.98,
4345101,-0.03,-0.06,0.94,1.34,0.06,2.81,896.45,22.97,
4345139,-0.01,-0.06,0.96,0.98,0.49,2.87,896.44,22.97,
4345177,-0.03,-0.06,0.96,0.85,-0.12,2.69,896.42,22.97,
4345216,-0.05,-0.05,0.95,0.55,0.12,2.81,896.43,22.98,
4345254,-0.02,-0.05,0.99,0.43,0.37,2.87,896.45,22.98,
4345292,-0.02,-0.06,1.0,0.43,0.85,2.81,896.47,22.98,
4345342,-0.02,-0.05,1.01,0.92,0.85,2.87,896.44,22.95,
4345380,-0.04,-0.06,1.0,0.67,2.38,2.93,896.51,22.97,
4345419,-0.02,-0.06,1.0,0.67,2.44,2.81,896.5,22.98,
4345457,-0.03,-0.05,1.04,0.92,2.26,2.93,896.47,22.96,
4345495,-0.03,-0.06,1.01,0.85,2.56,2.81,896.48,22.98,
4345533,-0.02,-0.06,1.07,1.1,2.08,2.99,896.51,22.97,
4345572,-0.01,-0.05,1.08,0.98,2.01,3.05,896.51,22.98,
4345610,-0.02,-0.05,1.07,1.28,1.22,3.3,896.52,22.97,
4345648,-0.02,-0.05,1.07,1.22,1.77,3.17,896.53,22.97,
4345698,-0.02,-0.05,1.07,1.28,0.98,3.36,896.5,22.96,
4345736,-0.03,-0.05,1.08,1.16,1.28,3.36,896.52,22.96,
4345775,-0.01,-0.05,1.11,1.34,1.16,3.36,896.43,22.96,
4345813,-0.01,-0.04,1.12,1.34,1.16,3.42,896.55,22.98,
4345851,-0.03,-0.03,1.13,1.53,0.92,3.48,896.54,22.98,
4345889,-0.03,-0.05,1.13,1.83,2.01,3.48,896.5,22.97,
4345928,-0.0,-0.04,1.15,1.65,2.56,3.36,896.51,22.97,
4345966,-0.02,-0.04,1.16,1.83,3.3,3.3,896.5,22.97,
4346004,-0.03,-0.04,1.12,2.01,3.6,3.36,896.52,22.97,
4346042,-0.03,-0.04,1.13,2.08,4.52,3.42,896.54,22.97,
4346118,-0.02,-0.04,1.09,2.14,5.8,3.36,896.57,22.95,
4346157,-0.02,-0.05,1.06,2.2,6.29,3.48,896.56,22.95,
4346195,-0.02,-0.04,1.06,2.62,6.71,3.48,896.51,22.95,
4346285,-0.01,-0.05,1.01,2.93,6.84,3.54,896.6,22.93,
4346323,-0.02,-0.06,0.95,2.62,7.14,3.54,896.55,22.94,
4346361,-0.0,-0.05,0.95,2.81,6.35,3.48,896.57,22.95,
4346400,0.0,-0.06,0.94,2.75,5.86,3.6,896.54,22.95,
4346438,-0.01,-0.06,0.91,2.26,4.88,3.48,896.58,22.96,
4346476,-0.02,-0.05,0.94,2.32,4.21,3.54,896.58,22.95,
4346514,-0.01,-0.05,0.92,2.01,4.39,3.54,896.54,22.95,
4346564,-0.03,-0.06,0.97,2.14,3.97,3.6,896.61,22.95,
4346603,-0.01,-0.06,0.91,1.71,4.09,3.36,896.6,22.95,
4346641,-0.01,-0.06,0.92,2.2,4.03,3.36,896.61,22.96,
4346679,0.0,-0.07,0.86,1.71,3.91,3.36,896.59,22.95,
4346717,-0.0,-0.05,0.9,2.01,2.14,3.36,896.64,22.96,
4346756,-0.02,-0.06,0.86,1.65,2.14,3.66,896.53,22.95,
4346794,-0.02,-0.06,0.86,1.34,1.16,3.66,896.58,22.95,
4346832,-0.01,-0.06,0.86,0.98,0.61,3.54,896.58,22.95,
4346870,-0.01,-0.05,0.89,0.49,-0.12,3.6,896.6,22.96,
4346920,-0.01,-0.05,0.97,0.37,0.18,3.78,896.54,22.95,
4346959,0.0,-0.06,0.99,0.31,0.18,3.66,896.63,22.96,
4346997,-0.01,-0.06,1.0,0.43,0.49,3.6,896.61,22.96,
4347035,-0.02,-0.05,1.03,0.92,0.61,3.6,896.66,22.96,
4347073,-0.01,-0.06,1.0,1.04,1.46,3.48,896.55,22.95,
4347112,-0.01,-0.05,1.02,1.1,1.65,3.05,896.63,22.96,
4347150,-0.01,-0.04,1.04,1.34,2.14,3.05,896.62,22.96,
4347188,-0.01,-0.04,1.06,1.46,2.01,3.11,896.61,22.96,
4347226,-0.01,-0.05,1.06,1.4,2.2,3.23,896.65,22.96,
4347265,-0.02,-0.05,1.06,1.4,2.01,3.23,896.67,22.96,
4347315,-0.01,-0.04,1.08,1.83,2.44,3.05,896.65,22.95,
4347353,0.01,-0.05,1.02,1.83,2.26,3.05,896.66,22.96,
4347391,-0.02,-0.04,1.01,2.01,1.77,3.23,896.65,22.96,
4347429,-0.01,-0.05,0.98,2.14,2.08,3.3,896.67,22.96,
4347468,-0.01,-0.05,1.02,2.14,1.4,3.17,896.62,22.96,
4347506,-0.01,-0.05,1.01,2.14,1.34,3.23,896.58,22.95,
4347544,-0.01,-0.05,1.01,2.14,1.34,3.3,896.68,22.96,
4347582,-0.01,-0.05,1.02,2.44,2.44,3.05,896.65,22.96,
4347621,-0.01,-0.05,1.03,2.62,2.2,3.05,896.66,22.96,
4347659,-0.02,-0.05,1.02,2.62,2.14,3.05,896.62,22.96,
4347709,-0.02,-0.05,1.01,2.81,3.36,2.81,896.62,22.95,
4347747,-0.01,-0.04,1.03,2.56,3.72,2.99,896.68,22.96,
4347785,0.01,-0.04,1.07,2.69,3.85,3.11,896.63,22.95,
4347824,-0.0,-0.05,1.07,2.62,4.15,2.81,896.65,22.97,
4347862,-0.02,-0.05,1.08,2.69,4.09,3.11,896.66,22.96,
4347900,-0.01,-0.05,1.09,2.69,4.15,2.81,896.65,22.96,
4347938,-0.01,-0.05,1.06,2.62,4.52,2.81,896.61,22.97,
4347977,-0.0,-0.04,1.05,2.81,4.82,2.75,896.7,22.97,
4348015,0.01,-0.05,1.01,2.62,5.19,2.75,896.68,22.97,
4348053,-0.0,-0.05,1.0,2.75,5.19,2.5,896.71,22.96,
4348103,-0.01,-0.06,0.97,2.56,5.98,2.69,896.65,22.95,
4348141,-0.0,-0.05,0.96,2.56,6.53,2.62,896.67,22.96,
4348180,-0.01,-0.05,0.95,2.5,5.55,2.5,896.68,22.96,
4348218,-0.02,-0.06,0.93,2.5,6.29,2.38,896.64,22.95,
4348256,-0.0,-0.06,0.94,2.32,5.86,2.56,896.63,22.94,
4348294,-0.02,-0.05,0.95,2.44,5.37,2.5,896.68,22.95,
4348333,-0.02,-0.06,0.87,2.01,5.55,2.5,896.65,22.96,
4348371,-0.0,-0.05,0.92,2.2,5.49,2.5,896.71,22.96,
4348409,-0.01,-0.06,0.89,1.95,6.59,2.5,896.68,22.96,
4348459,-0.01,-0.06,0.88,2.14,5.31,2.56,896.68,22.95,
4348497,-0.01,-0.05,0.89,2.14,6.16,2.38,896.69,22.95,
4348536,-0.0,-0.06,0.89,2.26,5.49,2.56,896.72,22.96,
4348574,-0.02,-0.05,0.9,2.26,5.31,2.56,896.68,22.95,
4348612,-0.02,-0.06,0.87,2.32,5.62,2.5,896.68,22.96,
4348651,-0.02,-0.07,0.83,2.38,6.04,2.38,896.71,22.95,
4348689,-0.01,-0.05,0.84,2.38,5.55,2.32,896.7,22.96,
4348727,-0.01,-0.06,0.79,2.69,5.8,2.32,896.75,22.96,
4348765,-0.02,-0.05,0.78,2.81,5.07,2.26,896.75,22.96,
4348803,-0.01,-0.06,0.83,2.93,5.19,2.44,896.75,22.96,
4348853,-0.02,-0.06,0.81,2.2,4.76,2.32,896.76,22.94,
4348892,-0.01,-0.05,0.83,2.26,5.0,2.5,896.76,22.95,
4348930,-0.02,-0.05,0.83,1.65,5.13,2.44,896.73,22.94,
4348968,-0.02,-0.05,0.89,2.08,4.58,2.32,896.74,22.95,
4349006,-0.01,-0.05,0.9,1.53,4.64,2.38,896.75,22.95,
4349045,-0.02,-0.05,0.94,1.71,3.85,2.62,896.73,22.95,
4349083,-0.02,-0.05,0.92,1.34,4.39,2.56,896.78,22.95,
4349121,-0.0,-0.04,0.96,1.59,4.09,2.44,896.8,22.96,
4349160,0.0,-0.05,0.95,1.65,4.76,2.62,896.74,22.96,
4349198,-0.01,-0.05,0.94,1.59,4.33,2.62,896.83,22.96,
4349274,-0.0,-0.05,0.95,1.65,5.19,2.32,896.88,22.92,
4349312,-0.01,-0.05,0.98,2.26,5.13,2.38,896.8,22.94,
4349350,-0.0,-0.05,0.95,2.14,6.1,2.26,896.85,22.94,
4349442,0.01,-0.04,0.93,2.32,6.29,2.08,896.85,22.91,
4349480,0.0,-0.05,0.94,2.44,5.92,1.89,896.82,22.92,
4349518,0.01,-0.05,0.93,2.26,6.1,1.95,896.85,22.94,
4349556,0.0,-0.05,0.94,2.44,5.98,1.83,896.84,22.93,
4349595,0.0,-0.05,0.94,2.26,6.1,1.83,896.8,22.93,
4349633,0.0,-0.05,0.92,2.14,5.74,1.89,896.89,22.94,
4349683,-0.0,-0.05,0.93,2.38,5.25,1.89,896.84,22.93,
4349721,-0.0,-0.05,0.91,2.2,4.94,1.71,896.9,22.95,
4349759,0.0,-0.04,0.94,1.95,4.52,1.95,896.9,22.94,
4349798,-0.01,-0.04,0.93,1.77,4.21,1.83,896.88,22.94,
4349836,-0.0,-0.04,0.94,1.71,3.48,1.89,896.88,22.95,
4349874,0.01,-0.04,0.99,1.71,3.36,1.83,896.9,22.95,
4349912,0.01,-0.04,0.96,1.65,2.44,1.89,896.92,22.95,
4349951,-0.01,-0.04,1.0,1.83,2.2,1.83,896.92,22.94,
4349989,0.01,-0.04,0.99,1.46,2.56,1.71,896.95,22.95,
4350027,0.02,-0.03,1.03,1.77,2.2,1.46,896.95,22.95,
4350077,-0.0,-0.04,1.0,1.59,2.56,1.53,896.97,22.93,
4350115,-0.01,-0.04,0.99,1.59,3.23,1.22,896.95,22.93,
4350154,0.01,-0.04,1.0,1.46,3.72,1.04,896.97,22.94,
4350192,0.01,-0.04,0.98,1.4,3.78,0.98,897.01,22.95,
4350230,-0.01,-0.03,0.99,1.53,4.15,0.85,896.94,22.94,
4350268,0.01,-0.04,1.0,1.83,5.13,0.61,897.01,22.95,
4350307,0.01,-0.03,1.02,1.95,4.82,0.55,897.0,22.95,
4350345,-0.0,-0.04,1.02,2.08,4.82,0.67,897.01,22.95,
4350383,-0.0,-0.04,1.03,2.26,5.37,0.43,897.0,22.95,
4350421,0.01,-0.04,1.03,2.32,5.68,0.31,897.03,22.95,
4350471,-0.0,-0.04,1.0,2.38,5.8,0.31,897.01,22.95,
4350510,-0.03,-0.04,1.0,2.5,5.8,0.24,897.03,22.95,
4350548,0.0,-0.04,1.0,2.38,5.86,0.06,897.03,22.94,
4350586,0.01,-0.04,0.99,2.38,5.31,0.18,897.05,22.95,
4350624,0.0,-0.03,0.99,2.44,4.58,0.18,897.04,22.94,
4350662,0.0,-0.04,0.99,2.2,4.94,0.0,897.04,22.95,
4350701,0.01,-0.04,1.02,2.08,4.52,0.0,897.04,22.94,
4350739,0.01,-0.04,1.02,1.71,4.27,-0.06,897.1,22.95,
4350777,0.0,-0.03,1.03,1.77,3.6,-0.18,897.05,22.95,
4350815,-0.0,-0.04,1.03,1.83,3.91,-0.06,897.08,22.94,
4350865,0.01,-0.04,1.05,1.83,2.87,-0.31,897.08,22.94,
4350904,-0.0,-0.04,1.05,1.4,3.05,-0.43,897.06,22.94,
4350942,0.0,-0.03,1.04,1.4,2.87,-0.55,897.09,22.94,
4350980,0.02,-0.03,1.07,1.16,2.87,-0.67,897.03,22.92,
4351018,0.0,-0.03,1.05,1.16,2.62,-0.67,897.11,22.95,
4351057,-0.0,-0.03,1.07,0.79,2.26,-0.85,897.11,22.95,
4351095,-0.0,-0.03,1.08,0.67,2.69,-0.85,897.08,22.95,
4351133,0.01,-0.03,1.08,0.73,2.62,-1.16,897.12,22.94,
4351171,-0.0,-0.02,1.09,0.73,2.38,-1.16,897.21,22.94,
4351221,0.0,-0.03,1.1,0.85,2.75,-1.22,897.17,22.94,
4351260,0.0,-0.03,1.11,0.73,2.99,-1.46,897.15,22.94,
4351298,0.0,-0.03,1.12,0.73,2.93,-1.4,897.19,22.94,
4351336,0.0,-0.03,1.13,0.73,3.05,-1.65,897.12,22.94,
4351374,-0.01,-0.03,1.13,0.73,3.3,-1.77,897.18,22.95,
4351413,-0.01,-0.03,1.14,0.67,3.42,-1.83,897.08,22.94,
4351451,-0.0,-0.02,1.12,0.85,3.3,-1.83,897.16,22.96,
4351489,-0.01,-0.03,1.11,0.79,3.72,-2.01,897.19,22.94,
4351527,-0.0,-0.03,1.09,0.79,3.54,-2.08,897.16,22.96,
4351566,-0.01,-0.03,1.09,1.16,3.6,-2.14,897.1,22.95,
4351616,-0.0,-0.03,1.08,1.1,3.72,-2.2,897.23,22.95,
4351654,-0.01,-0.03,1.08,1.1,4.03,-2.26,897.15,22.95,
4351692,0.0,-0.03,1.09,1.4,3.54,-2.2,897.19,22.95,
4351730,-0.01,-0.03,1.09,1.4,3.72,-2.38,897.13,22.95,
4351769,-0.01,-0.03,1.09,1.59,3.36,-2.56,897.16,22.94,
4351807,-0.01,-0.03,1.1,1.71,3.54,-2.69,897.19,22.95,
4351845,-0.01,-0.03,1.07,1.83,3.48,-2.81,897.17,22.94,
4351883,-0.02,-0.04,1.06,2.08,3.48,-2.5,897.17,22.95,
4351922,-0.02,-0.04,1.06,2.14,3.6,-2.69,897.18,22.95,
4351972,-0.02,-0.04,1.03,2.26,3.72,-2.5,897.16,22.94,
4352010,-0.02,-0.03,1.04,2.44,3.66,-2.62,897.16,22.94,
4352048,-0.02,-0.04,1.02,2.62,3.91,-2.5,897.24,22.95,
4352086,-0.02,-0.04,0.99,2.5,4.09,-2.62,897.21,22.95,
4352125,-0.02,-0.04,0.99,2.81,4.09,-2.75,897.25,22.95,
4352163,-0.02,-0.04,0.96,2.69,4.52,-2.44,897.22,22.94,
4352201,-0.02,-0.04,0.97,2.87,4.39,-2.5,897.2,22.96,
4352239,-0.01,-0.04,0.96,2.87,4.33,-2.56,897.22,22.95,
4352278,-0.0,-0.05,0.95,2.75,4.58,-2.62,897.2,22.95,
4352316,-0.01,-0.05,0.94,2.62,5.13,-2.5,897.18,22.95,
4352392,-0.01,-0.04,0.95,2.56,6.47,-2.75,897.16,22.92,
4352430,-0.01,-0.04,0.95,2.44,7.57,-2.93,897.17,22.94,
4352468,-0.01,-0.04,0.94,2.26,8.54,-2.87,897.2,22.93,
4352558,-0.01,-0.06,0.94,2.2,9.95,-2.81,897.16,22.91,
4352597,0.0,-0.04,0.97,2.2,10.25,-2.87,897.13,22.92,
4352635,0.01,-0.05,0.94,1.83,10.68,-2.81,897.17,22.92,
4352673,-0.01,-0.04,0.95,1.95,10.5,-2.81,897.15,22.93,
4352711,-0.01,-0.04,0.96,1.89,11.54,-2.87,897.15,22.93,
4352750,0.0,-0.05,0.97,1.83,12.15,-2.93,897.16,22.94,
4352799,-0.0,-0.04,1.02,1.77,12.15,-3.11,897.13,22.93,
4352838,0.0,-0.04,1.01,1.83,12.76,-3.11,897.13,22.92,
4352876,-0.0,-0.04,1.04,2.08,13.18,-3.05,897.13,22.93,
4352914,-0.0,-0.04,1.04,2.01,13.37,-2.93,897.14,22.94,
4352952,-0.0,-0.04,1.04,1.95,13.43,-2.87,897.08,22.95,
4352991,-0.0,-0.04,1.05,2.26,13.92,-2.99,897.07,22.94,
4353029,-0.01,-0.03,1.06,2.32,13.37,-3.05,897.13,22.95,
4353067,0.0,-0.04,1.06,2.08,12.82,-2.99,897.09,22.95,
4353105,0.0,-0.03,1.08,2.2,11.96,-2.81,897.14,22.95,
4353144,-0.01,-0.04,1.07,2.2,11.72,-2.62,897.1,22.94,
4353194,0.01,-0.03,1.1,2.32,9.64,-2.56,897.13,22.93,
4353232,-0.01,-0.04,1.08,2.2,9.03,-2.56,897.13,22.94,
4353270,-0.01,-0.04,1.08,2.32,7.93,-2.56,897.12,22.94,
4353308,0.01,-0.04,1.09,2.2,7.63,-2.69,897.15,22.94,
4353347,-0.0,-0.03,1.07,2.38,6.71,-2.56,897.17,22.95,
4353385,0.0,-0.03,1.06,2.26,6.47,-2.38,897.2,22.95,
4353423,0.01,-0.04,1.06,2.26,6.29,-2.69,897.17,22.94,
4353461,0.0,-0.04,1.06,2.2,6.04,-2.5,897.19,22.95,
4353500,0.0,-0.03,1.04,2.14,5.86,-2.75,897.17,22.95,
4353550,0.0,-0.03,1.03,2.01,5.31,-2.69,897.12,22.94,
4353588,-0.0,-0.04,1.01,1.77,5.0,-2.99,897.16,22.95,
4353626,0.0,-0.05,1.0,2.01,4.39,-3.11,897.2,22.94,
4353664,-0.0,-0.05,0.98,2.14,3.97,-3.17,897.23,22.94,
4353703,0.0,-0.04,0.94,2.01,3.36,-3.48,897.18,22.95,
4353741,0.01,-0.04,0.93,2.2,2.62,-3.78,897.19,22.93,
4353779,0.01,-0.05,0.91,2.01,2.5,-3.97,897.21,22.95,
4353817,0.0,-0.05,0.93,1.71,1.71,-4.15,897.18,22.94,
4353856,-0.01,-0.06,0.91,1.65,2.2,-4.21,897.2,22.95,
4353894,-0.0,-0.04,0.92,1.22,1.71,-4.52,897.18,22.95,
4353944,-0.01,-0.05,0.89,1.46,1.77,-4.7,897.25,22.96,
4353982,-0.01,-0.06,0.89,1.46,1.53,-4.88,897.29,22.96,
4354020,-0.0,-0.06,0.89,1.4,1.46,-5.25,897.27,22.95,
4354059,-0.01,-0.05,0.88,1.53,0.85,-5.07,897.26,22.95,
4354097,-0.01,-0.04,0.87,1.77,0.24,-5.43,897.23,22.95,
4354135,-0.03,-0.05,0.89,1.77,0.12,-5.25,897.27,22.95,
4354174,-0.02,-0.06,0.89,1.53,-0.24,-5.43,897.26,22.96,
4354212,-0.02,-0.05,0.92,1.46,-0.67,-5.49,897.22,22.95,
4354250,-0.03,-0.04,0.87,1.28,0.18,-5.55,897.28,22.95,
4354300,-0.03,-0.04,0.88,1.28,0.24,-5.68,897.24,22.94,
4354338,-0.04,-0.04,0.9,1.16,-0.12,-5.62,897.22,22.94,
4354376,-0.05,-0.04,0.94,1.04,-0.55,-5.31,897.12,22.94,
4354415,-0.07,-0.03,0.94,0.67,-0.37,-5.0,897.14,22.92,
4354453,-0.08,-0.02,0.99,0.79,-1.16,-4.76,897.18,22.94,
4354491,-0.09,-0.04,1.0,0.31,-1.1,-4.39,897.14,22.95,
4354529,-0.09,-0.03,1.04,0.37,-1.95,-4.03,897.16,22.94,
4354568,-0.08,-0.03,1.06,0.37,-1.95,-3.72,897.14,22.94,
4354606,-0.09,-0.02,1.03,0.31,-2.26,-3.05,897.19,22.94,
4354656,-0.07,-0.02,1.07,0.67,-2.99,-2.44,897.14,22.92,
4354694,-0.08,-0.03,1.08,0.85,-3.36,-2.14,897.21,22.93,
4354732,-0.08,-0.02,1.12,1.34,-4.58,-1.71,897.14,22.93,
4354771,-0.08,-0.02,1.11,1.77,-4.64,-1.59,897.21,22.95,
4354809,-0.07,-0.01,1.11,2.2,-5.86,-1.22,897.22,22.95,
4354847,-0.07,-0.02,1.12,2.62,-6.29,-0.98,897.2,22.95,
4354885,-0.08,-0.03,1.11,2.99,-6.59,-0.61,897.19,22.94,
4354924,-0.08,-0.02,1.12,3.48,-6.47,-0.37,897.26,22.95,
4354962,-0.06,-0.02,1.08,3.6,-6.04,0.0,897.22,22.95,
4355000,-0.08,-0.02,1.08,3.66,-7.14,0.12,897.26,22.94,
4355050,-0.08,-0.03,1.05,3.91,-6.47,0.49,897.3,22.93,
4355088,-0.06,-0.03,1.02,4.09,-6.71,0.37,897.24,22.95,
4355127,-0.06,-0.03,1.01,4.39,-6.53,0.85,897.28,22.94,
4355165,-0.05,-0.04,0.95,4.33,-6.41,0.92,897.3,22.95,
4355203,-0.06,-0.04,0.94,4.39,-5.86,1.1,897.29,22.94,
4355242,-0.07,-0.05,0.92,4.21,-5.92,1.16,897.32,22.95,
4355280,-0.07,-0.05,0.87,4.39,-6.65,1.28,897.31,22.95,
4355318,-0.07,-0.05,0.85,4.33,-6.1,1.53,897.28,22.94,
4355356,-0.06,-0.05,0.84,4.03,-5.49,1.71,897.32,22.95,
4355432,-0.07,-0.05,0.82,4.09,-4.52,1.89,897.33,22.93,
4355470,-0.07,-0.06,0.82,3.54,-3.17,2.2,897.34,22.94,
4355509,-0.05,-0.06,0.86,3.23,-1.71,2.2,897.37,22.94,
4355599,-0.05,-0.05,0.83,2.14,-0.31,2.69,897.42,22.91,
4355637,-0.06,-0.05,0.82,1.77,-0.06,2.75,897.41,22.92,
4355675,-0.05,-0.04,0.8,0.67,0.31,2.87,897.44,22.94,
4355713,-0.03,-0.04,0.86,0.43,0.0,3.23,897.42,22.92,
4355752,-0.02,-0.06,0.89,-0.24,-0.18,3.3,897.48,22.94,
4355790,-0.01,-0.06,0.91,0.0,-0.61,3.48,897.5,22.93,
4355828,-0.03,-0.05,0.9,-0.43,0.31,3.48,897.52,22.94,
4355878,-0.03,-0.05,0.94,0.0,-0.24,3.6,897.55,22.91,
4355916,-0.02,-0.05,0.91,-0.31,0.31,3.36,897.51,22.93,
4355955,-0.05,-0.05,0.89,-0.24,-0.18,3.66,897.48,22.93,
4355993,0.0,-0.05,0.89,-0.31,-0.37,3.48,897.57,22.94,
4356031,0.0,-0.06,0.9,-0.24,-0.49,3.11,897.53,22.93,
4356069,-0.01,-0.06,0.88,-0.43,-0.61,3.36,897.57,22.93,
4356108,-0.02,-0.05,0.97,0.12,-0.85,3.23,897.56,22.95,
4356146,-0.01,-0.06,0.9,-0.06,0.24,3.11,897.55,22.95,
4356184,-0.03,-0.05,0.91,0.24,-0.18,2.87,897.57,22.95,
4356234,-0.03,-0.05,0.88,0.06,1.04,3.05,897.58,22.93,
4356272,-0.0,-0.06,0.95,0.0,0.24,3.11,897.64,22.94,
4356311,-0.01,-0.05,0.95,-0.43,0.55,2.93,897.58,22.94,
4356349,-0.01,-0.04,1.03,-0.43,0.67,3.11,897.62,22.95,
4356387,-0.01,-0.05,1.05,-1.04,2.14,3.11,897.59,22.95,
4356425,-0.01,-0.05,1.09,-0.92,1.34,2.87,897.61,22.95,
4356464,-0.02,-0.05,1.11,-1.1,1.89,3.05,897.68,22.96,
4356502,-0.02,-0.05,1.1,-1.16,1.77,2.93,897.62,22.94,
4356540,-0.0,-0.04,1.09,-1.34,2.26,2.81,897.58,22.95,
4356578,-0.0,-0.03,1.09,-1.16,1.46,2.87,897.65,22.95,
4356628,0.0,-0.04,1.1,-1.22,2.01,2.87,897.61,22.93,
4356667,-0.01,-0.04,1.11,-1.22,1.4,2.69,897.57,22.94,
4356705,-0.01,-0.04,1.15,-0.92,1.1,2.93,897.67,22.95,
4356743,-0.01,-0.04,1.14,-0.92,0.61,2.93,897.7,22.95,
4356781,0.0,-0.03,1.16,-0.73,0.18,2.75,897.67,22.95,
4356820,-0.01,-0.05,1.1,-0.79,0.49,2.87,897.67,22.95,
4356858,-0.0,-0.04,1.13,-0.67,-0.79,2.87,897.69,22.95,
4356896,-0.01,-0.05,1.08,-0.43,-0.73,3.05,897.77,22.95,
4356934,-0.01,-0.04,1.08,-0.12,-1.71,2.87,897.72,22.94,
4356984,-0.02,-0.05,1.03,-0.18,-1.34,2.87,897.69,22.94,
4357023,-0.01,-0.05,1.02,0.24,-2.01,3.05,897.7,22.94,
4357061,-0.02,-0.06,1.0,0.31,-1.22,2.75,897.77,22.94,
4357099,-0.01,-0.05,0.97,0.37,-0.92,2.75,897.73,22.94,
4357137,-0.02,-0.05,0.98,0.37,-0.43,2.69,897.79,22.94,
4357176,-0.02,-0.06,0.92,-0.06,0.31,2.75,897.76,22.95,
4357214,-0.02,-0.06,0.94,-0.24,1.04,2.5,897.73,22.95,
4357252,-0.02,-0.06,0.91,-0.55,2.87,2.56,897.71,22.94,
4357290,-0.01,-0.05,0.94,-0.49,3.48,2.5,897.81,22.95,
4357329,-0.02,-0.06,0.93,-0.79,5.0,2.2,897.8,22.94,
4357379,-0.0,-0.05,0.98,-0.37,5.8,2.32,897.78,22.94,
4357417,-0.01,-0.06,0.99,-0.31,6.65,2.38,897.84,22.95,
4357455,-0.01,-0.05,0.99,-0.12,6.59,2.38,897.74,22.94,
4357493,-0.01,-0.05,1.04,0.0,6.77,2.38,897.84,22.95,
4357532,-0.01,-0.05,1.05,0.18,6.84,2.38,897.79,22.95,
4357570,-0.01,-0.05,1.06,0.24,6.35,2.56,897.8,22.95,
4357608,-0.01,-0.05,1.03,0.12,6.29,2.56,897.82,22.95,
4357646,-0.01,-0.05,1.04,0.31,6.23,2.62,897.84,22.95,
4357685,-0.0,-0.04,1.02,0.37,6.35,2.62,897.84,22.95,
4357735,-0.0,-0.05,1.04,0.79,5.8,2.81,897.88,22.94,
4357773,-0.0,-0.05,1.02,0.85,5.8,2.75,897.94,22.95,
4357811,-0.0,-0.05,1.02,1.1,5.31,2.81,897.93,22.95,
4357849,-0.01,-0.04,1.0,1.22,4.82,2.99,897.92,22.96,
4357888,-0.01,-0.05,1.02,1.34,4.76,2.87,897.93,22.95,
4357926,-0.0,-0.05,0.99,1.53,4.88,2.62,897.87,22.94,
4357964,-0.01,-0.05,1.01,1.53,4.88,2.75,897.91,22.95,
4358002,0.01,-0.05,0.97,1.22,5.19,2.56,897.93,22.94,
4358041,-0.01,-0.05,0.98,1.28,5.43,2.38,897.91,22.95,
4358079,-0.01,-0.05,0.99,1.22,5.86,2.62,897.88,22.95,
4358129,-0.0,-0.05,1.01,0.98,5.68,2.62,897.91,22.94,
4358167,-0.01,-0.04,1.04,0.55,5.8,2.26,897.93,22.94,
4358205,-0.0,-0.05,1.05,0.55,5.8,2.5,897.91,22.96,
4358244,-0.01,-0.05,1.04,0.61,6.04,2.26,897.93,22.94,
4358282,0.0,-0.05,1.03,0.67,6.29,2.14,897.99,22.95,
4358320,-0.01,-0.04,1.04,0.73,6.53,1.89,897.98,22.95,
4358358,0.0,-0.04,1.03,0.61,6.71,1.89,897.99,22.94,
4358397,0.01,-0.04,1.06,0.85,6.53,1.71,897.99,22.95,
4358435,-0.0,-0.04,1.04,0.92,6.84,1.65,897.99,22.94,
4358473,0.0,-0.04,1.06,1.04,6.9,1.53,898.0,22.94,
4358549,0.01,-0.04,1.08,1.1,6.65,1.1,898.03,22.91,
4358587,0.0,-0.03,1.1,1.22,6.65,1.04,897.98,22.92,
4358626,0.0,-0.04,1.11,1.34,6.29,0.98,898.04,22.93,
4358716,0.01,-0.03,1.1,1.95,5.13,0.79,897.96,22.9,
4358754,-0.0,-0.04,1.09,1.95,5.31,0.67,898.0,22.92,
4358792,0.0,-0.03,1.08,2.2,4.52,0.61,898.01,22.91,
4358830,0.0,-0.03,1.08,2.14,4.21,0.49,898.01,22.92,
4358868,0.01,-0.04,1.05,2.26,3.78,0.31,898.0,22.92,
4358907,0.01,-0.04,1.05,2.32,3.3,0.37,898.01,22.92,
4358957,-0.01,-0.04,1.03,2.44,2.62,0.24,898.03,22.9,
4358995,-0.0,-0.04,1.02,2.26,2.2,0.18,898.02,22.91,
4359033,0.0,-0.05,1.0,2.2,1.83,-0.12,898.05,22.91,
4359071,-0.01,-0.05,0.98,2.2,1.4,-0.06,898.06,22.92,
4359110,-0.0,-0.05,0.96,2.01,1.1,-0.24,898.02,22.91,
4359148,0.0,-0.04,0.95,1.83,1.71,-0.49,898.08,22.92,
4359186,-0.01,-0.04,0.95,1.83,1.65,-0.67,898.05,22.92,
4359224,0.0,-0.04,0.95,1.71,1.65,-0.73,898.03,22.91,
4359263,-0.01,-0.04,0.97,1.95,1.34,-1.1,898.03,22.91,
4359301,-0.01,-0.05,0.97,1.89,1.59,-1.22,898.06,22.91,
4359351,-0.01,-0.04,0.99,1.95,2.26,-1.34,897.98,22.9,
4359389,-0.01,-0.04,0.96,1.89,2.44,-1.46,898.04,22.92,
4359427,-0.02,-0.04,0.95,1.77,2.75,-1.53,898.13,22.92,
4359466,-0.01,-0.04,0.97,1.71,3.05,-1.65,898.06,22.91,
4359504,-0.01,-0.05,0.96,1.65,2.93,-1.89,898.04,22.91,
4359542,-0.02,-0.04,0.97,1.83,3.05,-1.95,898.05,22.91,
4359580,-0.02,-0.04,0.98,1.77,2.93,-2.01,898.01,22.91,
4359619,-0.02,-0.04,0.99,1.4,2.93,-2.14,898.05,22.92,
4359657,-0.02,-0.04,1.0,1.34,3.05,-2.2,898.07,22.92,
4359695,-0.03,-0.04,1.01,1.16,3.36,-2.38,898.08,22.91,
4359745,-0.02,-0.04,1.02,1.22,3.42,-2.38,898.06,22.91,
4359783,-0.02,-0.03,1.04,1.22,3.42,-2.62,898.1,22.93,
4359822,-0.03,-0.04,1.03,1.4,3.48,-2.44,898.05,22.91,
4359860,-0.02,-0.03,1.05,1.28,3.66,-2.5,898.12,22.93,
4359898,-0.03,-0.03,1.03,1.65,3.91,-2.56,898.08,22.93,
4359937,-0.02,-0.03,1.04,1.53,3.54,-2.5,898.13,22.92,
4359975,-0.03,-0.04,1.02,1.77,3.78,-2.62,898.1,22.94,
4360013,-0.03,-0.03,1.03,1.77,3.6,-2.69,898.08,22.93,
4360051,-0.02,-0.04,1.04,1.83,3.97,-2.56,898.09,22.93,
4360101,-0.03,-0.03,1.02,2.01,3.54,-2.81,898.1,22.91,
4360140,-0.03,-0.03,1.03,2.2,3.78,-2.56,898.07,22.93,
4360178,-0.03,-0.04,1.01,2.01,3.6,-2.75,898.06,22.92,
4360216,-0.04,-0.04,1.01,2.26,3.6,-2.62,898.04,22.93,
4360254,-0.03,-0.04,1.0,2.38,3.72,-2.75,898.13,22.92,
4360293,-0.03,-0.03,1.0,2.08,3.3,-2.81,898.09,22.93,
4360331,-0.03,-0.03,1.03,2.32,3.11,-2.75,898.09,22.94,
4360369,-0.03,-0.04,1.02,2.32,2.5,-2.75,898.03,22.94,
4360407,-0.03,-0.03,1.05,2.32,1.95,-2.38,898.12,22.93,
4360457,-0.04,-0.03,1.05,2.26,0.98,-2.5,898.1,22.91,
4360496,-0.03,-0.03,1.05,2.32,0.73,-2.38,898.06,22.92,
4360534,-0.03,-0.03,1.04,2.38,-0.06,-2.32,898.1,22.92,
4360572,-0.04,-0.04,1.02,2.26,-0.61,-2.38,898.11,22.93,
4360610,-0.04,-0.03,0.99,2.62,-1.04,-2.26,898.09,22.94,
4360649,-0.03,-0.03,1.0,2.62,-1.46,-2.2,898.18,22.92,
4360687,-0.05,-0.03,0.97,2.81,-1.71,-2.2,898.12,22.93,
4360725,-0.05,-0.04,0.96,2.99,-1.83,-2.14,898.13,22.93,
4360763,-0.04,-0.04,0.96,2.75,-2.01,-2.2,898.13,22.93,
4360802,-0.03,-0.04,0.95,2.87,-2.62,-2.2,898.12,22.93,
4360852,-0.05,-0.04,0.9,2.44,-2.56,-2.08,898.1,22.92,
4360890,-0.05,-0.04,0.9,2.14,-2.2,-2.08,898.08,22.94,
4360928,-0.05,-0.05,0.86,1.89,-1.95,-2.08,898.1,22.93,
4360966,-0.06,-0.04,0.86,1.71,-2.2,-1.95,898.11,22.93,
4361005,-0.07,-0.04,0.84,1.22,-1.1,-1.89,898.13,22.94,
4361043,-0.05,-0.04,0.85,1.04,-1.04,-1.89,898.15,22.94,
4361081,-0.06,-0.05,0.84,0.85,-0.12,-1.83,898.18,22.94,
4361119,-0.06,-0.05,0.84,0.73,0.55,-1.71,898.1,22.93,
4361158,-0.06,-0.04,0.87,0.55,1.34,-1.71,898.16,22.93,
4361208,-0.07,-0.04,0.89,0.31,1.95,-1.46,898.09,22.91,
4361246,-0.07,-0.04,0.9,0.24,2.56,-1.34,898.12,22.93,
4361284,-0.06,-0.04,0.92,0.31,3.42,-1.4,898.13,22.93,
4361322,-0.06,-0.03,0.93,0.31,3.66,-1.22,898.11,22.94,
4361361,-0.06,-0.03,0.93,0.31,4.15,-0.98,898.11,22.93,
4361399,-0.06,-0.03,0.95,0.55,4.39,-0.85,898.17,22.93,
4361437,-0.06,-0.03,0.97,0.67,4.82,-0.73,898.13,22.95,
4361475,-0.07,-0.03,0.99,0.79,4.7,-0.43,898.16,22.94,
4361514,-0.06,-0.03,1.02,1.1,4.88,-0.43,898.15,22.94,
4361552,-0.06,-0.03,1.01,1.1,5.43,-0.31,898.1,22.92,
4361628,-0.08,-0.03,1.02,1.59,5.25,0.18,898.07,22.9,
4361666,-0.07,-0.03,1.01,1.34,5.8,0.37,898.1,22.91,
4361704,-0.07,-0.03,1.02,1.95,5.55,0.43,898.11,22.92,
4361794,-0.06,-0.03,1.04,1.95,4.94,0.92,898.14,22.89,
4361833,-0.07,-0.02,1.03,2.2,4.7,1.04,898.17,22.9,
4361871,-0.06,-0.03,1.04,2.69,4.52,1.22,898.18,22.91,
4361909,-0.06,-0.03,1.01,2.62,4.7,1.53,898.15,22.92,
4361947,-0.06,-0.02,1.06,2.99,3.97,1.59,898.21,22.92,
4361985,-0.07,-0.03,1.02,2.99,4.15,2.01,898.13,22.92,
4362035,-0.06,-0.02,1.04,3.36,3.48,2.01,898.18,22.9,
4362074,-0.06,-0.03,1.01,3.36,3.97,2.14,898.19,22.92,
4362112,-0.06,-0.02,0.99,3.54,3.6,2.5,898.19,22.91,
4362150,-0.07,-0.02,0.99,3.6,3.78,2.62,898.2,22.92,
4362188,-0.06,-0.02,0.98,3.6,3.72,2.69,898.17,22.92,
4362227,-0.06,-0.03,0.97,3.36,3.85,2.75,898.3,22.93,
4362265,-0.06,-0.03,0.96,3.42,3.42,3.05,898.23,22.93,
4362303,-0.05,-0.03,0.95,3.3,3.17,3.05,898.28,22.94,
4362341,-0.06,-0.03,0.91,3.11,3.05,3.48,898.22,22.92,
4362380,-0.05,-0.03,0.94,2.99,2.2,3.42,898.2,22.93,
4362430,-0.06,-0.04,0.91,2.5,2.44,3.66,898.25,22.92,
4362468,-0.06,-0.03,0.93,2.69,1.95,3.85,898.28,22.93,
4362506,-0.05,-0.04,0.89,2.38,2.75,3.85,898.27,22.94,
4362544,-0.04,-0.03,0.91,2.62,1.95,4.15,898.33,22.93,
4362583,-0.05,-0.04,0.91,2.69,1.89,4.03,898.32,22.94,
4362621,-0.05,-0.04,0.93,2.99,1.89,4.21,898.32,22.93,
4362659,-0.04,-0.04,0.96,3.36,2.44,4.27,898.35,22.93,
4362697,-0.04,-0.03,0.97,3.78,2.26,4.27,898.43,22.93,
4362736,-0.05,-0.04,0.96,4.39,2.56,4.52,898.38,22.94,
4362774,-0.04,-0.05,0.93,4.52,2.99,4.39,898.38,22.93,
4362824,-0.03,-0.03,0.93,5.07,2.81,4.33,898.41,22.92,
4362862,-0.03,-0.04,0.9,5.37,3.05,4.64,898.33,22.92,
4362900,-0.03,-0.05,0.88,5.68,3.17,4.52,898.44,22.93,
4362939,-0.03,-0.05,0.89,6.23,3.36,4.27,898.47,22.94,
4362977,-0.04,-0.05,0.85,6.16,3.97,4.39,898.46,22.93,
4363015,-0.03,-0.04,0.86,6.59,3.6,4.33,898.45,22.92,
4363053,-0.03,-0.05,0.84,6.47,4.46,4.33,898.46,22.94,
4363092,-0.02,-0.05,0.83,6.71,4.52,4.09,898.5,22.94,
4363130,-0.03,-0.05,0.83,6.84,4.76,4.15,898.51,22.94,
4363180,-0.02,-0.05,0.83,6.77,4.39,4.27,898.46,22.92,
4363218,-0.03,-0.05,0.81,6.96,4.64,3.97,898.53,22.93,
4363256,-0.02,-0.05,0.8,6.77,4.58,4.09,898.52,22.93,
4363295,-0.01,-0.06,0.78,6.9,4.52,3.91,898.58,22.94,
4363333,-0.01,-0.05,0.75,6.71,4.58,3.78,898.58,22.94,
4363371,-0.02,-0.05,0.74,7.08,4.52,3.78,898.55,22.93,
4363409,-0.01,-0.06,0.71,7.02,4.33,3.72,898.54,22.93,
4363448,-0.0,-0.06,0.69,6.65,3.97,3.48,898.57,22.95,
4363486,-0.0,-0.06,0.7,6.35,3.3,3.54,898.61,22.92,
4363524,-0.01,-0.07,0.67,5.55,3.48,3.42,898.6,22.93,
4363574,-0.01,-0.06,0.69,5.0,2.75,3.17,898.62,22.92,
4363612,-0.0,-0.06,0.69,4.46,2.5,3.23,898.56,22.92,
4363651,-0.01,-0.06,0.72,4.15,1.77,2.93,898.7,22.93,
4363689,-0.01,-0.06,0.72,4.03,1.83,2.75,898.61,22.93,
4363727,-0.0,-0.06,0.74,3.78,2.01,2.56,898.63,22.94,
4363765,-0.01,-0.06,0.74,3.85,1.71,2.62,898.67,22.94,
4363804,-0.01,-0.06,0.74,3.66,1.83,2.44,898.66,22.94,
4363842,-0.01,-0.06,0.76,3.78,1.95,2.01,898.74,22.94,
4363880,-0.0,-0.06,0.76,3.78,1.95,2.01,898.66,22.93,
4363919,0.0,-0.05,0.79,3.91,0.85,1.95,898.75,22.93,
4363968,-0.02,-0.06,0.77,3.6,1.65,1.77,898.78,22.92,
4364007,-0.01,-0.06,0.79,3.78,1.34,1.71,898.81,22.93,
4364045,-0.01,-0.06,0.78,3.3,1.71,1.53,898.72,22.93,
4364083,-0.02,-0.05,0.78,3.23,1.65,1.59,898.8,22.93,
4364121,-0.01,-0.06,0.79,2.93,1.89,1.34,898.8,22.93,
4364160,-0.02,-0.06,0.79,2.81,2.14,1.16,898.79,22.93,
4364198,-0.02,-0.06,0.84,2.93,1.65,1.22,898.85,22.93,
4364236,-0.01,-0.06,0.82,2.32,2.32,1.04,898.85,22.94,
4364274,-0.03,-0.05,0.87,2.44,2.08,0.98,898.86,22.93,
4364324,-0.02,-0.06,0.85,2.2,2.26,0.92,898.91,22.91,
4364363,-0.02,-0.05,0.88,2.32,1.65,0.67,898.92,22.93,
4364401,-0.03,-0.06,0.86,2.14,2.26,1.04,898.93,22.93,
4364439,-0.03,-0.05,0.88,2.5,1.71,0.92,898.94,22.93,
4364477,-0.03,-0.05,0.89,2.62,1.53,1.04,898.98,22.92,
4364516,-0.04,-0.05,0.9,2.56,1.65,0.92,898.91,22.92,
4364554,-0.03,-0.05,0.9,2.62,1.89,0.79,898.96,22.92,
4364592,-0.03,-0.06,0.91,2.5,2.32,1.04,898.99,22.92,
4364630,-0.04,-0.05,0.91,2.32,2.69,1.04,898.99,22.92,
4364669,-0.04,-0.05,0.95,2.08,3.78,0.98,899.02,22.93,
4364745,-0.03,-0.05,0.97,1.53,4.58,0.85,899.07,22.9,
4364783,-0.02,-0.05,1.02,1.16,4.82,0.79,899.11,22.9,
4364821,-0.03,-0.04,1.05,0.98,5.07,0.98,899.12,22.93,
4364911,-0.02,-0.04,1.13,1.1,4.39,1.1,899.24,22.88,
4364949,-0.04,-0.04,1.13,0.73,4.46,1.1,899.2,22.9,
4364987,-0.03,-0.03,1.13,0.79,3.48,1.28,899.23,22.91,
4365026,-0.02,-0.03,1.17,1.16,2.93,1.4,899.28,22.9,
4365064,-0.02,-0.04,1.1,0.92,3.17,1.22,899.22,22.91,
4365102,-0.02,-0.03,1.12,1.22,2.01,1.53,899.23,22.92,
4365140,-0.03,-0.05,1.1,0.98,2.44,1.53,899.27,22.91,
4365190,-0.02,-0.05,1.09,1.16,1.65,1.53,899.28,22.89,
4365229,-0.03,-0.04,1.09,1.04,1.1,1.34,899.34,22.91,
4365267,-0.02,-0.06,1.07,1.34,1.04,1.46,899.35,22.91,
4365305,-0.03,-0.05,1.05,1.46,0.85,1.34,899.37,22.91,
4365343,-0.02,-0.04,1.07,1.83,1.1,1.34,899.44,22.92,
4365382,-0.03,-0.04,1.03,2.32,1.22,1.28,899.4,22.91,
4365420,-0.03,-0.04,1.06,2.99,0.49,1.16,899.47,22.92,
4365458,-0.02,-0.05,1.02,3.66,0.92,1.28,899.49,22.91,
4365496,-0.02,-0.05,1.0,4.03,0.43,1.4,899.45,22.92,
4365546,-0.02,-0.05,0.95,4.39,0.49,1.46,899.5,22.91,
4365585,-0.02,-0.06,0.93,4.7,0.43,1.34,899.53,22.92,
4365623,-0.03,-0.05,0.92,4.94,0.31,1.4,899.54,22.92,
4365661,-0.04,-0.06,0.88,5.07,0.12,1.59,899.48,22.92,
4365699,-0.03,-0.05,0.86,4.76,0.0,1.59,899.54,22.92,
4365738,-0.02,-0.06,0.82,4.88,0.18,1.59,899.54,22.92,
4365776,-0.01,-0.05,0.84,4.39,-0.43,1.46,899.62,22.93,
4365814,-0.03,-0.06,0.82,4.09,-0.12,1.46,899.57,22.92,
4365852,-0.03,-0.07,0.8,3.36,-0.18,1.71,899.65,22.93,
4365891,-0.02,-0.06,0.86,2.69,0.06,1.59,899.64,22.93,
4365941,-0.03,-0.06,0.86,2.14,-0.18,1.59,899.65,22.91,
4365979,-0.02,-0.06,0.88,2.08,0.49,1.4,899.68,22.93,
4366017,-0.01,-0.06,0.91,1.83,0.67,1.28,899.66,22.91,
4366055,-0.02,-0.07,0.91,1.4,0.79,1.46,899.68,22.91,
4366094,-0.02,-0.06,0.95,1.1,1.22,1.4,899.77,22.91,
4366132,-0.03,-0.07,0.93,0.67,2.2,1.34,899.77,22.92,
4366170,-0.02,-0.05,1.0,0.55,2.32,1.46,899.76,22.92,
4366208,-0.02,-0.06,0.99,0.55,3.23,1.46,899.8,22.92,
4366247,-0.01,-0.07,0.98,0.43,3.3,1.28,899.87,22.92,
4366285,-0.02,-0.06,1.0,0.73,2.99,1.4,899.87,22.94,
4366335,-0.02,-0.06,0.99,0.79,2.99,1.28,899.94,22.92,
4366373,-0.02,-0.06,1.0,0.79,3.17,1.22,899.96,22.93,
4366412,-0.03,-0.06,0.99,1.22,2.81,1.28,899.92,22.92,
4366450,-0.02,-0.06,1.01,1.71,2.75,1.4,899.96,22.92,
4366488,-0.02,-0.06,0.99,1.77,3.42,1.34,900.0,22.92,
4366526,-0.01,-0.06,1.0,2.14,3.78,1.28,900.01,22.93,
4366565,-0.02,-0.06,1.0,2.32,3.6,1.34,900.06,22.93,
4366603,-0.02,-0.07,0.98,2.38,3.17,1.4,900.03,22.94,
4366641,-0.02,-0.06,0.98,2.32,2.99,1.4,900.03,22.94,
4366691,-0.02,-0.07,0.99,2.32,2.5,1.46,900.08,22.93,
4366729,-0.01,-0.07,0.98,2.08,2.08,1.4,900.11,22.94,
4366768,-0.02,-0.07,1.0,1.89,2.14,1.34,900.07,22.93,
4366806,-0.01,-0.07,0.97,1.46,2.14,1.53,900.13,22.93,
4366844,-0.01,-0.06,1.01,1.53,1.95,1.28,900.13,22.94,
4366882,-0.02,-0.07,0.99,0.98,2.38,1.46,900.2,22.93,
4366921,-0.02,-0.06,1.0,1.16,1.77,1.46,900.18,22.92,
4366959,-0.02,-0.07,0.99,1.1,2.87,1.28,900.2,22.93,
4366997,-0.02,-0.08,0.96,0.92,2.93,1.53,900.22,22.94,
4367035,-0.04,-0.06,1.01,0.92,2.87,1.28,900.23,22.92,
4367085,-0.02,-0.07,0.97,0.61,4.27,1.59,900.3,22.92,
4367124,-0.01,-0.06,1.06,0.67,3.66,1.4,900.26,22.92,
4367162,-0.02,-0.07,1.02,0.43,4.64,1.46,900.34,22.92,
4367200,-0.01,-0.06,1.04,0.79,3.91,1.34,900.36,22.93,
4367238,-0.01,-0.07,1.03,0.98,4.27,1.46,900.32,22.93,
4367277,-0.02,-0.08,0.99,1.22,3.3,1.53,900.42,22.93,
4367315,-0.03,-0.07,0.99,1.83,3.36,1.4,900.46,22.93,
4367353,-0.01,-0.07,1.0,1.89,3.48,1.28,900.42,22.92,
4367391,-0.01,-0.07,1.0,1.77,3.72,1.46,900.39,22.91,
4367441,-0.03,-0.07,1.02,1.71,3.78,1.4,900.44,22.91,
4367480,-0.02,-0.08,1.05,1.53,4.76,1.4,900.48,22.92,
4367518,-0.02,-0.08,1.03,1.46,5.31,1.4,900.47,22.93,
4367556,-0.02,-0.06,1.08,1.59,4.88,1.28,900.48,22.92,
4367595,-0.02,-0.08,1.04,1.65,5.68,1.34,900.57,22.93,
4367633,-0.02,-0.07,1.03,1.71,5.19,1.34,900.57,22.92,
4367671,-0.01,-0.07,1.06,1.71,5.19,1.46,900.57,22.92,
4367709,-0.02,-0.08,1.04,1.4,5.19,1.46,900.61,22.92,
4367748,-0.02,-0.07,1.09,1.65,5.07,1.28,900.59,22.91,
4367786,-0.01,-0.07,1.08,1.65,5.19,1.4,900.65,22.91,
4367862,-0.01,-0.08,1.09,1.53,4.21,1.34,900.63,22.88,
4367900,-0.02,-0.06,1.1,1.83,3.72,1.16,900.7,22.88,
4367938,-0.01,-0.07,1.1,1.95,4.03,1.28,900.72,22.9,
4368028,-0.01,-0.07,1.07,2.08,3.3,1.1,900.76,22.86,
4368067,-0.02,-0.07,1.02,1.89,3.36,1.04,900.81,22.87,
4368105,-0.02,-0.07,1.06,2.26,2.5,1.1,900.81,22.86,
4368143,-0.01,-0.09,1.02,2.14,3.3,1.04,900.8,22.88,
4368181,-0.02,-0.07,1.05,2.26,2.87,0.85,900.8,22.87,
4368220,-0.01,-0.07,1.03,1.95,3.48,0.98,900.8,22.87,
4368258,-0.03,-0.07,1.07,2.14,3.11,0.67,900.84,22.88,
4368308,-0.02,-0.09,1.08,1.77,4.46,0.67,900.87,22.88,
4368346,-0.02,-0.07,1.17,2.2,3.72,0.43,900.87,22.89,
4368384,-0.01,-0.07,1.15,1.83,4.21,0.61,900.89,22.88,
4368423,-0.02,-0.07,1.22,2.08,4.39,0.49,900.88,22.88,
4368461,-0.02,-0.08,1.19,1.89,4.76,0.55,900.92,22.9,
4368499,-0.02,-0.07,1.23,2.44,2.56,0.55,900.92,22.88,
4368537,-0.02,-0.07,1.23,2.14,1.77,0.61,900.93,22.89,
4368576,-0.01,-0.06,1.24,2.08,1.34,0.67,900.95,22.89,
4368614,-0.02,-0.08,1.22,2.01,1.16,0.61,900.97,22.9,
4368664,-0.02,-0.08,1.2,2.01,-0.12,0.55,900.97,22.89,
4368702,-0.02,-0.08,1.17,2.26,0.73,0.49,901.02,22.88,
4368740,-0.01,-0.08,1.11,2.26,0.43,0.43,901.04,22.89,
4368779,-0.02,-0.08,1.1,2.32,-0.12,0.24,900.98,22.9,
4368817,-0.04,-0.09,1.03,2.32,-0.18,0.43,900.95,22.89,
4368855,-0.03,-0.09,1.03,2.14,-0.49,0.43,901.11,22.9,
4368893,-0.01,-0.09,1.04,1.83,0.24,0.37,901.05,22.9,
4368932,-0.02,-0.09,1.02,1.71,-0.37,0.18,901.07,22.9,
4368970,-0.04,-0.09,1.03,1.53,-0.24,0.24,901.16,22.91,
4369008,-0.03,-0.09,1.0,1.16,0.37,0.24,901.1,22.91,
4369058,-0.03,-0.08,1.03,1.04,0.49,0.12,901.1,22.9,
4369096,-0.03,-0.08,0.99,0.67,0.61,0.12,901.19,22.91,
4369135,-0.02,-0.08,1.02,1.16,0.92,0.24,901.13,22.89,
4369173,-0.02,-0.09,0.97,0.98,0.85,0.06,901.16,22.91,
4369211,-0.03,-0.08,0.97,1.1,0.37,0.18,901.14,22.9,
4369249,-0.02,-0.09,0.97,1.34,0.67,0.12,901.22,22.9,
4369288,-0.02,-0.09,0.9,0.67,0.98,0.0,901.23,22.91,
4369326,-0.02,-0.08,0.94,1.1,-0.37,0.18,901.19,22.91,
4369364,-0.04,-0.1,0.94,0.67,-0.55,0.31,901.23,22.91,
4369402,-0.03,-0.08,0.96,0.24,-0.55,0.12,901.22,22.91,
4369452,-0.03,-0.09,1.02,0.31,0.31,0.43,901.29,22.9,
4369491,-0.02,-0.11,0.95,-0.18,1.46,0.24,901.26,22.89,
4369529,-0.03,-0.08,1.06,0.43,1.04,0.12,901.28,22.9,
4369567,-0.04,-0.11,1.03,0.24,2.5,0.31,901.32,22.9,
4369605,-0.03,-0.09,0.98,0.0,1.83,0.31,901.38,22.9,
4369644,-0.04,-0.07,1.02,0.31,1.77,0.37,901.34,22.9,
4369682,-0.04,-0.09,0.96,-0.12,2.56,0.49,901.35,22.92,
4369720,-0.04,-0.09,1.0,0.43,2.01,0.43,901.34,22.9,
4369758,-0.03,-0.1,1.0,-0.12,3.23,0.55,901.34,22.9,
4369808,-0.04,-0.08,1.09,0.31,1.83,0.73,901.36,22.9,
4369846,-0.04,-0.09,1.15,-0.31,2.56,0.79,901.38,22.91,
4369885,-0.05,-0.09,1.23,0.43,1.89,0.79,901.39,22.91,
4369923,-0.04,-0.1,1.23,-0.12,3.66,0.98,901.43,22.91,
4369961,-0.02,-0.09,1.23,0.37,3.48,1.04,901.45,22.9,
4369999,-0.04,-0.08,1.26,0.37,3.91,1.1,901.46,22.91,
4370038,-0.03,-0.1,1.22,0.61,4.15,1.4,901.5,22.91,
4370076,-0.03,-0.08,1.27,0.67,3.3,1.28,901.45,22.92,
4370114,-0.04,-0.08,1.24,0.49,3.6,1.4,901.48,22.92,
4370152,-0.03,-0.08,1.25,0.67,2.93,1.53,901.56,22.92,
4370202,-0.01,-0.09,1.29,0.55,3.3,1.4,901.53,22.9,
4370241,-0.03,-0.09,1.26,0.79,3.17,1.59,901.56,22.9,
4370279,-0.03,-0.09,1.21,0.85,3.54,1.46,901.52,22.91,
4370317,-0.02,-0.09,1.19,0.92,3.54,1.53,901.59,22.9,
4370355,-0.02,-0.09,1.13,0.92,3.97,1.46,901.56,22.91,
4370394,-0.01,-0.09,1.13,0.98,3.66,1.34,901.61,22.91,
4370432,-0.01,-0.1,1.09,0.92,3.78,1.4,901.56,22.9,
4370470,-0.02,-0.09,1.0,0.49,4.58,1.4,901.59,22.91,
4370508,-0.01,-0.09,1.02,0.79,4.64,1.1,901.59,22.9,
4370547,-0.01,-0.11,0.97,0.61,5.74,0.92,901.64,22.91,
4370597,-0.02,-0.09,0.98,0.92,5.0,1.1,901.63,22.9,
4370635,-0.02,-0.09,0.96,0.55,5.74,1.04,901.59,22.91,
4370673,-0.01,-0.1,0.96,0.85,5.55,0.98,901.64,22.9,
4370711,-0.03,-0.1,0.94,0.73,5.74,1.16,901.65,22.9,
4370749,-0.02,-0.09,0.92,0.85,5.31,1.04,901.63,22.9,
4370788,-0.02,-0.09,0.91,0.85,5.13,1.1,901.65,22.91,
4370826,-0.02,-0.1,0.92,0.67,5.07,1.04,901.63,22.91,
4370864,-0.02,-0.09,0.94,0.61,5.37,0.98,901.71,22.9,
4370902,-0.02,-0.1,0.92,0.67,5.19,1.1,901.66,22.91,
4370980,-0.04,-0.1,0.98,1.04,4.76,0.98,901.65,22.88,
4371018,-0.02,-0.09,1.01,1.16,3.72,0.92,901.66,22.9,
4371056,-0.02,-0.1,0.97,0.92,3.48,1.04,901.75,22.89,
4371146,-0.02,-0.1,0.96,1.22,3.36,1.1,901.71,22.85,
4371184,-0.01,-0.09,1.02,1.4,2.44,1.16,901.77,22.87,
4371222,-0.02,-0.1,1.0,1.28,2.38,1.22,901.75,22.87,
4371261,-0.02,-0.09,1.04,1.65,1.28,0.98,901.76,22.87,
4371299,0.0,-0.1,1.04,1.53,0.92,0.92,901.77,22.87,
4371337,-0.03,-0.1,0.98,1.22,0.85,0.92,901.76,22.89,
4371375,-0.05,-0.09,0.98,1.53,1.83,0.79,901.79,22.89,
4371425,-0.02,-0.09,0.95,1.4,1.4,0.67,901.8,22.87,
4371464,-0.03,-0.09,0.96,1.28,1.16,0.61,901.81,22.89,
4371502,-0.04,-0.1,0.96,1.46,1.77,0.73,901.82,22.89,
4371540,-0.04,-0.1,0.97,1.53,1.59,0.73,901.75,22.88,
4371578,-0.03,-0.09,0.99,1.59,1.16,0.61,901.83,22.89,
4371617,-0.04,-0.09,1.01,1.71,1.04,0.85,901.85,22.89,
4371655,-0.03,-0.1,0.99,1.59,1.34,0.79,901.78,22.89,
4371693,-0.02,-0.09,1.02,1.59,0.92,0.73,901.84,22.9,
4371731,-0.03,-0.1,1.0,1.53,1.53,0.67,901.87,22.89,
4371770,-0.03,-0.09,1.04,1.71,0.98,0.92,901.89,22.9,
4371820,-0.01,-0.09,0.97,1.59,0.67,0.85,901.85,22.88,
4371858,-0.05,-0.1,1.03,2.01,-0.31,1.04,901.89,22.88,
4371896,-0.04,-0.11,0.99,1.95,0.67,0.85,901.89,22.9,
4371934,-0.01,-0.09,1.02,1.95,0.43,0.85,901.92,22.9,
4371973,-0.02,-0.09,0.99,1.83,1.04,0.79,901.93,22.89,
4372011,-0.03,-0.09,0.98,1.65,0.55,0.92,901.91,22.9,
4372049,-0.04,-0.09,1.03,1.95,0.79,0.92,901.86,22.9,
4372087,-0.02,-0.11,1.0,1.71,0.55,0.79,901.97,22.9,
4372126,-0.05,-0.08,1.04,1.77,0.61,0.79,901.93,22.9,
4372176,-0.01,-0.1,1.05,1.46,2.44,0.85,902.02,22.9,
4372214,-0.01,-0.09,1.08,1.46,2.38,0.61,901.93,22.9,
4372252,-0.04,-0.09,1.1,1.59,2.2,0.67,901.96,22.9,
4372290,-0.03,-0.11,1.06,1.34,3.3,0.67,902.0,22.9,
4372329,-0.03,-0.08,1.1,1.4,2.75,0.67,901.98,22.92,
4372367,-0.01,-0.09,1.06,1.46,3.36,0.67,902.01,22.9,
4372405,-0.02,-0.1,1.05,1.59,2.99,0.73,902.0,22.9,
4372443,-0.02,-0.09,1.05,1.46,2.69,0.73,901.99,22.9,
4372482,-0.02,-0.09,1.02,1.46,2.81,0.73,902.09,22.91,
4372520,-0.03,-0.09,1.02,1.77,2.62,0.67,902.08,22.9,
4372570,-0.03,-0.09,1.01,1.34,2.5,0.73,901.98,22.89,
4372608,-0.03,-0.09,1.03,1.53,3.3,0.79,902.03,22.9,
4372646,-0.03,-0.09,0.97,1.34,3.23,0.73,902.02,22.9,
4372685,-0.03,-0.08,1.04,1.59,3.36,0.67,902.03,22.9,
4372723,-0.01,-0.1,1.02,1.22,4.52,0.92,902.05,22.9,
4372761,-0.02,-0.09,1.02,1.34,3.78,0.79,902.06,22.9,
4372799,-0.03,-0.08,1.07,1.65,3.54,0.92,902.11,22.9,
4372838,-0.02,-0.1,1.06,1.77,2.44,0.79,902.07,22.89,
4372876,-0.03,-0.09,1.11,1.83,1.65,0.85,902.12,22.9,
4372926,-0.0,-0.09,1.12,2.32,1.46,0.85,902.13,22.89,
4372964,-0.02,-0.09,1.06,2.38,1.22,0.79,902.16,22.91,
4373002,-0.02,-0.09,1.04,2.44,0.24,0.85,902.1,22.9,
4373041,-0.04,-0.08,1.03,2.62,0.06,0.79,902.17,22.91,
4373079,-0.02,-0.09,1.01,2.62,-0.12,0.73,902.02,22.88,
4373117,-0.01,-0.09,1.04,2.75,-0.98,0.73,902.12,22.9,
4373155,-0.03,-0.09,1.0,2.5,-0.55,0.67,902.16,22.89,
4373194,-0.02,-0.09,1.01,2.75,-0.18,0.67,902.12,22.9,
4373232,-0.02,-0.1,1.0,2.38,0.06,0.79,902.15,22.89,
4373270,-0.02,-0.09,1.03,2.56,-0.73,0.73,902.16,22.9,
4373320,-0.04,-0.1,1.0,1.89,0.18,0.79,902.11,22.88,
4373358,-0.04,-0.08,1.05,1.65,0.24,0.67,902.13,22.88,
4373397,-0.02,-0.09,1.05,1.46,0.92,0.79,902.15,22.9,
4373435,-0.03,-0.1,1.03,1.4,1.95,0.73,902.16,22.9,
4373473,-0.04,-0.1,1.05,1.34,2.5,0.79,902.17,22.9,
4373511,-0.02,-0.1,1.01,1.16,3.3,0.73,902.17,22.9,
4373550,-0.02,-0.09,1.08,1.4,2.93,0.85,902.17,22.89,
4373588,-0.03,-0.1,1.03,1.65,3.23,0.92,902.21,22.9,
4373626,-0.02,-0.08,1.05,1.53,2.38,0.73,902.28,22.89,
4373664,-0.01,-0.09,1.08,1.77,2.08,0.85,902.23,22.89,
4373714,-0.03,-0.09,1.0,1.46,1.77,1.04,902.23,22.88,
4373753,-0.03,-0.08,1.03,1.53,1.89,0.85,902.23,22.9,
4373791,-0.02,-0.09,1.01,1.22,2.2,1.04,902.27,22.91,
4373829,-0.04,-0.09,1.07,1.28,1.4,1.1,902.24,22.9,
4373867,-0.02,-0.1,1.05,1.1,1.77,1.04,902.2,22.9,
4373906,-0.02,-0.09,1.09,1.4,1.46,1.04,902.21,22.89,
4373944,-0.03,-0.09,1.01,0.92,2.08,1.16,902.19,22.89,
4373982,-0.04,-0.08,1.05,1.16,0.49,1.28,902.23,22.9,
4374020,-0.04,-0.09,1.0,1.22,0.73,1.46,902.24,22.9,
4374096,-0.02,-0.09,1.02,0.98,1.4,1.22,902.2,22.86,
4374135,-0.03,-0.08,1.05,1.04,2.56,1.34,902.19,22.88,
4374173,-0.03,-0.1,1.11,0.92,3.36,1.28,902.21,22.9,
4374263,-0.04,-0.09,1.19,0.92,5.19,1.46,902.31,22.86,
4374301,-0.04,-0.09,1.16,0.67,4.88,1.46,902.33,22.87,
4374339,-0.03,-0.08,1.13,0.79,4.39,1.59,902.31,22.88,
4374377,-0.04,-0.09,1.12,0.98,4.27,1.71,902.33,22.88,
