timestamp,acc_x,acc_y,acc_z,rot_x,rot_y,rot_z,qfe,temp
3460532,-0.11,-0.07,0.95,2.38,3.48,1.22,983.78,32.73
3460581,-0.12,-0.06,0.96,2.26,3.23,1.28,983.77,32.72
3460619,-0.12,-0.04,0.96,1.65,3.72,1.1,983.73,32.74
3460658,-0.13,-0.03,0.96,1.34,3.17,1.1,983.76,32.73
3460696,-0.13,-0.05,0.99,1.53,2.99,0.92,983.83,32.74
3460734,-0.12,-0.04,1.0,1.28,3.42,0.92,983.8,32.74
3460772,-0.12,-0.01,1.02,1.71,3.23,1.04,983.78,32.74
3460810,-0.14,-0.0,0.99,1.89,3.48,1.28,983.78,32.74
3460848,-0.15,-0.01,0.99,2.26,3.54,1.34,983.72,32.73
3460886,-0.15,-0.01,0.99,2.44,3.85,1.34,983.83,32.74
3460936,-0.14,0.0,0.98,2.62,3.97,1.4,983.71,32.72
3460974,-0.12,0.0,0.98,2.44,4.27,1.16,983.77,32.73
3461012,-0.11,0.0,0.97,2.38,4.03,1.28,983.79,32.74
3461050,-0.13,0.01,0.96,1.95,3.85,1.28,983.74,32.73
3461088,-0.12,0.01,0.97,1.77,3.91,1.16,983.81,32.73
3461127,-0.12,0.0,0.99,1.71,3.91,1.16,983.73,32.74
3461165,-0.12,-0.0,0.99,1.65,3.91,0.98,983.82,32.74
3461203,-0.11,-0.0,0.99,1.4,3.91,1.16,983.71,32.75
3461241,-0.12,0.01,1.0,1.59,3.78,1.16,983.76,32.74
3461279,-0.13,0.01,0.99,2.08,3.66,1.16,983.8,32.73
3461329,-0.13,0.01,0.99,2.08,3.85,1.16,983.78,32.72
3461367,-0.12,0.0,0.99,2.38,3.54,1.1,983.76,32.73
3461405,-0.12,0.01,0.99,2.26,3.54,1.22,983.79,32.74
3461443,-0.11,0.01,0.98,2.08,3.36,1.22,983.76,32.73
3461481,-0.12,0.01,0.97,2.26,3.23,1.16,983.77,32.74
3461519,-0.12,0.01,0.97,2.08,3.3,1.1,983.75,32.73
3461558,-0.12,0.0,0.97,1.83,3.54,1.28,983.74,32.74
3461596,-0.13,0.01,0.98,1.89,3.72,1.28,983.77,32.74
3461634,-0.13,0.0,0.97,1.83,4.03,1.22,983.78,32.74
3461672,-0.13,0.01,0.98,1.77,3.48,1.16,983.78,32.73
3461722,-0.13,0.0,0.98,1.83,3.91,1.22,983.84,32.74
3461760,-0.12,0.0,0.99,2.2,3.85,1.22,983.83,32.74
3461798,-0.14,0.01,1.0,2.2,3.72,1.16,983.62,32.72
3461836,-0.12,0.0,0.99,1.83,4.21,1.34,983.91,32.72
3461874,-0.1,0.03,1.03,1.34,3.85,1.34,983.73,32.74
3461912,-0.17,0.02,0.97,1.89,4.21,1.34,983.77,32.75
3461950,-0.15,0.0,0.97,2.62,4.09,1.4,983.8,32.73
3461989,-0.13,0.0,0.98,2.2,3.54,1.4,983.78,32.75
3462027,-0.12,-0.0,0.99,1.83,3.72,1.46,983.72,32.73
3462065,-0.12,-0.0,1.0,1.89,3.48,1.34,983.75,32.73
3462115,-0.12,-0.0,0.99,1.89,3.6,1.65,983.78,32.72
3462153,-0.12,-0.0,0.99,1.77,3.6,1.46,983.77,32.73
3462191,-0.12,-0.0,0.98,2.14,3.54,1.46,983.72,32.73
3462229,-0.13,-0.0,0.99,2.14,3.36,1.34,983.82,32.73
3462267,-0.12,-0.01,0.98,2.08,3.48,1.34,983.75,32.73
3462305,-0.12,-0.01,0.99,2.26,3.3,1.16,983.74,32.74
3462343,-0.12,-0.01,0.98,1.89,3.72,1.16,983.8,32.75
3462382,-0.13,-0.01,0.98,2.2,3.66,1.22,983.8,32.74
3462420,-0.13,-0.01,0.97,1.95,3.78,1.16,983.72,32.74
3462495,-0.12,-0.02,0.98,2.01,4.03,1.16,983.77,32.72
3462534,-0.13,-0.02,0.98,1.95,3.91,1.1,983.77,32.73
3462572,-0.13,-0.02,0.98,1.83,3.91,0.98,983.76,32.73
3462661,-0.12,-0.01,0.99,1.83,3.72,1.1,983.78,32.7
3462699,-0.12,-0.02,0.99,1.71,3.6,1.16,983.79,32.72
3462737,-0.13,-0.01,0.98,1.59,3.6,0.98,983.75,32.71
3462776,-0.1,-0.02,0.99,1.59,3.78,1.1,983.72,32.7
3462814,-0.12,-0.0,0.98,1.59,4.09,1.1,983.78,32.72
3462852,-0.12,0.0,0.99,2.01,4.03,1.1,983.74,32.72
3462890,-0.12,0.01,0.99,1.95,4.03,1.28,983.76,32.73
3462940,-0.12,0.01,0.98,1.65,3.72,1.22,983.75,32.71
3462978,-0.12,0.01,0.99,1.65,3.66,1.28,983.75,32.72
3463016,-0.13,0.01,0.99,1.77,3.66,1.22,983.72,32.72
3463054,-0.12,0.0,0.99,1.95,3.48,1.22,983.67,32.72
3463092,-0.12,0.01,0.99,1.77,3.6,1.22,983.76,32.73
3463130,-0.12,0.01,0.98,1.77,3.66,1.1,983.76,32.73
3463168,-0.12,0.01,0.98,1.89,3.66,1.16,983.77,32.73
3463206,-0.13,0.0,0.98,2.01,3.72,1.16,983.74,32.73
3463244,-0.12,0.01,0.98,1.83,3.78,1.16,983.79,32.73
3463283,-0.12,0.01,0.98,1.71,3.6,1.1,983.8,32.73
3463332,-0.12,0.01,0.99,1.77,3.85,1.22,983.78,32.72
3463370,-0.13,0.0,0.99,1.71,3.78,0.85,983.68,32.72
3463409,-0.12,0.02,0.99,1.83,3.72,0.98,983.8,32.73
3463447,-0.12,0.03,0.99,1.89,3.66,0.98,983.71,32.74
3463485,-0.11,0.02,0.99,1.89,3.66,1.04,983.67,32.72
3463523,-0.12,0.03,0.99,2.01,3.66,1.1,983.7,32.72
3463561,-0.12,0.03,0.98,1.83,3.6,0.92,983.74,32.74
3463599,-0.12,0.04,0.98,1.89,3.66,1.04,983.78,32.74
3463637,-0.13,0.04,0.98,1.77,3.91,1.1,983.72,32.75
3463676,-0.13,0.04,0.98,1.83,3.54,1.16,983.74,32.72
3463725,-0.13,0.04,0.98,1.77,3.66,1.22,983.76,32.72
3463763,-0.13,0.04,0.98,1.95,3.66,1.04,983.74,32.74
3463802,-0.13,0.04,0.99,1.83,3.6,1.28,983.75,32.74
3463840,-0.13,0.04,0.99,2.01,3.54,1.16,983.77,32.74
3463878,-0.13,0.04,0.99,2.01,3.54,1.16,983.8,32.75
3463916,-0.12,0.04,0.99,2.14,3.48,1.34,983.82,32.74
3463954,-0.12,0.05,0.98,1.95,3.85,1.4,983.75,32.75
3463992,-0.12,0.04,0.98,2.14,3.6,1.34,983.78,32.73
3464031,-0.12,0.04,0.98,2.14,3.85,1.4,983.77,32.74
3464069,-0.12,0.04,0.98,1.95,3.72,1.4,983.79,32.74
3464118,-0.13,0.05,0.99,2.08,3.72,1.53,983.75,32.74
3464157,-0.12,0.04,0.98,1.95,3.72,1.53,983.77,32.74
3464195,-0.12,0.03,0.99,2.08,3.78,1.46,983.74,32.74
3464233,-0.13,0.03,0.99,2.01,3.78,1.59,983.72,32.74
3464271,-0.13,0.02,0.99,2.2,3.72,1.77,983.8,32.75
3464309,-0.12,0.02,0.99,2.14,3.54,1.59,983.78,32.74
3464347,-0.12,0.01,0.99,2.26,3.54,1.65,983.7,32.74
3464386,-0.12,0.01,0.98,2.2,3.66,1.71,983.76,32.75
3464424,-0.12,0.0,0.98,2.2,3.6,1.46,983.77,32.74
3464462,-0.12,0.0,0.98,1.95,3.66,1.77,983.82,32.74
3464511,-0.12,0.0,0.98,2.01,3.66,1.65,983.81,32.74
3464550,-0.12,0.0,0.98,1.89,3.66,1.65,983.86,32.74
3464588,-0.12,-0.0,0.99,1.95,3.91,1.59,983.77,32.74
3464626,-0.12,0.01,0.99,1.89,3.54,1.59,983.77,32.75
3464664,-0.12,0.01,0.99,2.01,3.6,1.4,983.72,32.74
3464702,-0.12,0.01,0.99,2.01,3.6,1.46,983.73,32.73
3464740,-0.12,0.01,0.98,2.01,3.66,1.46,983.75,32.74
3464778,-0.12,0.02,0.98,2.01,3.72,1.4,983.75,32.76
3464817,-0.12,0.02,0.98,2.01,3.85,1.46,983.75,32.73
3464866,-0.12,0.02,0.98,2.14,3.72,1.4,983.78,32.73
3464905,-0.12,0.01,0.98,2.2,3.66,1.34,983.8,32.75
3464943,-0.12,0.01,0.99,2.08,3.48,1.46,983.78,32.74
3464981,-0.12,0.01,0.99,2.01,3.72,1.65,983.81,32.74
3465019,-0.12,0.01,0.99,2.14,3.66,1.46,983.72,32.74
3465057,-0.12,0.01,0.99,2.01,3.85,1.65,983.76,32.73
3465095,-0.13,0.02,1.0,2.2,4.21,1.59,983.78,32.74
3465133,-0.14,0.02,0.99,2.32,4.03,1.46,983.82,32.74
3465171,-0.11,-0.0,0.98,2.2,3.72,1.53,983.76,32.74
3465210,-0.1,0.01,0.98,2.08,3.66,1.46,983.79,32.74
3465259,-0.13,0.02,0.98,1.89,3.42,1.4,983.78,32.74
3465297,-0.11,0.01,0.99,1.77,3.91,1.59,983.78,32.73
3465336,-0.12,0.01,0.98,1.89,3.78,1.53,983.78,32.74
3465374,-0.11,0.01,0.99,2.26,3.78,1.46,983.8,32.74
3465412,-0.14,0.03,1.04,1.95,3.48,1.4,983.81,32.74
3465450,-0.11,-0.0,0.98,2.2,3.6,1.59,983.77,32.74
3465488,-0.11,-0.0,0.98,2.26,4.03,1.59,983.78,32.74
3465526,-0.12,0.01,0.98,2.08,3.66,1.53,983.76,32.75
3465564,-0.14,0.03,0.99,2.26,3.23,1.53,983.74,32.73
3465602,-0.12,0.01,0.97,1.95,3.42,1.4,983.73,32.73
3465680,-0.13,0.01,0.98,2.14,3.85,1.46,983.73,32.71
3465718,-0.12,0.02,0.99,2.14,3.66,1.4,983.83,32.72
3465756,-0.12,0.01,0.99,1.89,3.54,1.53,983.79,32.73
3465846,-0.13,0.02,0.98,2.14,3.91,1.71,983.78,32.7
3465884,-0.13,0.02,0.98,2.2,3.78,1.65,983.77,32.71
3465922,-0.12,0.01,0.99,2.01,3.97,1.59,983.77,32.71
3465960,-0.12,0.01,0.99,2.08,3.72,1.34,983.78,32.72
3465998,-0.13,0.01,0.98,1.95,3.66,1.65,983.78,32.72
3466036,-0.12,0.01,0.98,2.01,3.66,1.46,983.74,32.72
3466075,-0.11,0.01,0.99,2.14,3.91,1.4,983.79,32.73
3466124,-0.11,0.01,0.99,2.01,3.6,1.46,983.77,32.71
3466163,-0.12,0.02,0.98,2.01,3.72,1.46,983.77,32.71
3466201,-0.13,0.01,0.98,1.95,3.48,1.4,983.76,32.72
3466239,-0.13,0.01,0.98,2.08,3.48,1.46,983.75,32.72
3466277,-0.12,0.01,0.98,1.95,3.48,1.34,983.75,32.72
3466315,-0.13,0.02,0.99,2.14,3.6,1.46,983.74,32.74
3466353,-0.12,0.02,0.98,1.95,3.66,1.46,983.76,32.73
3466391,-0.12,0.02,0.98,2.01,3.85,1.4,983.75,32.72
3466429,-0.12,0.02,0.98,1.95,3.78,1.46,983.75,32.74
3466468,-0.12,0.02,0.99,1.95,3.66,1.46,983.79,32.74
3466517,-0.12,0.01,0.99,2.01,3.72,1.46,983.76,32.73
3466555,-0.12,0.01,0.99,1.95,3.6,1.46,983.78,32.73
3466594,-0.12,0.01,0.98,2.01,3.91,1.46,983.76,32.72
3466632,-0.12,0.01,0.98,2.01,3.72,1.59,983.78,32.74
3466670,-0.12,0.01,0.98,2.08,3.78,1.46,983.77,32.74
3466708,-0.12,0.01,0.99,2.08,3.48,1.46,983.78,32.73
3466746,-0.12,0.02,0.99,2.08,3.66,1.59,983.77,32.73
3466784,-0.12,0.01,0.99,1.89,3.54,1.53,983.82,32.74
3466822,-0.11,0.01,0.98,1.83,3.6,1.4,983.8,32.74
3466860,-0.12,0.01,0.99,2.14,3.72,1.4,983.77,32.74
3466910,-0.12,0.01,0.99,1.95,3.6,1.53,983.73,32.73
3466948,-0.12,0.01,0.98,1.89,3.6,1.46,983.79,32.73
3466986,-0.12,0.01,0.98,2.08,3.6,1.4,983.77,32.73
3467025,-0.13,0.01,0.98,1.95,3.85,1.34,983.8,32.74
3467063,-0.13,0.01,0.98,1.89,3.78,1.4,983.71,32.74
3467101,-0.12,0.01,0.99,1.89,3.66,1.53,983.79,32.73
3467139,-0.12,0.01,0.99,1.95,3.85,1.46,983.77,32.73
3467177,-0.12,0.02,0.98,2.01,3.6,1.4,983.79,32.74
3467215,-0.12,0.01,0.99,2.2,3.72,1.53,983.79,32.75
3467265,-0.12,0.01,0.99,2.14,3.66,1.46,983.79,32.73
3467303,-0.12,0.01,0.99,2.2,3.72,1.46,983.77,32.73
3467341,-0.12,0.01,0.98,2.2,3.78,1.59,983.83,32.74
3467379,-0.12,0.01,0.98,1.89,3.54,1.34,983.84,32.74
3467417,-0.12,0.01,0.98,2.14,3.6,1.46,983.78,32.75
3467456,-0.12,0.01,0.99,2.01,3.72,1.53,983.76,32.74
3467494,-0.12,0.01,0.99,1.89,3.66,1.4,983.76,32.76
3467532,-0.12,0.01,0.99,1.95,3.42,1.59,983.84,32.74
3467570,-0.12,0.01,0.98,2.08,3.48,1.53,983.81,32.74
3467608,-0.12,0.01,0.99,2.01,3.66,1.46,983.76,32.75
3467658,-0.12,0.01,0.98,2.14,3.66,1.53,983.75,32.73
3467696,-0.12,0.01,0.98,2.14,3.48,1.4,983.83,32.74
3467734,-0.12,0.01,0.98,1.95,3.72,1.59,983.73,32.74
3467772,-0.12,0.01,0.98,2.08,3.72,1.59,983.8,32.76
3467810,-0.12,0.01,0.98,2.14,3.54,1.59,983.77,32.75
3467849,-0.12,0.02,0.99,2.14,3.42,1.4,983.77,32.74
3467887,-0.12,0.01,0.99,2.08,3.6,1.59,983.79,32.75
3467925,-0.12,0.01,0.98,1.95,3.54,1.4,983.76,32.75
3467963,-0.12,0.01,0.98,1.95,3.66,1.4,983.78,32.75
3468001,-0.12,0.01,0.98,2.08,3.72,1.46,983.76,32.74
3468051,-0.12,0.01,0.99,2.2,3.66,1.53,983.77,32.74
3468089,-0.12,0.01,0.99,2.08,3.72,1.46,983.75,32.75
3468127,-0.12,0.01,0.98,2.08,3.54,1.4,983.77,32.74
3468165,-0.12,0.01,0.98,2.14,3.6,1.46,983.77,32.73
3468203,-0.12,0.01,0.99,2.08,3.54,1.59,983.78,32.74
3468241,-0.12,0.02,0.98,1.95,3.6,1.46,983.82,32.75
3468280,-0.11,0.01,0.98,1.95,3.78,1.4,983.76,32.76
3468318,-0.12,0.01,0.98,2.08,3.72,1.46,983.8,32.74
3468356,-0.12,0.01,0.98,2.01,3.66,1.53,983.77,32.77
3468394,-0.13,0.01,0.99,2.01,3.6,1.53,983.75,32.75
3468444,-0.13,0.02,0.99,2.01,3.54,1.53,983.84,32.74
3468482,-0.12,0.01,0.98,2.01,3.72,1.4,983.78,32.74
3468520,-0.12,0.01,0.98,2.01,3.72,1.53,983.75,32.74
3468558,-0.12,0.01,0.98,1.95,3.72,1.46,983.76,32.75
3468596,-0.12,0.02,0.99,2.01,3.91,1.4,983.72,32.74
3468634,-0.12,0.01,0.98,2.08,3.66,1.53,983.75,32.76
3468673,-0.12,0.01,0.98,1.95,3.6,1.34,983.74,32.75
3468711,-0.12,0.01,0.99,2.08,3.66,1.65,983.75,32.76
3468749,-0.12,0.01,0.98,2.08,3.66,1.4,983.83,32.75
3468787,-0.12,0.01,0.99,1.95,3.54,1.53,983.81,32.75
3468863,-0.12,0.01,0.99,2.2,3.6,1.71,983.81,32.72
3468901,-0.12,0.01,0.98,2.01,3.66,1.46,983.79,32.74
3468939,-0.12,0.01,0.98,2.08,3.72,1.53,983.79,32.74
3469029,-0.13,0.02,0.98,1.95,3.78,1.46,983.76,32.72
3469067,-0.12,0.01,0.99,2.08,3.72,1.53,983.72,32.73
3469105,-0.12,0.01,0.99,2.01,3.85,1.46,983.75,32.73
3469143,-0.12,0.01,0.98,2.08,3.66,1.65,983.77,32.73
3469181,-0.13,0.01,0.98,2.14,3.72,1.53,983.79,32.74
3469219,-0.12,0.01,0.98,2.01,3.6,1.53,983.73,32.73
3469257,-0.11,0.01,0.98,2.08,3.6,1.46,983.75,32.73
3469307,-0.13,0.02,0.98,2.2,3.54,1.46,983.76,32.73
3469345,-0.13,0.02,0.99,2.01,3.66,1.46,983.73,32.73
3469383,-0.12,0.01,0.99,2.01,3.72,1.4,983.8,32.75
3469421,-0.12,0.01,0.99,1.95,3.66,1.46,983.84,32.74
3469460,-0.12,0.01,0.98,1.95,3.85,1.59,983.74,32.74
3469498,-0.12,0.01,0.98,2.2,3.78,1.4,983.77,32.74
3469536,-0.12,0.01,0.98,2.08,3.72,1.53,983.75,32.75
3469574,-0.12,0.02,0.98,2.08,3.72,1.53,983.78,32.76
3469612,-0.12,0.01,0.99,2.01,3.54,1.59,983.74,32.74
3469662,-0.12,0.01,0.98,1.89,3.66,1.46,983.78,32.74
3469700,-0.12,0.01,0.99,1.95,3.48,1.53,983.76,32.74
3469738,-0.12,0.01,0.99,2.08,3.6,1.4,983.75,32.76
3469776,-0.12,0.01,0.98,1.95,3.72,1.4,983.83,32.75
3469814,-0.12,0.01,0.98,2.08,3.66,1.34,983.76,32.75
3469852,-0.13,0.01,0.98,2.01,3.6,1.46,983.75,32.76
3469891,-0.12,0.01,0.99,1.95,3.48,1.4,983.72,32.74
3469929,-0.12,0.01,0.99,2.01,3.6,1.34,983.74,32.75
3469967,-0.13,0.01,0.98,2.01,3.78,1.46,983.78,32.76
3470005,-0.12,0.01,0.99,2.08,3.66,1.46,983.78,32.77
3470055,-0.12,0.01,0.99,2.26,3.78,1.4,983.75,32.75
3470093,-0.12,0.02,0.99,2.01,3.54,1.46,983.75,32.75
3470131,-0.12,0.02,0.98,2.01,3.78,1.46,983.78,32.76
3470169,-0.12,0.01,0.98,2.01,3.54,1.59,983.76,32.75
3470207,-0.13,0.01,0.98,1.89,3.6,1.53,983.74,32.76
3470245,-0.13,0.02,0.99,1.95,3.6,1.53,983.76,32.76
3470283,-0.12,0.01,0.98,1.89,3.54,1.59,983.79,32.76
3470322,-0.13,0.0,0.98,2.01,3.48,1.34,983.8,32.75
3470360,-0.13,0.02,0.99,2.2,3.6,1.46,983.79,32.76
3470398,-0.11,0.01,0.99,2.08,3.54,1.53,983.84,32.77
3470448,-0.12,0.01,0.98,2.14,3.6,1.53,983.77,32.74
3470486,-0.12,0.02,0.98,2.14,3.78,1.28,983.76,32.76
3470524,-0.12,0.01,0.98,1.95,3.72,1.46,983.72,32.75
3470562,-0.13,0.01,0.99,2.08,3.66,1.4,983.76,32.77
3470600,-0.12,0.01,0.98,1.95,3.78,1.28,983.83,32.76
3470638,-0.12,0.02,0.99,2.01,3.48,1.53,983.71,32.76
3470676,-0.13,0.01,0.98,2.01,3.72,1.53,983.75,32.76
3470714,-0.12,0.01,0.98,2.01,3.72,1.34,983.78,32.76
3470753,-0.12,0.02,0.99,1.83,3.78,1.53,983.72,32.76
3470791,-0.12,0.01,0.98,2.01,3.6,1.59,983.79,32.75
3470841,-0.12,0.01,0.98,2.14,3.78,1.53,983.72,32.73
3470879,-0.12,0.02,0.99,1.89,3.66,1.4,983.8,32.75
3470917,-0.13,0.01,0.99,1.95,3.72,1.59,983.74,32.75
3470955,-0.12,0.01,0.98,1.89,3.72,1.4,983.7,32.75
3470993,-0.12,0.01,0.98,1.89,3.66,1.53,983.71,32.75
3471031,-0.13,0.02,0.98,1.83,3.78,1.46,983.76,32.76
3471069,-0.12,0.01,0.98,1.89,3.66,1.4,983.74,32.75
3471107,-0.12,0.01,0.99,2.08,3.85,1.22,983.75,32.76
3471145,-0.12,0.01,0.99,1.95,3.54,1.59,983.77,32.76
3471184,-0.12,0.01,0.98,2.08,3.6,1.53,983.77,32.75
3471233,-0.12,0.01,0.98,2.08,3.66,1.46,983.73,32.74
3471272,-0.12,0.01,0.98,2.08,3.66,1.34,983.82,32.75
3471310,-0.13,0.01,0.98,1.95,3.72,1.46,983.81,32.76
3471348,-0.12,0.01,0.98,2.08,3.54,1.59,983.74,32.76
3471386,-0.12,0.01,0.98,1.95,3.78,1.53,983.81,32.75
3471424,-0.12,0.01,0.98,2.01,3.72,1.4,983.73,32.75
3471462,-0.12,0.01,0.99,2.01,3.97,1.46,983.76,32.76
3471500,-0.12,0.01,0.98,2.01,3.78,1.53,983.8,32.76
3471538,-0.12,0.02,0.98,2.14,3.72,1.53,983.77,32.76
3471577,-0.12,0.01,0.98,2.08,3.72,1.53,983.77,32.77
3471626,-0.12,0.01,0.99,2.01,3.6,1.59,983.77,32.74
3471664,-0.12,0.01,0.99,1.95,3.54,1.46,983.75,32.75
3471703,-0.12,0.01,0.98,1.95,3.54,1.46,983.78,32.75
3471741,-0.12,0.01,0.98,2.08,3.72,1.59,983.78,32.75
3471779,-0.12,0.01,0.98,1.95,3.6,1.46,983.78,32.76
3471817,-0.12,0.01,0.98,1.95,3.54,1.59,983.74,32.77
3471855,-0.12,0.01,0.98,1.95,3.54,1.53,983.77,32.76
3471893,-0.12,0.02,0.99,2.01,3.48,1.34,983.76,32.76
3471931,-0.12,0.01,0.98,2.08,3.66,1.4,983.74,32.76
3471969,-0.12,0.01,0.98,2.08,3.78,1.59,983.79,32.77
3472045,-0.13,0.01,0.98,2.14,3.66,1.34,983.73,32.73
3472083,-0.12,0.01,0.98,1.83,3.91,1.65,983.75,32.75
3472121,-0.12,0.01,0.98,2.08,3.78,1.53,983.77,32.75
3472211,-0.12,0.01,0.98,1.89,3.72,1.4,983.79,32.72
3472249,-0.12,0.01,0.99,2.08,3.72,1.46,983.74,32.73
3472287,-0.12,0.01,0.99,2.14,3.66,1.53,983.79,32.75
3472325,-0.12,0.01,0.99,2.01,3.72,1.65,983.76,32.74
3472364,-0.12,0.01,0.99,2.01,3.54,1.46,983.82,32.74
3472402,-0.12,0.01,0.99,2.2,3.54,1.46,983.7,32.74
3472452,-0.12,0.01,0.98,2.08,3.6,1.53,983.82,32.74
3472490,-0.12,0.01,0.98,2.08,3.6,1.46,983.73,32.73
3472528,-0.12,0.01,0.98,1.89,3.3,1.53,983.73,32.74
3472566,-0.12,0.01,0.99,2.08,3.6,1.4,983.79,32.75
3472604,-0.12,0.01,0.99,2.01,3.6,1.53,983.78,32.75
3472642,-0.12,0.01,0.98,2.01,3.72,1.4,983.74,32.75
3472680,-0.12,0.01,0.98,2.01,3.54,1.53,983.77,32.76
3472718,-0.12,0.01,0.98,2.08,3.66,1.46,983.78,32.77
3472757,-0.12,0.02,0.98,2.08,3.85,1.4,983.8,32.76
3472795,-0.12,0.02,0.98,1.95,3.66,1.34,983.82,32.76
3472845,-0.12,0.02,0.98,2.08,3.54,1.59,983.79,32.76
3472883,-0.12,0.01,0.99,2.01,3.6,1.59,983.79,32.76
3472921,-0.12,0.01,0.98,2.01,3.78,1.46,983.78,32.76
3472959,-0.12,0.01,0.99,1.95,3.66,1.59,983.8,32.76
3472997,-0.12,0.01,0.98,2.01,3.85,1.4,983.8,32.76
3473035,-0.12,0.01,0.98,1.89,3.6,1.4,983.8,32.76
3473073,-0.12,0.01,0.99,1.95,3.66,1.59,983.76,32.75
3473112,-0.12,0.01,0.98,2.14,3.78,1.53,983.82,32.76
3473150,-0.12,0.01,0.98,1.95,3.72,1.53,983.77,32.76
3473188,-0.12,0.01,0.99,2.01,3.72,1.28,983.78,32.76
3473238,-0.12,0.01,0.99,2.08,3.72,1.59,983.75,32.76
3473276,-0.13,0.01,0.99,2.08,3.48,1.53,983.74,32.75
3473314,-0.12,0.01,0.98,2.01,3.78,1.4,983.82,32.76
3473352,-0.12,0.01,0.98,2.01,3.48,1.4,983.71,32.75
3473390,-0.12,0.01,0.98,1.89,3.6,1.46,983.76,32.77
3473428,-0.12,0.01,0.98,2.08,3.72,1.46,983.77,32.76
3473466,-0.12,0.01,0.98,1.89,3.54,1.53,983.8,32.76
3473505,-0.12,0.01,0.98,1.89,3.54,1.34,983.71,32.76
3473543,-0.12,0.01,0.99,2.08,3.6,1.4,983.75,32.76
3473581,-0.12,0.01,0.99,2.08,3.66,1.4,983.79,32.76
3473631,-0.12,0.01,0.98,2.01,3.54,1.46,983.72,32.74
3473669,-0.12,0.01,0.98,1.95,3.6,1.53,983.79,32.75
3473707,-0.12,0.01,0.98,2.08,3.72,1.4,983.78,32.76
3473745,-0.12,0.01,0.98,2.01,3.72,1.34,983.78,32.75
3473783,-0.12,0.01,0.99,1.95,3.54,1.53,983.74,32.76
3473821,-0.12,0.01,0.99,2.01,3.54,1.46,983.74,32.76
3473859,-0.12,0.01,0.98,2.01,3.66,1.53,983.73,32.78
3473898,-0.12,0.01,0.98,2.14,3.48,1.53,983.77,32.76
3473936,-0.12,0.01,0.98,2.14,3.54,1.53,983.81,32.77
3473974,-0.12,0.01,0.98,1.95,3.54,1.34,983.73,32.76
3474024,-0.12,0.01,0.98,1.95,3.66,1.59,983.72,32.74
3474062,-0.12,0.01,0.98,1.89,3.78,1.46,983.76,32.75
3474100,-0.12,0.01,0.98,1.89,3.66,1.4,983.77,32.75
3474138,-0.12,0.01,0.99,2.08,3.72,1.34,983.79,32.76
3474176,-0.12,0.01,0.98,2.2,3.66,1.46,983.73,32.77
3474215,-0.12,0.01,0.98,2.14,3.85,1.4,983.76,32.76
3474253,-0.12,0.01,0.98,1.95,3.78,1.53,983.74,32.77
3474291,-0.12,0.01,0.98,1.95,3.72,1.46,983.81,32.76
3474329,-0.12,0.01,0.99,1.89,3.66,1.65,983.78,32.76
3474367,-0.12,0.01,0.98,1.83,3.72,1.4,983.78,32.76
3474417,-0.12,0.01,0.99,1.89,3.72,1.53,983.79,32.76
3474455,-0.12,0.01,0.99,1.95,3.78,1.46,983.76,32.76
3474493,-0.12,0.01,0.98,2.08,3.66,1.46,983.79,32.77
3474531,-0.12,0.01,0.98,2.08,3.6,1.46,983.8,32.77
3474569,-0.12,0.01,0.98,2.08,3.72,1.4,983.79,32.76
3474608,-0.12,0.01,0.98,2.01,3.72,1.59,983.75,32.76
3474646,-0.12,0.02,0.98,2.2,3.66,1.46,983.78,32.76
3474684,-0.12,0.01,0.98,1.95,3.66,1.59,983.71,32.76
3474722,-0.12,0.01,0.98,1.95,3.66,1.34,983.78,32.77
3474772,-0.12,0.01,0.99,1.95,3.66,1.34,983.77,32.76
3474810,-0.12,0.01,0.98,2.01,3.78,1.53,983.77,32.77
3474848,-0.12,0.01,0.98,2.08,3.72,1.59,983.74,32.77
3474886,-0.12,0.02,0.98,2.08,3.97,1.59,983.72,32.76
3474924,-0.12,0.01,0.98,2.2,3.85,1.53,983.76,32.76
3474963,-0.12,0.01,0.98,2.08,3.6,1.53,983.74,32.77
3475001,-0.12,0.01,0.99,1.95,3.66,1.71,983.75,32.76
3475039,-0.12,0.01,0.98,2.01,3.6,1.59,983.84,32.76
3475077,-0.12,0.01,0.98,1.95,3.66,1.53,983.83,32.76
3475115,-0.12,0.01,0.98,1.95,3.66,1.59,983.76,32.76
3475191,-0.12,0.01,0.98,2.08,3.72,1.53,983.74,32.74
3475229,-0.12,0.01,0.98,2.01,3.6,1.71,983.77,32.75
3475267,-0.12,0.02,0.98,2.08,3.48,1.59,983.79,32.75
3475357,-0.12,0.01,0.99,1.95,3.78,1.53,983.81,32.72
3475395,-0.12,0.01,0.98,2.08,3.78,1.53,983.74,32.73
3475433,-0.12,0.01,0.98,2.08,3.85,1.71,983.76,32.74
3475471,-0.12,0.01,0.98,2.01,3.78,1.46,983.84,32.74
3475509,-0.12,0.01,0.98,2.14,3.66,1.4,983.76,32.74
3475547,-0.12,0.01,0.98,2.2,3.72,1.53,983.8,32.74
3475586,-0.12,0.01,0.98,1.95,3.6,1.46,983.78,32.74
3475635,-0.12,0.01,0.98,2.01,3.72,1.53,983.76,32.74
3475673,-0.12,0.01,0.99,2.14,3.78,1.53,983.83,32.74
3475712,-0.12,0.01,0.99,2.14,3.72,1.59,983.76,32.74
3475750,-0.12,0.01,0.98,2.26,3.72,1.59,983.72,32.73
3475788,-0.12,0.02,0.98,1.95,3.6,1.4,983.82,32.75
3475826,-0.12,0.01,0.98,2.08,3.72,1.53,983.84,32.75
3475864,-0.12,0.01,0.99,1.89,3.66,1.46,983.78,32.76
3475902,-0.12,0.01,0.99,2.08,3.54,1.53,983.79,32.76
3475940,-0.12,0.01,0.99,2.2,3.6,1.46,983.79,32.75
3475978,-0.12,0.01,0.98,2.2,3.6,1.34,983.78,32.75
3476028,-0.12,0.01,0.98,2.01,3.78,1.65,983.79,32.74
3476066,-0.12,0.01,0.98,2.01,3.6,1.59,983.75,32.74
3476104,-0.12,0.01,0.98,1.95,3.78,1.53,983.77,32.76
3476142,-0.12,0.01,0.98,2.14,3.78,1.46,983.81,32.76
3476180,-0.12,0.01,0.99,1.95,3.72,1.53,983.74,32.75
3476219,-0.12,0.01,0.99,2.14,3.78,1.4,983.8,32.77
3476257,-0.12,0.02,0.99,1.95,3.78,1.46,983.71,32.75
3476295,-0.12,0.01,0.99,1.95,3.78,1.28,983.75,32.77
3476333,-0.12,0.01,0.98,2.2,3.54,1.46,983.82,32.76
3476371,-0.13,0.01,0.98,2.2,3.72,1.59,983.75,32.76
3476421,-0.12,0.01,0.98,2.08,3.72,1.46,983.78,32.76
3476459,-0.12,0.01,0.98,2.2,3.54,1.53,983.78,32.76
3476497,-0.12,0.01,0.98,2.14,3.6,1.46,983.81,32.75
3476535,-0.12,0.01,0.98,2.14,3.66,1.46,983.78,32.78
3476573,-0.12,0.01,0.99,2.08,3.6,1.59,983.75,32.77
3476611,-0.12,0.01,0.98,2.01,3.72,1.53,983.81,32.76
3476649,-0.12,0.01,0.98,2.01,3.66,1.34,983.75,32.76
3476687,-0.12,0.01,0.98,2.08,3.85,1.46,983.76,32.76
3476726,-0.12,0.01,0.98,1.95,3.66,1.46,983.81,32.76
3476764,-0.12,0.01,0.98,2.2,3.72,1.53,983.75,32.76
3476813,-0.12,0.01,0.99,2.14,3.85,1.65,983.79,32.75
3476852,-0.12,0.01,0.98,2.14,3.66,1.59,983.83,32.76
3476890,-0.12,0.01,0.98,2.01,3.72,1.46,983.79,32.77
3476928,-0.12,0.01,0.98,2.01,3.6,1.4,983.8,32.77
3476966,-0.12,0.01,0.98,2.08,3.66,1.28,983.81,32.76
3477004,-0.12,0.01,0.99,1.95,3.78,1.46,983.78,32.76
3477042,-0.12,0.01,0.98,2.08,3.6,1.4,983.78,32.76
3477080,-0.12,0.01,0.98,1.89,3.6,1.4,983.8,32.77
3477118,-0.12,0.01,0.98,2.01,3.48,1.53,983.79,32.76
3477157,-0.12,0.01,0.99,1.95,3.6,1.53,983.8,32.76
3477206,-0.12,0.01,0.98,2.01,3.6,1.46,983.8,32.75
3477244,-0.12,0.01,0.98,2.01,3.6,1.46,983.74,32.75
3477283,-0.12,0.01,0.98,1.95,3.66,1.34,983.77,32.76
3477321,-0.12,0.01,0.99,2.14,3.66,1.4,983.77,32.76
3477359,-0.12,0.01,0.98,2.26,3.78,1.4,983.79,32.76
3477397,-0.12,0.01,0.99,2.14,3.6,1.53,983.8,32.76
3477435,-0.12,0.01,0.98,2.01,3.85,1.46,983.8,32.76
3477473,-0.12,0.01,0.98,2.08,3.72,1.46,983.78,32.77
3477511,-0.12,0.01,0.99,1.95,3.85,1.53,983.74,32.76
3477561,-0.12,0.01,0.98,2.01,3.48,1.46,983.84,32.75
3477599,-0.12,0.01,0.98,2.14,3.66,1.4,983.78,32.77
3477637,-0.12,0.01,0.98,2.01,3.66,1.4,983.75,32.76
3477675,-0.12,0.01,0.98,1.77,3.48,1.4,983.72,32.76
3477714,-0.12,0.01,0.98,1.83,3.66,1.46,983.78,32.76
3477752,-0.12,0.01,0.98,2.14,3.6,1.53,983.82,32.78
3477790,-0.12,0.02,0.99,2.08,3.6,1.34,983.81,32.76
3477828,-0.12,0.01,0.99,2.01,3.66,1.53,983.78,32.77
3477866,-0.12,0.01,0.99,2.2,3.48,1.46,983.79,32.78
3477904,-0.12,0.01,0.98,1.95,3.78,1.53,983.79,32.77
3477954,-0.12,0.01,0.98,2.2,3.72,1.53,983.78,32.76
3477992,-0.12,0.01,0.98,1.95,3.66,1.46,983.79,32.78
3478030,-0.12,0.01,0.98,2.01,3.54,1.4,983.76,32.77
3478068,-0.12,0.01,0.99,1.83,3.66,1.53,983.79,32.78
3478107,-0.12,0.01,0.98,2.08,3.91,1.53,983.78,32.77
3478145,-0.12,0.02,0.99,2.01,3.66,1.4,983.81,32.78
3478183,-0.12,0.01,0.99,1.95,3.66,1.4,983.78,32.77
3478221,-0.12,0.01,0.99,2.08,3.66,1.46,983.78,32.77
3478259,-0.12,0.01,0.98,2.08,3.66,1.59,983.74,32.77
3478297,-0.12,0.01,0.98,2.08,3.54,1.28,983.78,32.78
3478373,-0.12,0.01,0.98,1.89,3.48,1.65,983.81,32.75
3478411,-0.12,0.01,0.98,1.95,3.72,1.59,983.79,32.76
3478449,-0.12,0.01,0.98,1.95,3.66,1.46,983.8,32.76
3478539,-0.12,0.01,0.99,1.89,3.78,1.46,983.78,32.73
3478577,-0.12,0.01,0.98,1.95,3.6,1.53,983.77,32.75
3478615,-0.12,0.01,0.98,2.08,3.66,1.34,983.74,32.75
3478653,-0.12,0.01,0.98,2.2,3.72,1.46,983.8,32.75
3478691,-0.12,0.01,0.98,2.14,3.66,1.59,983.78,32.75
3478729,-0.12,0.01,0.98,2.14,3.48,1.53,983.76,32.76
3478767,-0.12,0.01,0.98,2.01,3.66,1.59,983.76,32.75
3478817,-0.12,0.01,0.99,2.2,3.72,1.53,983.73,32.75
3478855,-0.12,0.01,0.99,2.08,3.66,1.59,983.76,32.75
3478893,-0.12,0.01,0.98,2.14,3.78,1.59,983.71,32.75
3478932,-0.12,0.01,0.98,2.08,3.66,1.59,983.81,32.76
3478970,-0.12,0.01,0.98,2.14,3.72,1.46,983.75,32.76
3479008,-0.12,0.01,0.98,2.01,3.66,1.46,983.79,32.75
3479046,-0.12,0.01,0.98,2.14,3.6,1.34,983.75,32.75
3479084,-0.12,0.01,0.98,2.08,3.72,1.59,983.79,32.76
3479122,-0.12,0.01,0.98,2.14,3.85,1.46,983.74,32.75
3479160,-0.12,0.01,0.98,2.08,3.6,1.46,983.79,32.76
3479210,-0.12,0.02,0.99,1.95,3.78,1.4,983.81,32.76
3479248,-0.12,0.01,0.98,2.08,3.66,1.46,983.82,32.76
3479287,-0.12,0.01,0.98,2.08,3.72,1.46,983.78,32.75
3479325,-0.12,0.01,0.98,2.08,3.48,1.46,983.8,32.76
3479363,-0.12,0.01,0.99,2.01,3.6,1.4,983.78,32.76
3479401,-0.12,0.01,0.98,2.08,3.6,1.4,983.77,32.77
3479439,-0.12,0.01,0.98,1.89,3.54,1.53,983.78,32.76
3479477,-0.12,0.01,0.98,2.01,3.6,1.53,983.75,32.76
3479515,-0.12,0.01,0.98,2.08,3.72,1.59,983.8,32.78
3479553,-0.12,0.01,0.99,2.08,3.54,1.59,983.75,32.77
3479603,-0.12,0.01,0.98,2.2,3.78,1.4,983.77,32.77
3479641,-0.12,0.01,0.98,2.01,3.66,1.53,983.79,32.76
3479679,-0.12,0.01,0.98,2.08,3.66,1.46,983.77,32.77
3479718,-0.12,0.01,0.99,2.14,3.54,1.59,983.79,32.76
3479756,-0.12,0.01,0.98,2.01,3.85,1.65,983.82,32.78
3479794,-0.12,0.01,0.98,1.95,3.78,1.53,983.8,32.77
3479832,-0.12,0.01,0.99,2.08,3.66,1.46,983.83,32.77
3479870,-0.12,0.01,0.99,2.01,3.78,1.46,983.81,32.77
3479908,-0.12,0.01,0.98,1.95,3.85,1.59,983.81,32.78
3479958,-0.12,0.01,0.98,2.01,3.66,1.53,983.81,32.77
3479996,-0.12,0.01,0.99,2.14,3.66,1.53,983.76,32.78
3480034,-0.12,0.01,0.99,1.95,3.66,1.53,983.77,32.77
3480072,-0.12,0.01,0.98,1.89,3.6,1.34,983.75,32.78
3480110,-0.12,0.02,0.98,2.01,3.85,1.53,983.76,32.78
3480149,-0.12,0.01,0.98,2.2,3.6,1.46,983.8,32.77
3480187,-0.12,0.01,0.98,2.08,3.72,1.53,983.82,32.78
3480225,-0.12,0.01,0.99,2.14,3.78,1.4,983.78,32.77
3480263,-0.12,0.01,0.98,1.95,3.72,1.53,983.81,32.78
3480301,-0.12,0.01,0.98,2.01,3.54,1.53,983.77,32.78
3480351,-0.12,0.01,0.98,2.01,3.54,1.4,983.79,32.76
3480389,-0.12,0.01,0.98,1.95,3.85,1.46,983.81,32.77
3480427,-0.12,0.01,0.98,1.89,3.78,1.46,983.77,32.77
3480465,-0.12,0.01,0.98,2.08,3.72,1.4,983.73,32.77
3480503,-0.12,0.01,0.98,1.95,3.6,1.46,983.77,32.77
3480541,-0.12,0.01,0.99,1.95,3.66,1.53,983.83,32.77
3480579,-0.12,0.01,0.98,2.08,3.85,1.46,983.75,32.78
3480617,-0.12,0.01,0.99,2.01,3.66,1.59,983.79,32.77
3480656,-0.12,0.01,0.98,2.14,3.54,1.46,983.76,32.77
3480694,-0.12,0.01,0.99,1.95,3.66,1.46,983.71,32.77
3480743,-0.12,0.01,0.98,2.14,3.66,1.4,983.79,32.77
3480782,-0.12,0.01,0.98,2.01,3.54,1.4,983.75,32.76
3480820,-0.12,0.01,0.98,2.08,3.6,1.46,983.76,32.77
3480858,-0.12,0.01,0.98,2.08,3.85,1.4,983.81,32.77
3480896,-0.12,0.01,0.98,2.01,3.66,1.4,983.77,32.78
3480934,-0.12,0.01,0.98,2.01,3.78,1.53,983.82,32.77
3480972,-0.12,0.01,0.98,2.01,3.72,1.46,983.75,32.77
3481010,-0.12,0.01,0.98,2.01,3.66,1.4,983.72,32.77
3481049,-0.12,0.01,0.99,2.08,3.66,1.46,983.78,32.78
3481087,-0.12,0.01,0.99,2.01,3.54,1.46,983.84,32.77
3481137,-0.12,0.01,0.98,1.95,3.78,1.46,983.76,32.76
3481175,-0.12,0.01,0.99,1.95,3.6,1.46,983.71,32.77
3481213,-0.12,0.01,0.98,2.08,3.66,1.59,983.81,32.78
3481251,-0.12,0.01,0.98,2.08,3.91,1.59,983.72,32.76
3481289,-0.12,0.01,0.99,2.08,3.72,1.53,983.82,32.77
3481327,-0.12,0.01,0.98,1.95,3.6,1.34,983.82,32.79
3481365,-0.12,0.01,0.99,2.08,3.6,1.46,983.77,32.78
3481403,-0.12,0.01,0.98,2.14,3.66,1.4,983.82,32.78
3481442,-0.12,0.01,0.98,2.08,3.66,1.46,983.81,32.77
3481480,-0.12,0.01,0.98,2.01,3.72,1.53,983.75,32.78
3481555,-0.12,0.01,0.98,2.01,3.72,1.34,983.73,32.74
3481594,-0.12,0.01,0.98,2.14,3.66,1.53,983.74,32.76
3481632,-0.12,0.01,0.98,1.95,3.78,1.59,983.8,32.77
3481721,-0.12,0.01,0.98,2.14,3.78,1.46,983.76,32.72
3481759,-0.12,0.02,0.98,2.01,3.66,1.4,983.79,32.74
3481797,-0.12,0.01,0.98,1.95,3.66,1.59,983.78,32.76
3481835,-0.12,0.01,0.98,1.95,3.6,1.59,983.81,32.75
3481874,-0.12,0.01,0.99,2.08,3.54,1.59,983.8,32.74
3481912,-0.12,0.01,0.98,1.95,3.78,1.34,983.81,32.76
3481950,-0.12,0.01,0.98,2.14,3.6,1.59,983.76,32.75
3482000,-0.12,0.01,0.98,2.08,3.6,1.59,983.74,32.75
3482038,-0.12,0.01,0.98,2.08,3.66,1.53,983.81,32.76
3482076,-0.12,0.01,0.98,2.14,3.6,1.53,983.79,32.76
3482114,-0.12,0.01,0.98,2.14,3.54,1.59,983.86,32.76
3482152,-0.12,0.01,0.98,2.14,3.66,1.53,983.81,32.78
3482190,-0.12,0.01,0.99,2.08,3.78,1.59,983.78,32.76
3482228,-0.12,0.01,0.98,2.01,3.72,1.65,983.74,32.76
3482266,-0.12,0.01,0.99,2.01,3.78,1.46,983.78,32.76
3482305,-0.12,0.01,0.98,2.08,3.85,1.59,983.78,32.78
3482343,-0.12,0.01,0.98,2.01,3.97,1.59,983.76,32.76
3482392,-0.12,0.01,0.98,1.95,3.54,1.65,983.78,32.76
3482431,-0.12,0.01,0.98,2.08,3.72,1.59,983.75,32.76
3482469,-0.12,0.01,0.99,2.14,3.6,1.59,983.76,32.77
3482507,-0.12,0.01,0.98,2.01,3.72,1.46,983.76,32.76
3482545,-0.12,0.01,0.98,1.95,3.6,1.59,983.79,32.77
3482583,-0.12,0.01,0.98,2.14,3.66,1.59,983.78,32.77
3482621,-0.12,0.01,0.98,2.08,3.66,1.46,983.79,32.78
3482659,-0.12,0.01,0.98,2.08,3.66,1.46,983.77,32.76
3482698,-0.12,0.01,0.98,2.01,3.6,1.46,983.76,32.77
3482747,-0.12,0.01,0.98,2.14,3.85,1.46,983.78,32.75
3482785,-0.12,0.01,0.98,2.01,3.6,1.53,983.74,32.76
3482824,-0.12,0.01,0.98,2.08,3.66,1.53,983.77,32.77
3482862,-0.12,0.01,0.99,2.08,3.66,1.53,983.8,32.78
3482900,-0.12,0.01,0.99,2.08,3.91,1.59,983.73,32.77
3482938,-0.12,0.01,0.98,2.08,3.72,1.46,983.76,32.76
3482976,-0.12,0.01,0.98,2.01,3.66,1.4,983.8,32.77
3483014,-0.12,0.01,0.98,2.01,3.85,1.53,983.76,32.76
3483052,-0.12,0.02,0.98,2.08,3.78,1.71,983.75,32.77
3483090,-0.12,0.01,0.99,2.08,3.6,1.53,983.74,32.76
3483140,-0.12,0.01,0.98,2.08,3.54,1.4,983.76,32.76
3483178,-0.12,0.01,0.98,1.95,3.72,1.53,983.77,32.78
3483216,-0.12,0.01,0.98,2.08,3.42,1.46,983.83,32.78
3483255,-0.12,0.01,0.98,2.01,3.54,1.53,983.79,32.78
3483293,-0.12,0.01,0.98,2.08,3.85,1.59,983.79,32.77
3483331,-0.12,0.02,0.98,2.26,3.78,1.46,983.78,32.77
3483369,-0.12,0.02,0.98,2.08,3.85,1.53,983.74,32.76
3483407,-0.12,0.01,0.98,2.08,3.66,1.4,983.76,32.76
3483445,-0.13,0.01,0.99,1.95,3.72,1.53,983.75,32.77
3483483,-0.12,0.01,0.99,2.08,3.54,1.53,983.82,32.77
3483533,-0.12,0.01,0.98,2.01,3.66,1.4,983.78,32.76
3483571,-0.12,0.01,0.98,2.2,3.78,1.59,983.79,32.76
3483609,-0.12,0.01,0.98,2.01,3.66,1.53,983.76,32.75
3483647,-0.12,0.01,0.98,2.08,3.72,1.65,983.81,32.75
3483685,-0.12,0.01,0.98,1.95,3.66,1.4,983.8,32.75
3483724,-0.12,0.01,0.98,1.89,3.66,1.46,983.74,32.77
3483762,-0.12,0.01,0.98,2.08,3.54,1.46,983.77,32.77
3483800,-0.12,0.01,0.98,2.01,3.66,1.4,983.79,32.76
3483838,-0.12,0.01,0.98,1.89,3.72,1.4,983.79,32.76
3483876,-0.12,0.02,0.98,2.08,3.6,1.46,983.73,32.76
3483926,-0.12,0.02,0.98,2.08,3.6,1.53,983.82,32.76
3483964,-0.13,0.01,0.99,2.08,3.54,1.59,983.79,32.76
3484002,-0.12,0.01,0.98,2.08,3.85,1.59,983.76,32.76
3484040,-0.12,0.01,0.98,2.2,3.72,1.46,983.84,32.78
3484078,-0.12,0.01,0.98,2.14,3.72,1.53,983.71,32.76
3484117,-0.12,0.01,0.98,2.01,3.6,1.53,983.81,32.76
3484155,-0.12,0.01,0.98,2.08,3.72,1.46,983.78,32.77
3484193,-0.12,0.01,0.98,2.08,3.66,1.59,983.77,32.76
3484231,-0.12,0.01,0.98,2.08,3.6,1.4,983.71,32.75
3484269,-0.12,0.01,0.98,2.01,3.78,1.59,983.83,32.77
3484319,-0.12,0.01,0.98,2.14,3.85,1.71,983.72,32.76
3484357,-0.12,0.02,0.98,2.01,3.6,1.53,983.76,32.75
3484395,-0.12,0.02,0.98,2.08,3.66,1.34,983.84,32.76
3484433,-0.12,0.02,0.98,1.95,3.6,1.46,983.71,32.76
3484471,-0.12,0.01,0.98,2.08,3.66,1.53,983.74,32.77
3484510,-0.12,0.01,0.98,2.14,3.72,1.59,983.75,32.78
3484548,-0.12,0.01,0.98,2.14,3.6,1.59,983.76,32.77
3484586,-0.12,0.01,0.98,2.01,3.72,1.65,983.81,32.78
3484624,-0.12,0.01,0.98,2.08,3.72,1.46,983.8,32.78
3484662,-0.12,0.01,0.98,2.01,3.78,1.46,983.76,32.77
3484811,-0.12,0.01,0.98,2.08,3.78,1.65,983.77,32.71
3484850,-0.12,0.02,0.98,2.01,3.78,1.59,983.77,32.73
3484888,-0.12,0.02,0.98,2.14,3.66,1.59,983.72,32.74
3484978,-0.12,0.01,0.98,2.01,3.6,1.46,983.78,32.71
3485016,-0.12,0.01,0.99,2.08,3.42,1.46,983.79,32.71
3485054,-0.12,0.01,0.98,2.01,3.54,1.59,983.86,32.74
3485092,-0.12,0.01,0.98,2.08,3.66,1.65,983.79,32.74
3485130,-0.12,0.01,0.98,2.01,3.6,1.46,983.74,32.73
3485168,-0.12,0.01,0.98,2.08,3.66,1.46,983.8,32.74
3485218,-0.12,0.01,0.98,2.01,3.66,1.59,983.75,32.73
3485256,-0.12,0.01,0.98,2.08,3.78,1.53,983.8,32.74
3485294,-0.12,0.01,0.99,1.95,3.6,1.46,983.79,32.74
3485332,-0.12,0.02,0.98,2.01,3.54,1.53,983.8,32.74
3485370,-0.12,0.02,0.98,2.01,3.6,1.53,983.73,32.74
3485409,-0.12,0.02,0.98,2.01,3.72,1.59,983.77,32.75
3485447,-0.12,0.01,0.98,2.08,3.72,1.53,983.76,32.74
3485485,-0.12,0.01,0.99,2.2,3.66,1.53,983.77,32.75
3485523,-0.12,0.01,0.98,2.08,3.6,1.59,983.76,32.74
3485561,-0.12,0.01,0.98,2.08,3.91,1.59,983.73,32.73
3485611,-0.12,0.01,0.98,2.08,3.72,1.59,983.72,32.74
3485649,-0.12,0.01,0.98,2.01,3.72,1.46,983.81,32.76
3485687,-0.12,0.01,0.98,2.08,3.6,1.46,983.81,32.74
3485725,-0.12,0.02,0.98,1.95,3.72,1.46,983.81,32.75
3485763,-0.12,0.01,0.99,1.95,3.6,1.4,983.76,32.75
3485802,-0.12,0.01,0.99,2.01,3.72,1.34,983.72,32.75
3485840,-0.12,0.01,0.98,2.14,3.66,1.46,983.79,32.77
3485878,-0.12,0.01,0.98,2.01,3.66,1.65,983.8,32.76
3485916,-0.12,0.01,0.98,2.14,3.66,1.46,983.78,32.76
3485954,-0.12,0.01,0.99,2.14,3.6,1.59,983.79,32.76
3486004,-0.12,0.01,0.98,2.08,3.66,1.46,983.74,32.74
3486042,-0.12,0.01,0.98,1.95,3.66,1.59,983.79,32.75
3486080,-0.12,0.01,0.98,2.01,3.6,1.34,983.73,32.76
3486119,-0.12,0.01,0.98,2.01,3.6,1.4,983.8,32.76
3486157,-0.12,0.01,0.99,1.95,3.66,1.46,983.79,32.76
3486195,-0.12,0.01,0.99,1.89,3.78,1.46,983.74,32.76
3486233,-0.12,0.01,0.98,2.01,3.66,1.46,983.78,32.76
3486271,-0.12,0.01,0.98,2.08,3.72,1.46,983.79,32.77
3486309,-0.12,0.01,0.98,2.01,3.85,1.53,983.82,32.77
3486347,-0.12,0.01,0.98,1.89,3.54,1.53,983.78,32.76
3486397,-0.12,0.01,0.98,2.08,3.66,1.4,983.83,32.75
3486435,-0.12,0.01,0.98,2.01,3.72,1.46,983.77,32.76
3486473,-0.12,0.01,0.99,2.14,3.66,1.46,983.77,32.77
3486512,-0.12,0.01,0.99,2.01,3.42,1.59,983.76,32.77
3486550,-0.12,0.01,0.98,1.89,3.66,1.4,983.79,32.77
3486588,-0.12,0.01,0.98,2.14,3.48,1.34,983.71,32.76
3486626,-0.12,0.01,0.98,2.14,3.42,1.53,983.75,32.77
3486664,-0.12,0.01,0.98,2.08,3.48,1.22,983.77,32.77
3486702,-0.12,0.01,0.98,2.01,3.48,1.28,983.82,32.76
3486740,-0.13,0.01,0.98,2.01,3.6,1.46,983.78,32.78
3486790,-0.12,0.02,0.98,2.08,3.54,1.53,983.8,32.76
3486828,-0.12,0.01,0.98,2.14,3.66,1.4,983.81,32.75
3486866,-0.12,0.01,0.99,1.95,3.78,1.59,983.75,32.75
3486904,-0.12,0.01,0.98,2.08,3.78,1.53,983.8,32.77
3486943,-0.12,0.01,0.98,2.01,3.78,1.46,983.75,32.77
3486981,-0.12,0.01,0.98,2.08,3.85,1.46,983.78,32.77
3487019,-0.12,0.01,0.98,2.08,3.66,1.53,983.74,32.77
3487057,-0.12,0.01,0.98,2.08,3.78,1.46,983.75,32.77
3487095,-0.12,0.01,0.98,1.95,3.72,1.46,983.75,32.77
3487133,-0.12,0.01,0.99,2.14,3.54,1.46,983.83,32.77
3487183,-0.12,0.01,0.99,2.01,3.54,1.4,983.76,32.76
3487221,-0.12,0.01,0.99,1.95,3.66,1.46,983.8,32.77
3487259,-0.12,0.01,0.98,2.14,3.54,1.53,983.76,32.76
3487297,-0.12,0.01,0.98,1.95,3.6,1.53,983.81,32.76
3487335,-0.12,0.01,0.98,1.95,3.48,1.53,983.77,32.78
3487373,-0.12,0.01,0.98,1.95,3.66,1.46,983.85,32.77
3487412,-0.12,0.01,0.98,2.08,3.48,1.46,983.75,32.77
3487450,-0.12,0.01,0.98,1.95,3.6,1.53,983.79,32.77
3487488,-0.12,0.01,0.98,2.01,3.85,1.59,983.72,32.77
3487526,-0.12,0.01,0.98,2.08,3.78,1.46,983.72,32.77
3487576,-0.12,0.01,0.98,2.14,3.72,1.34,983.8,32.76
3487614,-0.12,0.01,0.98,2.01,3.72,1.4,983.73,32.76
3487652,-0.12,0.01,0.99,2.14,3.6,1.34,983.76,32.77
3487690,-0.12,0.01,0.99,2.2,3.72,1.46,983.82,32.78
3487728,-0.12,0.01,0.99,2.08,3.78,1.65,983.82,32.76
3487766,-0.12,0.01,0.98,2.01,3.66,1.46,983.78,32.77
3487804,-0.12,0.01,0.98,2.08,3.78,1.28,983.81,32.78
3487843,-0.12,0.01,0.98,1.95,3.6,1.4,983.73,32.77
3487881,-0.12,0.01,0.98,2.08,3.6,1.59,983.75,32.77
3487956,-0.12,0.01,0.99,1.89,3.48,1.4,983.72,32.74
3487994,-0.12,0.01,0.98,2.08,3.54,1.65,983.73,32.76
3488033,-0.12,0.01,0.99,2.01,3.6,1.4,983.73,32.75
3488122,-0.12,0.01,0.98,2.08,3.72,1.46,983.77,32.72
3488160,-0.12,0.01,0.98,2.08,3.6,1.59,983.81,32.74
3488198,-0.12,0.01,0.98,2.14,3.66,1.53,983.76,32.75
3488236,-0.12,0.01,0.98,2.01,3.6,1.53,983.77,32.75
3488275,-0.12,0.01,0.98,2.14,3.72,1.53,983.76,32.75
3488313,-0.12,0.02,0.98,2.08,3.66,1.53,983.78,32.75
3488351,-0.12,0.02,0.99,2.08,3.85,1.53,983.75,32.74
3488401,-0.12,0.01,0.98,2.01,3.78,1.65,983.8,32.76
3488439,-0.12,0.01,0.98,2.2,3.66,1.53,983.73,32.76
3488477,-0.12,0.01,0.98,2.08,3.6,1.59,983.77,32.77
3488515,-0.12,0.01,0.98,2.01,3.6,1.53,983.83,32.77
3488553,-0.12,0.01,0.98,1.89,3.48,1.53,983.76,32.78
3488591,-0.12,0.01,0.99,1.95,3.66,1.46,983.77,32.76
3488629,-0.12,0.02,0.98,1.89,3.66,1.4,983.77,32.76
3488667,-0.12,0.01,0.98,2.01,3.6,1.46,983.76,32.76
3488706,-0.12,0.01,0.99,2.08,3.6,1.59,983.76,32.77
3488744,-0.12,0.01,0.98,2.08,3.6,1.4,983.71,32.77
3488793,-0.13,0.01,0.98,2.01,3.66,1.46,983.78,32.75
3488832,-0.13,0.01,0.98,2.08,3.72,1.46,983.79,32.78
3488870,-0.12,0.01,0.98,2.14,3.66,1.46,983.79,32.76
3488908,-0.12,0.01,0.98,2.01,3.78,1.53,983.82,32.78
3488946,-0.12,0.01,0.98,2.08,3.72,1.46,983.78,32.78
3488984,-0.12,0.01,0.98,2.14,3.78,1.53,983.79,32.77
3489022,-0.12,0.01,0.98,2.08,3.66,1.4,983.79,32.76
3489060,-0.12,0.01,0.99,1.77,3.72,1.53,983.78,32.77
3489098,-0.12,0.01,0.98,2.08,3.78,1.59,983.8,32.78
3489137,-0.12,0.01,0.98,2.08,3.72,1.53,983.78,32.77
3489186,-0.12,0.01,0.98,2.01,3.66,1.59,983.75,32.76
3489224,-0.12,0.01,0.98,1.89,3.72,1.46,983.8,32.76
3489263,-0.12,0.01,0.98,2.01,3.66,1.46,983.76,32.75
3489301,-0.12,0.01,0.98,1.95,3.91,1.59,983.8,32.76
3489339,-0.12,0.01,0.99,2.2,3.54,1.53,983.8,32.78
3489377,-0.12,0.01,0.98,1.95,3.72,1.53,983.74,32.77
3489415,-0.12,0.01,0.99,2.14,3.72,1.34,983.74,32.77
3489453,-0.12,0.01,0.98,2.08,3.54,1.53,983.71,32.76
3489491,-0.12,0.01,0.98,2.08,3.72,1.4,983.76,32.77
3489529,-0.12,0.01,0.99,1.95,3.6,1.59,983.77,32.77
3489579,-0.12,0.01,0.98,2.08,3.72,1.53,983.78,32.75
3489617,-0.12,0.01,0.98,2.14,3.72,1.46,983.78,32.76
3489655,-0.12,0.02,0.98,1.95,3.78,1.53,983.75,32.77
3489694,-0.12,0.01,0.99,1.95,3.66,1.4,983.76,32.78
3489732,-0.12,0.01,0.98,2.01,3.78,1.53,983.83,32.78
3489770,-0.12,0.01,0.98,2.2,3.72,1.59,983.74,32.77
3489808,-0.12,0.01,0.98,1.95,3.72,1.53,983.78,32.78
3489846,-0.12,0.01,0.98,2.08,3.54,1.46,983.75,32.77
3489884,-0.12,0.01,0.98,2.14,3.66,1.4,983.81,32.78
3489922,-0.12,0.01,0.99,1.95,3.6,1.46,983.8,32.76
3489972,-0.12,0.01,0.98,2.01,3.66,1.4,983.79,32.76
3490010,-0.12,0.01,0.98,2.14,3.54,1.4,983.72,32.76
3490048,-0.12,0.01,0.99,2.14,3.54,1.53,983.79,32.76
3490087,-0.12,0.01,0.98,2.01,3.66,1.4,983.8,32.77
3490125,-0.12,0.01,0.98,1.95,3.78,1.46,983.8,32.77
3490163,-0.12,0.01,0.98,2.14,3.54,1.4,983.8,32.78
3490201,-0.12,0.01,0.98,2.01,3.72,1.46,983.76,32.78
3490239,-0.12,0.01,0.98,2.14,3.66,1.59,983.75,32.77
3490277,-0.12,0.02,0.98,2.08,3.72,1.46,983.78,32.76
3490327,-0.12,0.02,0.99,1.95,3.72,1.46,983.79,32.76
3490365,-0.12,0.01,0.98,2.14,3.66,1.4,983.81,32.77
3490403,-0.12,0.01,0.99,2.08,3.72,1.34,983.8,32.77
3490441,-0.12,0.01,0.98,2.01,3.66,1.65,983.78,32.79
3490480,-0.12,0.01,0.98,2.08,3.66,1.59,983.77,32.77
3490518,-0.12,0.01,0.98,1.95,3.6,1.59,983.78,32.77
3490556,-0.12,0.02,0.98,1.95,3.6,1.53,983.72,32.77
3490594,-0.12,0.02,0.99,2.08,3.42,1.46,983.83,32.78
3490632,-0.12,0.01,0.98,2.08,3.66,1.46,983.81,32.77
3490670,-0.12,0.01,0.98,1.95,3.66,1.34,983.8,32.78
3490720,-0.12,0.01,0.99,2.14,3.66,1.4,983.86,32.76
3490758,-0.12,0.01,0.98,2.14,3.6,1.53,983.78,32.77
3490796,-0.12,0.01,0.98,2.01,3.6,1.46,983.73,32.77
3490834,-0.12,0.01,0.98,1.89,3.6,1.46,983.76,32.76
3490872,-0.12,0.01,0.98,2.01,3.6,1.46,983.8,32.77
3490911,-0.12,0.01,0.98,2.01,3.6,1.53,983.75,32.76
3490949,-0.12,0.01,0.98,1.89,3.72,1.53,983.82,32.76
3490987,-0.12,0.01,0.99,2.01,3.72,1.59,983.76,32.76
3491025,-0.12,0.01,0.99,1.95,3.66,1.46,983.81,32.78
3491063,-0.12,0.01,0.98,2.14,3.72,1.53,983.8,32.77
3491139,-0.12,0.02,0.98,2.01,3.78,1.59,983.81,32.76
3491177,-0.12,0.01,0.98,2.14,3.72,1.46,983.78,32.75
3491215,-0.12,0.01,0.98,2.01,3.72,1.53,983.81,32.76
3491304,-0.12,0.01,0.99,2.08,3.78,1.46,983.78,32.73
3491343,-0.12,0.01,0.99,2.01,3.78,1.46,983.8,32.75
3491381,-0.12,0.01,0.99,2.08,3.6,1.53,983.8,32.75
3491419,-0.12,0.01,0.98,2.01,3.66,1.4,983.77,32.76
3491457,-0.12,0.01,0.98,2.01,3.78,1.59,983.84,32.77
3491495,-0.12,0.01,0.98,2.01,3.6,1.46,983.79,32.77
3491533,-0.12,0.01,0.98,2.01,3.54,1.53,983.8,32.76
3491583,-0.12,0.01,0.98,1.95,3.66,1.53,983.78,32.74
3491621,-0.12,0.01,0.99,2.08,3.6,1.53,983.81,32.75
3491659,-0.12,0.01,0.98,2.01,3.78,1.46,983.78,32.76
3491697,-0.12,0.01,0.98,2.01,3.6,1.46,983.75,32.74
3491735,-0.12,0.01,0.98,2.01,3.72,1.53,983.81,32.76
3491773,-0.12,0.01,0.98,2.14,3.72,1.46,983.76,32.75
3491812,-0.12,0.01,0.98,1.95,3.66,1.46,983.78,32.77
3491850,-0.12,0.01,0.99,2.08,3.78,1.46,983.79,32.77
3491888,-0.12,0.01,0.98,2.01,3.78,1.46,983.73,32.75
3491926,-0.12,0.01,0.98,2.14,3.78,1.4,983.8,32.76
3491976,-0.12,0.01,0.98,2.14,3.85,1.4,983.83,32.76
3492014,-0.12,0.01,0.98,1.95,3.66,1.46,983.78,32.76
3492052,-0.12,0.01,0.99,2.08,3.78,1.4,983.76,32.75
3492090,-0.12,0.01,0.98,2.2,3.72,1.34,983.78,32.76
3492128,-0.12,0.01,0.98,2.01,3.78,1.46,983.71,32.76
3492167,-0.12,0.01,0.98,2.08,3.85,1.65,983.8,32.77
3492205,-0.12,0.01,0.98,2.01,3.54,1.53,983.79,32.78
3492243,-0.12,0.01,0.98,1.95,3.54,1.4,983.73,32.76
3492281,-0.12,0.02,0.98,2.14,3.6,1.65,983.73,32.75
3492319,-0.12,0.01,0.98,2.01,3.54,1.65,983.76,32.76
3492369,-0.12,0.01,0.99,2.01,3.6,1.28,983.78,32.75
3492407,-0.12,0.01,0.98,1.83,3.54,1.46,983.72,32.75
3492445,-0.12,0.01,0.98,2.08,3.54,1.34,983.77,32.78
3492483,-0.13,0.01,0.98,2.08,3.6,1.4,983.77,32.76
3492521,-0.13,0.01,0.98,2.08,3.66,1.53,983.79,32.77
3492560,-0.12,0.01,0.98,2.08,3.85,1.71,983.76,32.76
3492598,-0.12,0.01,0.98,2.08,3.72,1.46,983.75,32.78
3492636,-0.12,0.01,0.98,1.95,3.6,1.46,983.78,32.76
3492674,-0.12,0.01,0.98,1.89,3.85,1.53,983.79,32.77
3492712,-0.12,0.01,0.99,2.08,3.85,1.53,983.75,32.76
3492762,-0.12,0.01,0.99,1.95,3.72,1.4,983.78,32.76
3492800,-0.12,0.01,0.98,2.14,3.85,1.46,983.74,32.76
3492838,-0.12,0.01,0.98,1.95,3.78,1.46,983.77,32.76
3492876,-0.12,0.01,0.98,2.01,3.54,1.46,983.77,32.77
3492914,-0.12,0.01,0.98,1.89,3.72,1.4,983.79,32.78
3492953,-0.12,0.01,0.98,2.01,3.66,1.53,983.81,32.76
3492991,-0.12,0.01,0.99,2.14,3.66,1.46,983.79,32.78
3493029,-0.12,0.01,0.98,1.89,3.6,1.59,983.77,32.76
3493067,-0.12,0.01,0.98,2.14,3.54,1.46,983.7,32.77
3493117,-0.12,0.01,0.99,2.01,3.42,1.65,983.81,32.77
3493155,-0.12,0.01,0.98,2.2,3.6,1.65,983.75,32.77
3493193,-0.12,0.01,0.98,2.08,3.66,1.4,983.8,32.77
3493231,-0.12,0.01,0.98,2.14,3.72,1.59,983.78,32.78
3493269,-0.12,0.01,0.98,1.95,3.6,1.4,983.77,32.78
3493307,-0.13,0.01,0.98,2.14,3.85,1.46,983.71,32.79
3493346,-0.12,0.01,0.98,2.08,3.66,1.53,983.78,32.78
3493384,-0.12,0.01,0.98,2.08,3.72,1.53,983.76,32.77
3493422,-0.12,0.01,0.98,2.08,3.78,1.59,983.81,32.78
3493460,-0.12,0.01,0.98,2.08,3.72,1.53,983.79,32.78
3493510,-0.12,0.01,0.98,2.14,3.85,1.34,983.75,32.76
3493548,-0.12,0.01,0.98,2.08,3.85,1.46,983.77,32.78
3493586,-0.12,0.01,0.99,2.01,3.66,1.34,983.79,32.77
3493624,-0.12,0.01,0.98,1.95,3.66,1.46,983.78,32.77
3493662,-0.12,0.02,0.98,1.95,3.6,1.46,983.79,32.78
3493700,-0.12,0.02,0.98,2.08,3.54,1.46,983.81,32.78
3493738,-0.12,0.01,0.99,2.08,3.6,1.53,983.77,32.78
3493777,-0.12,0.01,0.98,1.95,3.54,1.46,983.8,32.78
3493815,-0.12,0.01,0.99,2.08,3.6,1.59,983.79,32.79
3493853,-0.13,0.01,0.98,1.89,3.66,1.59,983.76,32.77
3493903,-0.13,0.01,0.98,1.89,3.54,1.46,983.76,32.76
3493941,-0.13,0.01,0.98,2.01,3.6,1.65,983.83,32.78
3493979,-0.12,0.01,0.98,2.08,3.66,1.4,983.82,32.78
3494017,-0.12,0.01,0.98,2.01,3.85,1.46,983.79,32.78
3494055,-0.12,0.01,0.98,1.95,3.6,1.4,983.78,32.77
3494093,-0.12,0.01,0.98,2.14,3.91,1.34,983.81,32.77
3494131,-0.12,0.01,0.98,2.14,3.72,1.4,983.84,32.78
3494170,-0.12,0.02,0.98,2.08,3.72,1.53,983.75,32.78
3494208,-0.12,0.01,0.98,1.89,3.85,1.53,983.8,32.78
3494246,-0.12,0.01,0.98,1.89,3.72,1.53,983.77,32.77
3494322,-0.12,0.01,0.98,2.01,3.66,1.4,983.8,32.74
3494360,-0.12,0.01,0.98,2.08,3.66,1.4,983.78,32.76
3494398,-0.12,0.01,0.98,1.95,3.78,1.4,983.76,32.75
3494487,-0.12,0.01,0.98,2.14,3.6,1.34,983.78,32.73
3494526,-0.12,0.01,0.98,2.08,3.6,1.46,983.78,32.74
3494564,-0.12,0.01,0.98,1.95,3.54,1.46,983.78,32.76
3494602,-0.12,0.01,0.99,2.14,3.78,1.4,983.71,32.75
3494640,-0.12,0.02,0.98,1.95,3.85,1.46,983.8,32.75
3494678,-0.12,0.02,0.98,1.95,3.72,1.53,983.81,32.76
3494716,-0.12,0.01,0.98,2.08,3.72,1.59,983.8,32.75
3494766,-0.12,0.01,0.99,2.01,3.66,1.53,983.77,32.75
3494804,-0.12,0.01,0.98,2.01,3.72,1.53,983.79,32.76
3494842,-0.12,0.01,0.98,2.14,3.54,1.34,983.81,32.76
3494880,-0.12,0.01,0.98,2.08,3.78,1.4,983.82,32.76
3494918,-0.12,0.01,0.98,2.08,3.72,1.46,983.75,32.76
3494956,-0.12,0.01,0.99,2.01,3.85,1.53,983.75,32.76
3494994,-0.12,0.01,0.98,2.14,3.66,1.53,983.72,32.75
3495032,-0.12,0.01,0.99,1.95,3.72,1.53,983.76,32.76
3495071,-0.12,0.01,0.99,2.14,3.66,1.59,983.76,32.77
3495109,-0.12,0.01,0.99,1.89,3.66,1.53,983.75,32.77
3495159,-0.12,0.01,0.98,2.01,3.54,1.59,983.78,32.78
3495197,-0.12,0.01,0.98,2.14,3.6,1.53,983.79,32.75
3495235,-0.12,0.01,0.98,2.14,3.72,1.59,983.72,32.76
3495273,-0.12,0.01,0.98,1.89,3.6,1.53,983.78,32.78
3495311,-0.12,0.01,0.98,1.89,3.66,1.53,983.77,32.77
3495349,-0.12,0.01,0.98,1.89,3.54,1.59,983.79,32.78
3495387,-0.12,0.01,0.98,2.08,3.66,1.53,983.77,32.77
3495425,-0.12,0.01,0.99,2.01,3.48,1.46,983.85,32.78
3495464,-0.12,0.01,0.98,1.83,3.72,1.46,983.78,32.77
3495513,-0.12,0.01,0.98,2.01,3.6,1.65,983.75,32.77
3495551,-0.12,0.01,0.98,2.08,3.72,1.59,983.74,32.77
3495590,-0.12,0.01,0.98,1.95,3.78,1.46,983.76,32.77
3495628,-0.12,0.01,0.99,1.95,3.78,1.46,983.77,32.78
3495666,-0.12,0.01,0.98,2.08,3.78,1.34,983.75,32.77
3495704,-0.12,0.01,0.99,2.14,3.97,1.53,983.74,32.78
3495742,-0.12,0.01,0.98,2.14,3.66,1.4,983.76,32.78
3495780,-0.12,0.01,0.98,2.01,3.6,1.53,983.72,32.79
3495818,-0.12,0.01,0.98,1.89,3.54,1.4,983.76,32.78
3495856,-0.12,0.01,0.98,2.14,3.6,1.46,983.72,32.79
3495906,-0.12,0.01,0.98,1.95,3.6,1.46,983.78,32.78
3495944,-0.12,0.01,0.99,1.89,3.48,1.65,983.72,32.77
3495983,-0.12,0.01,0.99,2.08,3.78,1.53,983.76,32.77
3496021,-0.12,0.01,0.98,1.95,3.54,1.59,983.74,32.77
3496059,-0.12,0.01,0.98,2.08,3.66,1.34,983.77,32.77
3496097,-0.12,0.01,0.98,2.01,3.6,1.59,983.73,32.77
3496135,-0.12,0.01,0.98,2.01,3.66,1.53,983.81,32.79
3496173,-0.12,0.01,0.98,2.08,3.6,1.46,983.78,32.78
3496211,-0.12,0.01,0.99,1.95,3.72,1.4,983.73,32.77
3496249,-0.12,0.01,0.98,1.89,3.72,1.46,983.76,32.77
3496299,-0.12,0.01,0.98,2.01,3.66,1.4,983.82,32.78
3496337,-0.12,0.01,0.98,2.01,3.72,1.46,983.79,32.78
3496375,-0.12,0.01,0.98,2.08,3.72,1.46,983.75,32.78
3496413,-0.12,0.01,0.98,1.83,3.6,1.46,983.74,32.76
3496452,-0.12,0.01,0.99,1.95,3.54,1.4,983.76,32.78
3496490,-0.12,0.01,0.98,1.95,3.42,1.4,983.74,32.78
3496528,-0.12,0.01,0.99,2.01,3.54,1.46,983.78,32.78
3496566,-0.12,0.01,0.98,1.89,3.6,1.46,983.72,32.78
3496604,-0.12,0.01,0.98,2.08,3.72,1.4,983.77,32.79
3496642,-0.12,0.01,0.98,2.08,3.54,1.53,983.73,32.78
3496692,-0.12,0.01,0.98,2.01,3.48,1.4,983.78,32.78
3496730,-0.12,0.01,0.98,1.95,3.66,1.53,983.78,32.78
3496768,-0.12,0.01,0.98,1.95,3.54,1.59,983.75,32.78
3496806,-0.12,0.01,0.98,2.01,3.6,1.53,983.74,32.78
3496844,-0.12,0.01,0.98,1.95,3.6,1.53,983.77,32.78
3496883,-0.12,0.01,0.98,2.08,3.85,1.46,983.79,32.78
3496921,-0.12,0.01,0.98,2.14,3.66,1.4,983.8,32.78
3496959,-0.12,0.02,0.98,2.2,3.91,1.4,983.75,32.77
3496997,-0.12,0.01,0.98,2.08,3.72,1.46,983.76,32.77
3497035,-0.12,0.01,0.98,2.01,3.72,1.53,983.77,32.77
3497085,-0.12,0.01,0.98,2.14,3.66,1.59,983.8,32.78
3497123,-0.12,0.01,0.98,1.95,3.72,1.46,983.76,32.77
3497161,-0.12,0.01,0.98,2.01,3.54,1.53,983.81,32.78
3497199,-0.12,0.01,0.98,2.01,3.72,1.53,983.71,32.78
3497237,-0.12,0.02,0.98,1.83,3.6,1.46,983.79,32.78
3497276,-0.12,0.01,0.98,2.01,3.48,1.46,983.8,32.78
3497314,-0.12,0.01,0.99,2.08,3.6,1.53,983.73,32.78
3497352,-0.14,0.01,1.0,2.08,3.54,1.46,983.77,32.79
3497390,-0.11,0.01,0.98,1.95,3.6,1.46,983.78,32.78
3497428,-0.12,0.02,0.98,2.08,3.72,1.53,983.74,32.78
3497504,-0.12,0.01,0.98,1.95,3.6,1.53,983.79,32.76
3497542,-0.12,0.01,0.98,2.01,3.54,1.65,983.82,32.76
3497580,-0.12,0.01,0.98,2.01,3.72,1.46,983.82,32.78
3497670,-0.12,0.01,0.98,2.08,3.72,1.4,983.79,32.73
3497708,-0.12,0.01,0.99,2.14,3.66,1.46,983.77,32.75
3497746,-0.12,0.01,0.99,2.01,3.72,1.53,983.74,32.74
3497784,-0.12,0.01,0.98,2.2,3.85,1.46,983.76,32.76
3497822,-0.12,0.01,0.98,1.95,3.78,1.4,983.85,32.76
3497860,-0.12,0.01,0.98,2.01,3.66,1.4,983.77,32.76
3497899,-0.12,0.01,0.98,1.95,3.78,1.4,983.76,32.76
3497948,-0.12,0.01,0.98,2.14,3.6,1.53,983.81,32.75
3497987,-0.12,0.01,0.99,2.01,3.66,1.65,983.82,32.77
3498025,-0.12,0.01,0.98,1.95,3.72,1.4,983.76,32.76
3498063,-0.12,0.01,0.99,2.08,3.78,1.53,983.76,32.77
3498101,-0.12,0.01,0.98,2.01,3.54,1.4,983.79,32.77
3498139,-0.12,0.01,0.98,2.08,3.66,1.46,983.74,32.78
3498177,-0.12,0.01,0.98,1.95,3.54,1.4,983.82,32.76
3498215,-0.12,0.01,0.98,2.01,3.48,1.59,983.82,32.77
3498253,-0.12,0.01,0.98,1.89,3.66,1.28,983.81,32.77
3498303,-0.12,0.01,0.98,1.95,3.6,1.4,983.82,32.79
3498341,-0.12,0.01,0.98,1.89,3.78,1.65,983.72,32.75
3498379,-0.12,0.01,0.98,2.08,3.78,1.46,983.81,32.77
3498418,-0.12,0.01,0.99,2.08,3.66,1.59,983.79,32.76
3498456,-0.12,0.01,0.98,2.01,3.91,1.46,983.78,32.77
3498494,-0.12,0.01,0.99,2.01,3.66,1.46,983.82,32.77
3498532,-0.12,0.01,0.98,2.01,3.72,1.53,983.8,32.78
3498570,-0.12,0.01,0.98,2.08,3.6,1.4,983.77,32.78
3498608,-0.12,0.01,0.98,2.01,3.54,1.53,983.76,32.77
3498646,-0.12,0.01,0.99,2.01,3.6,1.65,983.74,32.77
3498696,-0.12,0.01,0.98,1.95,3.72,1.59,983.76,32.77
3498734,-0.12,0.02,0.98,1.95,3.6,1.34,983.82,32.77
3498772,-0.12,0.01,0.99,1.95,3.66,1.28,983.79,32.77
3498810,-0.12,0.01,0.99,2.2,3.72,1.65,983.84,32.78
3498848,-0.12,0.01,0.98,1.89,3.48,1.34,983.75,32.77
3498887,-0.12,0.01,0.98,1.89,3.66,1.46,983.85,32.77
3498925,-0.12,0.01,0.98,2.08,3.48,1.59,983.71,32.77
3498963,-0.13,0.01,0.98,2.01,3.6,1.46,983.75,32.77
3499001,-0.12,0.01,0.98,2.08,3.66,1.46,983.81,32.79
3499039,-0.12,0.01,0.98,2.08,3.72,1.53,983.77,32.76
3499089,-0.12,0.02,0.98,2.08,3.66,1.65,983.8,32.77
3499127,-0.12,0.01,0.98,2.08,3.54,1.53,983.72,32.77
3499165,-0.12,0.01,0.99,2.01,3.78,1.53,983.82,32.78
3499203,-0.12,0.01,0.98,2.08,3.72,1.46,983.75,32.78
3499241,-0.12,0.01,0.98,2.08,3.54,1.34,983.81,32.77
3499279,-0.12,0.01,0.98,1.95,3.6,1.46,983.79,32.78
3499318,-0.12,0.01,0.98,2.01,3.42,1.53,983.81,32.78
3499356,-0.12,0.01,0.98,2.01,3.66,1.53,983.73,32.78
3499394,-0.12,0.01,0.98,2.01,3.78,1.59,983.78,32.78
3499432,-0.12,0.01,0.98,2.14,3.48,1.4,983.7,32.76
3499482,-0.12,0.01,0.99,2.08,3.54,1.4,983.74,32.76
3499520,-0.12,0.01,0.98,2.08,3.66,1.46,983.75,32.76
3499558,-0.12,0.01,0.98,2.01,3.48,1.46,983.8,32.78
3499596,-0.12,0.01,0.98,2.08,3.6,1.53,983.74,32.78
3499634,-0.13,0.01,0.98,2.01,3.6,1.4,983.8,32.78
3499672,-0.13,0.01,0.98,2.08,3.78,1.34,983.8,32.77
3499710,-0.12,0.01,0.98,1.89,3.54,1.59,983.76,32.78
3499749,-0.12,0.01,0.98,1.95,3.78,1.4,983.76,32.78
3499787,-0.12,0.01,0.98,1.83,3.72,1.34,983.76,32.77
3499825,-0.12,0.02,0.98,1.83,3.54,1.4,983.77,32.78
3499875,-0.12,0.02,0.98,1.95,3.72,1.46,983.79,32.78
3499913,-0.12,0.01,0.99,2.2,3.72,1.4,983.8,32.77
3499951,-0.12,0.01,0.98,2.08,3.6,1.53,983.82,32.78
3499989,-0.12,0.02,0.98,2.2,3.6,1.4,983.79,32.77
3500027,-0.13,0.01,0.99,1.95,3.54,1.4,983.8,32.78
3500065,-0.12,0.01,0.98,1.95,3.72,1.4,983.82,32.8
3500104,-0.12,0.01,0.98,2.01,3.48,1.53,983.79,32.78
3500142,-0.12,0.01,0.98,1.95,3.48,1.46,983.8,32.79
3500180,-0.12,0.01,0.98,2.08,3.48,1.53,983.78,32.78
3500218,-0.12,0.01,0.99,2.08,3.54,1.46,983.8,32.79
3500268,-0.13,0.01,0.98,2.08,3.54,1.34,983.77,32.78
3500306,-0.12,0.01,0.98,2.08,3.6,1.4,983.78,32.78
3500344,-0.13,0.02,0.98,2.01,3.66,1.46,983.77,32.79
3500382,-0.12,0.02,0.98,2.14,3.6,1.53,983.77,32.77
3500420,-0.12,0.01,0.98,2.08,3.78,1.65,983.78,32.79
3500459,-0.13,0.01,0.98,1.89,3.85,1.46,983.73,32.78
3500497,-0.12,0.01,0.99,2.14,3.72,1.65,983.8,32.79
3500535,-0.12,0.01,0.98,2.01,3.72,1.46,983.79,32.78
3500573,-0.12,0.02,0.98,2.08,3.72,1.59,983.76,32.78
3500649,-0.12,0.01,0.98,2.08,3.78,1.65,983.77,32.76
3500687,-0.12,0.01,0.99,2.01,3.72,1.59,983.81,32.76
3500725,-0.12,0.01,0.98,2.14,3.85,1.46,983.78,32.78
3500815,-0.12,0.01,0.98,2.01,3.66,1.59,983.78,32.74
3500853,-0.12,0.01,0.98,1.89,3.54,1.59,983.74,32.74
3500891,-0.12,0.01,0.98,1.95,3.48,1.59,983.76,32.77
3500929,-0.12,0.02,0.98,1.95,3.48,1.4,983.8,32.77
3500967,-0.12,0.01,0.99,1.95,3.54,1.59,983.75,32.77
3501005,-0.13,0.01,0.98,2.08,3.48,1.34,983.78,32.76
3501043,-0.12,0.01,0.98,2.01,3.78,1.53,983.83,32.79
3501093,-0.12,0.01,0.98,2.14,3.72,1.46,983.77,32.76
3501131,-0.12,0.01,0.98,2.14,3.54,1.53,983.77,32.76
3501169,-0.12,0.01,0.98,2.08,3.48,1.59,983.84,32.78
3501207,-0.12,0.01,0.98,1.83,3.66,1.53,983.76,32.76
3501245,-0.12,0.01,0.98,2.01,3.66,1.34,983.79,32.76
3501284,-0.12,0.01,0.98,2.08,3.78,1.46,983.81,32.78
3501322,-0.12,0.01,0.99,2.14,3.66,1.53,983.81,32.77
3501360,-0.12,0.01,0.98,2.08,3.72,1.46,983.78,32.78
3501398,-0.12,0.01,0.98,1.95,3.66,1.4,983.84,32.77
3501436,-0.12,0.01,0.98,2.14,3.54,1.53,983.77,32.78
3501486,-0.12,0.02,0.98,2.01,3.66,1.59,983.82,32.77
3501524,-0.12,0.01,0.98,2.01,3.6,1.59,983.77,32.77
3501562,-0.12,0.01,0.99,1.95,3.48,1.46,983.78,32.77
3501600,-0.12,0.01,0.99,1.95,3.48,1.65,983.79,32.78
3501639,-0.13,0.01,0.99,2.2,3.48,1.53,983.77,32.77
3501677,-0.13,0.01,0.98,2.01,3.6,1.53,983.72,32.78
3501715,-0.12,0.01,0.98,2.2,3.54,1.53,983.85,32.78
3501753,-0.12,0.01,0.98,1.95,3.66,1.46,983.77,32.77
3501791,-0.12,0.01,0.98,1.89,3.72,1.65,983.8,32.78
3501829,-0.12,0.02,0.98,2.08,3.91,1.46,983.82,32.79
3501879,-0.12,0.01,0.98,1.83,3.85,1.46,983.74,32.76
3501917,-0.12,0.01,0.99,2.01,3.54,1.53,983.79,32.78
3501955,-0.12,0.01,0.98,2.14,3.72,1.53,983.81,32.78
3501994,-0.12,0.02,0.99,2.01,3.6,1.4,983.74,32.79
3502032,-0.12,0.02,0.99,2.08,3.54,1.4,983.75,32.77
3502070,-0.12,0.01,0.98,2.14,3.78,1.46,983.84,32.79
3502108,-0.12,0.01,0.98,2.01,3.42,1.34,983.82,32.78
3502146,-0.12,0.01,0.98,1.95,3.6,1.46,983.78,32.79
3502184,-0.12,0.01,0.98,2.14,3.6,1.59,983.8,32.78
3502222,-0.12,0.01,0.98,2.08,3.48,1.59,983.71,32.78
3502272,-0.12,0.01,0.98,2.08,3.72,1.34,983.78,32.78
3502310,-0.12,0.02,0.98,2.26,3.66,1.53,983.82,32.78
3502349,-0.12,0.02,0.99,2.01,3.6,1.34,983.77,32.77
3502387,-0.12,0.01,0.98,1.95,3.6,1.4,983.71,32.77
3502425,-0.12,0.01,0.99,2.08,3.48,1.46,983.83,32.79
3502463,-0.13,0.01,0.98,2.08,3.54,1.53,983.76,32.78
3502501,-0.12,0.01,0.98,2.14,3.78,1.65,983.8,32.78
3502539,-0.12,0.01,0.98,2.2,3.66,1.53,983.79,32.79
3502577,-0.12,0.01,0.98,2.08,3.72,1.46,983.79,32.8
3502616,-0.12,0.01,0.98,2.08,3.72,1.46,983.74,32.78
3502665,-0.12,0.01,0.98,1.95,3.72,1.4,983.81,32.78
3502703,-0.12,0.02,0.99,1.89,3.66,1.46,983.81,32.78
3502742,-0.12,0.01,0.99,2.2,3.72,1.59,983.78,32.79
3502780,-0.12,0.01,0.99,2.01,3.66,1.46,983.76,32.78
3502818,-0.12,0.01,0.98,2.14,3.78,1.46,983.77,32.78
3502856,-0.12,0.01,0.98,1.95,3.78,1.46,983.77,32.78
3502894,-0.12,0.01,0.98,2.08,3.85,1.53,983.79,32.79
3502932,-0.12,0.01,0.98,2.14,3.54,1.46,983.81,32.79
3502970,-0.12,0.01,0.98,1.89,3.6,1.59,983.77,32.78
3503009,-0.12,0.01,0.98,1.95,3.72,1.46,983.8,32.78
3503058,-0.12,0.01,0.99,1.95,3.72,1.46,983.82,32.78
3503096,-0.12,0.02,0.99,2.01,3.54,1.46,983.81,32.8
3503135,-0.12,0.01,0.98,2.01,3.6,1.46,983.76,32.78
3503173,-0.12,0.01,0.98,2.08,3.6,1.4,983.81,32.77
3503211,-0.12,0.01,0.98,2.08,3.6,1.46,983.84,32.79
3503249,-0.12,0.01,0.98,2.2,3.85,1.59,983.71,32.78
3503287,-0.12,0.01,0.98,1.89,3.54,1.4,983.73,32.79
3503325,-0.12,0.01,0.99,2.01,3.6,1.46,983.76,32.78
3503363,-0.12,0.01,0.99,1.89,3.78,1.4,983.82,32.79
3503413,-0.12,0.01,0.98,2.08,3.72,1.4,983.77,32.78
3503451,-0.12,0.01,0.99,2.08,3.54,1.34,983.79,32.78
3503490,-0.12,0.01,0.99,2.14,3.78,1.4,983.79,32.78
3503528,-0.12,0.01,0.99,1.95,3.72,1.46,983.76,32.78
3503566,-0.12,0.01,0.98,2.01,3.6,1.16,983.77,32.79
3503604,-0.12,0.01,0.98,2.01,3.66,1.4,983.8,32.78
3503642,-0.12,0.01,0.98,2.01,3.66,1.4,983.78,32.78
3503680,-0.12,0.01,0.98,1.95,3.48,1.59,983.78,32.78
3503718,-0.12,0.01,0.99,2.01,3.66,1.53,983.76,32.79
3503756,-0.12,0.01,0.98,2.2,3.66,1.59,983.79,32.79
3503832,-0.12,0.01,0.98,1.95,3.78,1.53,983.79,32.76
3503870,-0.12,0.01,0.98,2.14,3.72,1.4,983.8,32.77
3503908,-0.12,0.01,0.98,1.89,3.78,1.53,983.75,32.77
3503998,-0.12,0.01,0.98,2.08,3.78,1.59,983.76,32.74
3504036,-0.12,0.01,0.98,2.01,3.6,1.53,983.77,32.76
3504074,-0.12,0.01,0.99,2.01,3.6,1.4,983.81,32.76
3504112,-0.12,0.01,0.98,1.89,3.6,1.53,983.75,32.75
3504150,-0.12,0.01,0.98,2.08,3.66,1.46,983.76,32.77
3504189,-0.12,0.01,0.98,2.01,3.72,1.53,983.8,32.77
3504227,-0.12,0.01,0.98,2.08,3.54,1.46,983.77,32.78
3504276,-0.12,0.01,0.98,1.89,3.72,1.53,983.73,32.76
3504315,-0.12,0.01,0.98,2.14,3.54,1.46,983.77,32.77
3504353,-0.12,0.01,0.98,1.89,3.6,1.59,983.75,32.76
3504391,-0.12,0.01,0.98,2.01,3.66,1.59,983.78,32.76
3504429,-0.12,0.01,0.98,1.89,3.6,1.59,983.78,32.78
3504467,-0.12,0.01,0.98,2.01,3.72,1.46,983.7,32.76
3504505,-0.12,0.01,0.98,1.83,3.66,1.46,983.78,32.77
3504543,-0.12,0.01,0.98,1.89,3.54,1.34,983.77,32.78
3504581,-0.12,0.01,0.99,1.95,3.48,1.4,983.78,32.77
3504620,-0.12,0.01,0.99,2.2,3.72,1.59,983.77,32.78
3504669,-0.12,0.01,0.98,2.14,3.6,1.46,983.81,32.76
3504707,-0.12,0.01,0.98,2.08,3.78,1.46,983.78,32.76
3504746,-0.12,0.01,0.98,1.89,3.6,1.46,983.81,32.78
3504784,-0.12,0.01,0.98,2.01,3.6,1.46,983.79,32.77
3504822,-0.12,0.01,0.98,2.01,3.48,1.4,983.75,32.77
3504860,-0.12,0.01,0.98,2.01,3.66,1.59,983.75,32.78
3504898,-0.12,0.01,0.98,2.01,3.6,1.59,983.79,32.78
3504936,-0.12,0.01,0.98,2.08,3.72,1.34,983.78,32.78
3504974,-0.12,0.01,0.99,2.2,3.66,1.4,983.75,32.76
3505013,-0.12,0.01,0.98,1.95,3.72,1.4,983.77,32.78
3505062,-0.12,0.01,0.98,1.95,3.66,1.4,983.81,32.78
3505101,-0.12,0.01,0.98,2.08,3.66,1.53,983.81,32.78
3505139,-0.12,0.01,0.98,2.08,3.66,1.4,983.83,32.77
3505177,-0.12,0.01,0.98,2.01,3.78,1.46,983.77,32.77
3505215,-0.12,0.01,0.98,2.08,3.72,1.53,983.78,32.78
3505253,-0.12,0.01,0.98,2.01,3.72,1.53,983.78,32.77
3505291,-0.12,0.01,0.98,2.01,3.6,1.53,983.83,32.78
3505329,-0.12,0.01,0.98,2.01,3.48,1.53,983.82,32.78
3505367,-0.12,0.01,0.98,2.08,3.72,1.46,983.75,32.78
3505405,-0.12,0.01,0.99,2.26,3.6,1.59,983.74,32.78
3505455,-0.12,0.01,0.98,2.14,3.6,1.59,983.73,32.77
3505493,-0.12,0.01,0.98,1.95,3.6,1.59,983.75,32.78
3505532,-0.12,0.01,0.98,2.01,3.66,1.46,983.75,32.77
3505570,-0.12,0.01,0.99,2.08,3.54,1.4,983.81,32.79
3505608,-0.12,0.01,0.99,1.95,3.42,1.46,983.77,32.77
3505646,-0.12,0.01,0.98,2.08,3.66,1.46,983.77,32.78
3505684,-0.12,0.01,0.98,2.08,3.6,1.34,983.78,32.78
3505722,-0.12,0.02,0.99,1.95,3.6,1.59,983.76,32.77
3505760,-0.12,0.01,0.98,2.01,3.66,1.4,983.77,32.78
3505810,-0.12,0.02,0.98,1.89,3.72,1.65,983.78,32.76
3505848,-0.12,0.01,0.98,2.01,3.66,1.46,983.83,32.79
3505886,-0.12,0.01,0.98,2.14,3.85,1.53,983.73,32.76
3505924,-0.12,0.01,0.98,1.89,3.78,1.34,983.83,32.78
3505963,-0.12,0.02,0.99,2.01,3.78,1.46,983.75,32.77
3506001,-0.1,0.02,0.99,1.89,3.85,1.53,983.73,32.77
3506039,-0.12,0.01,0.98,2.2,3.6,1.46,983.77,32.77
3506077,-0.12,0.01,0.98,2.14,3.72,1.46,983.77,32.78
3506115,-0.12,0.01,0.99,2.08,3.6,1.46,983.77,32.77
3506153,-0.13,0.01,0.98,1.95,3.6,1.34,983.74,32.77
3506203,-0.12,0.01,0.98,2.01,3.78,1.46,983.77,32.76
3506241,-0.12,0.01,0.99,2.2,3.6,1.53,983.73,32.78
3506279,-0.12,0.01,0.98,2.08,3.6,1.46,983.76,32.77
3506317,-0.12,0.01,0.99,1.95,3.6,1.46,983.77,32.78
3506355,-0.12,0.01,0.98,1.95,3.54,1.4,983.76,32.77
3506394,-0.12,0.01,0.99,1.89,3.66,1.4,983.76,32.78
3506432,-0.12,0.01,0.98,1.89,3.66,1.53,983.8,32.79
3506470,-0.12,0.01,0.98,2.08,3.66,1.4,983.79,32.79
3506508,-0.13,0.01,0.98,2.26,3.48,1.4,983.76,32.78
3506546,-0.12,0.01,0.98,2.01,3.72,1.53,983.74,32.78
3506596,-0.12,0.01,0.98,2.01,3.6,1.65,983.8,32.78
3506634,-0.12,0.01,0.99,1.95,3.54,1.65,983.78,32.79
3506672,-0.12,0.02,0.99,2.01,3.6,1.53,983.82,32.79
3506710,-0.12,0.01,0.98,2.01,3.6,1.65,983.73,32.77
3506748,-0.12,0.01,0.99,1.95,3.78,1.59,983.75,32.79
3506786,-0.12,0.01,0.99,2.08,3.85,1.46,983.74,32.78
3506825,-0.12,0.01,0.99,2.08,3.6,1.59,983.82,32.77
3506863,-0.12,0.01,0.98,2.08,3.78,1.59,983.76,32.78
3506901,-0.12,0.01,0.99,2.08,3.66,1.53,983.74,32.78
3506939,-0.12,0.01,0.98,2.01,3.85,1.59,983.81,32.78
3507016,-0.12,0.01,0.99,2.08,3.66,1.59,983.79,32.75
3507054,-0.12,0.01,0.99,1.95,3.72,1.59,983.8,32.76
3507092,-0.12,0.02,0.96,2.01,3.78,1.46,983.77,32.78
3507182,-0.12,0.01,0.98,2.14,3.72,1.53,983.79,32.75
3507220,-0.12,0.01,0.98,2.14,3.78,1.53,983.76,32.75
3507258,-0.12,0.01,0.98,2.2,3.66,1.4,983.79,32.75
3507296,-0.12,0.01,0.98,1.95,3.72,1.59,983.82,32.76
3507335,-0.12,0.01,0.99,2.08,3.66,1.53,983.77,32.75
3507373,-0.12,0.01,0.98,1.89,3.91,1.53,983.79,32.77
3507411,-0.12,0.01,0.98,2.08,3.72,1.53,983.83,32.78
3507461,-0.12,0.01,0.98,2.14,3.72,1.59,983.77,32.77
3507499,-0.12,0.01,0.98,2.2,3.78,1.59,983.77,32.77
3507537,-0.12,0.02,0.99,2.08,3.97,1.53,983.76,32.76
3507575,-0.12,0.01,0.98,2.08,3.6,1.4,983.79,32.77
3507613,-0.12,0.01,0.98,2.08,3.66,1.46,983.82,32.79
3507651,-0.12,0.01,0.99,2.14,3.66,1.65,983.78,32.78
3507689,-0.12,0.01,0.99,2.01,3.6,1.59,983.83,32.79
3507727,-0.12,0.01,0.99,2.08,3.54,1.59,983.88,32.8
3507766,-0.12,0.02,0.98,1.95,3.54,1.4,983.74,32.78
3507804,-0.12,0.01,0.98,2.08,3.72,1.46,983.78,32.78
3507853,-0.12,0.02,0.99,1.89,3.48,1.46,983.73,32.76
3507892,-0.12,0.01,0.98,1.95,3.54,1.59,983.77,32.78
3507930,-0.12,0.01,0.98,2.14,3.42,1.46,983.75,32.78
3507968,-0.12,0.01,0.99,2.01,3.66,1.53,983.78,32.78
3508006,-0.12,0.01,0.98,1.95,3.72,1.65,983.77,32.79
3508044,-0.12,0.01,0.99,2.08,3.54,1.4,983.81,32.78
3508082,-0.12,0.01,0.99,2.08,3.72,1.59,983.8,32.8
3508120,-0.12,0.02,0.99,2.01,3.72,1.53,983.73,32.79
3508158,-0.12,0.01,0.98,2.2,3.54,1.59,983.83,32.79
3508197,-0.12,0.01,0.98,2.01,3.72,1.4,983.79,32.78
3508246,-0.12,0.01,0.98,2.14,3.66,1.53,983.79,32.78
3508285,-0.12,0.01,0.98,2.14,3.66,1.65,983.78,32.79
3508323,-0.12,0.01,0.98,2.14,3.66,1.46,983.77,32.79
3508361,-0.12,0.01,0.97,2.14,3.66,1.4,983.79,32.78
3508399,-0.12,0.02,0.98,1.89,3.78,1.46,983.79,32.78
3508437,-0.12,0.01,0.98,2.08,3.66,1.65,983.8,32.78
3508475,-0.12,0.01,0.98,2.14,3.66,1.53,983.8,32.78
3508513,-0.12,0.01,0.99,2.01,3.54,1.4,983.81,32.79
3508551,-0.12,0.01,0.98,2.08,3.78,1.53,983.81,32.79
3508601,-0.12,0.01,0.99,2.14,3.66,1.53,983.77,32.78
3508639,-0.12,0.01,0.98,2.14,3.6,1.46,983.79,32.78
3508677,-0.13,0.01,0.98,2.08,3.78,1.59,983.8,32.79
3508716,-0.13,0.01,0.98,2.14,3.78,1.4,983.74,32.79
3508754,-0.13,0.01,0.97,1.95,3.85,1.46,983.72,32.77
3508792,-0.12,0.01,0.98,1.95,3.78,1.34,983.78,32.79
3508830,-0.12,0.02,0.99,2.01,3.78,1.46,983.79,32.79
3508868,-0.12,0.01,0.99,2.26,3.66,1.65,983.79,32.8
3508906,-0.12,0.01,0.98,2.01,3.85,1.46,983.76,32.8
3508944,-0.13,0.01,0.98,2.08,3.72,1.34,983.75,32.78
3508994,-0.12,0.01,0.98,2.08,3.78,1.46,983.78,32.79
3509032,-0.12,0.01,0.98,2.08,3.78,1.59,983.76,32.79
3509070,-0.12,0.01,0.98,2.08,3.66,1.59,983.82,32.78
3509108,-0.12,0.01,0.98,2.14,3.66,1.53,983.84,32.79
3509147,-0.12,0.01,0.99,2.01,3.66,1.53,983.75,32.78
3509185,-0.12,0.01,0.98,1.95,3.54,1.53,983.78,32.78
3509223,-0.12,0.01,0.98,2.08,3.66,1.65,983.74,32.78
3509261,-0.12,0.02,0.99,2.01,3.6,1.59,983.79,32.78
3509299,-0.12,0.02,0.99,2.01,3.78,1.59,983.85,32.79
3509337,-0.12,0.01,0.98,2.08,3.54,1.59,983.8,32.79
3509387,-0.12,0.01,0.98,1.95,3.66,1.53,983.81,32.77
3509425,-0.12,0.01,0.98,2.01,3.66,1.59,983.78,32.78
3509463,-0.12,0.01,0.98,2.01,3.85,1.46,983.8,32.77
3509502,-0.12,0.01,0.99,2.08,3.72,1.46,983.75,32.78
3509540,-0.12,0.01,0.98,2.14,3.72,1.59,983.79,32.78
3509578,-0.12,0.02,0.98,2.08,3.66,1.59,983.8,32.79
3509616,-0.12,0.03,0.99,2.2,3.72,1.59,983.81,32.78
3509654,-0.12,0.01,0.98,2.14,3.85,1.59,983.83,32.8
3509692,-0.12,0.01,0.98,2.01,4.09,1.59,983.78,32.78
3509730,-0.12,0.01,0.98,2.2,3.72,1.53,983.78,32.78
3509780,-0.12,0.01,0.99,2.14,3.78,1.59,983.8,32.77
3509818,-0.12,0.01,0.98,2.14,3.72,1.65,983.78,32.79
3509857,-0.12,0.01,0.99,2.14,3.6,1.59,983.79,32.78
3509895,-0.12,0.02,0.99,2.14,3.6,1.46,983.77,32.78
3509933,-0.12,0.01,0.98,2.2,3.6,1.4,983.76,32.77
3509971,-0.12,0.01,0.98,2.08,3.6,1.59,983.76,32.77
3510009,-0.12,0.01,0.98,1.89,3.66,1.4,983.82,32.8
3510047,-0.12,0.01,0.98,1.95,3.85,1.65,983.73,32.79
3510085,-0.12,0.02,0.98,2.01,3.54,1.59,983.8,32.79
3510123,-0.12,0.02,0.98,1.89,3.66,1.53,983.78,32.79
3510199,-0.12,0.01,0.98,2.08,3.85,1.59,983.77,32.76
3510237,-0.12,0.01,0.98,2.01,3.66,1.71,983.79,32.78
3510275,-0.12,0.01,0.99,2.2,3.78,1.53,983.78,32.77
3510365,-0.12,0.01,0.98,2.14,3.48,1.65,983.72,32.75
3510403,-0.12,0.01,0.98,2.01,3.72,1.53,983.74,32.76
3510441,-0.12,0.01,0.99,2.08,3.54,1.53,983.77,32.78
3510479,-0.12,0.01,0.99,2.01,3.54,1.59,983.79,32.76
3510517,-0.12,0.01,0.98,2.14,3.6,1.46,983.84,32.76
3510555,-0.12,0.02,0.98,2.08,3.72,1.53,983.8,32.77
3510593,-0.12,0.02,0.99,2.08,3.54,1.53,983.83,32.79
3510643,-0.12,0.01,0.98,2.08,3.72,1.46,983.78,32.76
3510681,-0.12,0.01,0.98,2.01,3.66,1.65,983.76,32.78
3510720,-0.12,0.01,0.99,1.89,3.72,1.59,983.79,32.78
3510758,-0.12,0.01,0.99,2.08,3.6,1.46,983.74,32.78
3510796,-0.13,0.0,0.98,1.83,3.66,1.53,983.78,32.78
3510834,-0.07,0.05,1.02,1.04,4.33,1.4,983.78,32.79
3510872,-0.08,-0.02,0.95,2.26,3.78,1.4,983.82,32.8
3510910,-0.07,0.01,1.0,2.44,4.03,1.65,983.74,32.79
3510948,-0.08,0.01,0.99,1.89,4.46,1.53,983.77,32.78
3510998,-0.14,0.01,1.0,1.83,3.85,1.46,983.81,32.78
3511036,-0.12,0.01,0.98,1.89,3.48,1.53,983.81,32.79
3511074,-0.13,0.02,0.97,1.83,3.85,1.53,983.74,32.78
3511112,-0.13,0.02,0.99,2.01,3.6,1.46,983.78,32.78
3511150,-0.11,0.01,0.99,1.95,3.72,1.53,983.75,32.78
3511188,-0.12,0.02,0.99,2.01,3.72,1.46,983.79,32.8
3511226,-0.12,0.01,0.97,2.01,3.66,1.34,983.77,32.8
3511265,-0.12,0.02,0.98,1.89,3.6,1.4,983.76,32.79
3511303,-0.12,0.02,0.99,1.95,3.66,1.46,983.77,32.78
3511341,-0.13,0.01,0.98,2.08,3.54,1.46,983.78,32.79
3511391,-0.12,0.02,0.98,1.95,3.72,1.4,983.76,32.79
3511429,-0.12,0.01,0.98,1.95,3.54,1.53,983.8,32.79
3511467,-0.12,0.01,0.98,2.01,3.91,1.65,983.81,32.79
3511505,-0.12,0.01,0.98,1.95,3.66,1.65,983.76,32.78
3511543,-0.12,0.01,0.99,2.08,3.6,1.46,983.75,32.78
3511581,-0.12,0.01,0.99,2.08,3.66,1.4,983.77,32.78
3511619,-0.12,0.01,0.98,2.14,3.6,1.46,983.84,32.8
3511658,-0.12,0.02,0.98,2.01,3.66,1.4,983.78,32.78
3511696,-0.12,0.01,0.98,2.01,3.66,1.34,983.75,32.79
3511734,-0.12,0.01,0.99,2.14,3.54,1.34,983.79,32.8
3511784,-0.12,0.01,0.98,2.01,3.72,1.46,983.76,32.78
3511822,-0.12,0.01,0.98,2.14,3.6,1.53,983.79,32.8
3511860,-0.12,0.01,0.98,2.08,3.66,1.53,983.78,32.79
3511898,-0.12,0.02,0.99,2.08,3.72,1.59,983.78,32.78
3511936,-0.12,0.01,0.98,1.89,3.6,1.46,983.71,32.79
3511974,-0.12,0.01,0.98,2.01,3.72,1.53,983.82,32.78
3512012,-0.12,0.01,0.98,2.08,3.6,1.53,983.83,32.79
3512050,-0.12,0.01,0.99,2.14,3.66,1.46,983.78,32.78
3512089,-0.12,0.01,0.98,2.08,3.42,1.4,983.75,32.8
3512127,-0.12,0.01,0.98,2.2,3.54,1.46,983.74,32.78
3512177,-0.12,0.01,0.98,2.08,3.6,1.53,983.79,32.78
3512215,-0.12,0.01,0.98,2.01,3.72,1.59,983.77,32.79
3512253,-0.12,0.01,0.98,2.01,3.72,1.46,983.74,32.79
3512291,-0.12,0.01,0.99,2.01,3.85,1.53,983.81,32.8
3512329,-0.12,0.01,0.98,2.08,3.72,1.53,983.74,32.8
3512367,-0.12,0.01,0.99,2.2,3.78,1.53,983.81,32.8
3512405,-0.12,0.01,0.98,2.01,3.85,1.46,983.76,32.79
3512443,-0.12,0.01,0.99,2.14,3.85,1.46,983.79,32.78
3512481,-0.12,0.01,0.98,2.08,3.72,1.46,983.75,32.79
3512520,-0.12,0.01,0.98,1.95,3.6,1.46,983.8,32.8
3512569,-0.12,0.02,0.99,2.14,3.72,1.4,983.73,32.78
3512607,-0.12,0.01,0.98,1.95,3.6,1.65,983.8,32.79
3512646,-0.12,0.01,0.98,2.01,3.66,1.46,983.77,32.79
3512684,-0.13,0.01,0.98,1.89,3.85,1.53,983.75,32.79
3512722,-0.13,0.01,0.98,2.08,3.85,1.46,983.75,32.79
3512760,-0.12,0.01,0.98,2.08,3.66,1.53,983.8,32.8
3512798,-0.12,0.01,0.99,2.08,3.66,1.59,983.81,32.79
3512836,-0.12,0.01,0.98,2.14,3.66,1.46,983.75,32.8
3512874,-0.12,0.01,0.98,2.01,3.72,1.53,983.75,32.79
3512912,-0.12,0.01,0.98,2.08,3.91,1.53,983.78,32.78
3512962,-0.12,0.01,0.99,2.01,3.72,1.4,983.77,32.77
3513000,-0.12,0.01,0.98,2.08,3.85,1.46,983.77,32.78
3513038,-0.12,0.01,0.98,2.2,3.85,1.46,983.79,32.78
3513076,-0.12,0.02,0.98,2.01,3.78,1.46,983.78,32.78
3513115,-0.12,0.01,0.98,2.14,3.66,1.53,983.82,32.8
3513153,-0.12,0.01,0.98,2.08,3.54,1.46,983.77,32.78
3513191,-0.12,0.01,0.98,1.95,3.54,1.65,983.8,32.8
3513229,-0.12,0.01,0.98,2.01,3.6,1.53,983.79,32.79
3513267,-0.12,0.01,0.98,2.2,3.72,1.4,983.77,32.79
3513343,-0.12,0.01,0.99,2.01,3.85,1.53,983.69,32.76
3513381,-0.13,0.01,0.98,2.14,3.66,1.53,983.78,32.77
3513419,-0.12,0.01,0.99,2.08,3.66,1.46,983.73,32.78
3513508,-0.12,0.01,0.98,2.2,3.78,1.59,983.8,32.75
3513547,-0.12,0.02,0.98,2.01,3.85,1.53,983.8,32.75
3513585,-0.12,0.02,0.98,2.01,3.6,1.65,983.81,32.77
3513623,-0.13,0.02,0.99,2.01,3.66,1.46,983.78,32.77
3513661,-0.12,0.02,0.98,2.08,3.66,1.46,983.81,32.77
3513699,-0.12,0.01,0.98,1.95,3.78,1.65,983.76,32.78
3513737,-0.12,0.0,0.99,2.01,3.48,1.59,983.83,32.78
3513787,-0.12,0.01,0.99,2.26,3.6,1.77,983.77,32.76
3513825,-0.12,0.01,0.98,2.01,3.66,1.46,983.8,32.78
3513863,-0.12,0.02,0.98,2.08,3.66,1.65,983.77,32.77
3513901,-0.12,0.02,0.99,2.01,3.72,1.46,983.78,32.78
3513939,-0.12,0.02,0.98,1.83,3.91,1.34,983.75,32.77
3513977,-0.12,0.01,0.99,2.14,3.6,1.4,983.74,32.77
3514016,-0.12,0.01,0.99,2.08,3.42,1.53,983.75,32.79
3514054,-0.12,0.01,0.98,2.01,3.85,1.46,983.83,32.79
3514092,-0.12,0.01,0.98,1.95,3.72,1.46,983.79,32.78
3514130,-0.12,0.01,0.98,2.2,3.85,1.65,983.79,32.8
3514180,-0.12,0.02,0.98,2.14,3.78,1.59,983.79,32.77
3514218,-0.12,0.02,0.98,1.95,3.66,1.65,983.81,32.78
3514256,-0.12,0.02,0.98,2.08,3.6,1.59,983.74,32.78
3514294,-0.12,0.02,0.99,1.95,3.54,1.53,983.76,32.78
3514332,-0.11,0.02,0.98,1.89,3.66,1.46,983.77,32.78
3514370,-0.12,0.02,0.99,2.08,3.6,1.46,983.77,32.78
3514408,-0.12,0.01,0.98,2.14,3.85,1.59,983.73,32.78
3514447,-0.12,0.02,0.99,2.2,3.72,1.59,983.75,32.79
3514485,-0.13,0.0,0.98,2.14,3.85,1.53,983.73,32.79
3514523,-0.13,-0.01,0.97,2.14,3.72,1.65,983.8,32.78
3514572,-0.12,-0.01,0.97,2.08,3.85,1.53,983.81,32.78
3514611,-0.11,-0.01,0.98,1.89,3.54,1.53,983.78,32.8
3514649,-0.11,-0.0,0.99,1.71,3.66,1.59,983.77,32.8
3514687,-0.11,0.01,0.99,1.77,3.66,1.34,983.8,32.8
3514725,-0.11,0.03,0.99,1.83,3.72,1.34,983.83,32.8
3514763,-0.12,0.02,0.99,1.89,3.78,1.34,983.75,32.79
3514801,-0.12,0.01,0.97,1.95,3.78,1.28,983.72,32.79
3514839,-0.15,0.05,1.0,2.38,2.75,1.16,983.79,32.78
3514877,-0.12,0.02,0.96,1.59,4.09,1.4,983.81,32.8
3514915,-0.13,0.03,0.96,2.32,3.85,1.4,983.85,32.81
3514965,-0.13,0.04,1.01,2.5,3.36,1.34,983.79,32.78
3515003,-0.13,0.03,0.98,1.83,4.09,1.53,983.75,32.79
3515041,-0.12,0.02,0.99,2.2,3.05,1.59,983.79,32.78
3515079,-0.12,0.01,0.97,1.83,3.85,1.71,983.85,32.8
3515118,-0.13,0.01,0.99,2.2,3.72,1.71,983.76,32.8
3515156,-0.13,0.0,0.99,1.89,3.91,1.65,983.75,32.79
3515194,-0.13,0.01,0.99,2.26,3.91,1.65,983.79,32.79
3515232,-0.12,0.01,0.97,1.83,3.97,1.4,983.76,32.79
3515270,-0.12,0.0,0.98,2.08,3.72,1.59,983.78,32.8
3515308,-0.13,0.0,0.97,2.08,3.85,1.4,983.8,32.81
3515358,-0.12,0.0,0.99,2.01,3.97,1.59,983.76,32.78
3515396,-0.12,0.01,0.99,2.08,3.66,1.46,983.76,32.79
3515434,-0.12,0.02,0.98,1.95,3.91,1.59,983.82,32.79
3515472,-0.11,0.02,1.0,2.26,3.48,1.4,983.8,32.8
3515510,-0.12,0.02,0.99,1.95,3.78,1.46,983.81,32.81
3515549,-0.12,0.02,0.99,2.08,3.48,1.28,983.84,32.81
3515587,-0.11,0.01,0.98,2.01,3.48,1.4,983.78,32.8
3515625,-0.12,0.0,0.99,2.26,3.48,1.53,983.8,32.78
3515663,-0.1,0.0,0.99,2.08,3.23,1.53,983.8,32.79
3515713,-0.12,0.01,0.97,1.77,3.48,1.65,983.76,32.78
3515751,-0.14,0.02,0.98,2.01,3.3,1.59,983.79,32.79
3515789,-0.14,0.02,0.97,2.08,3.42,1.4,983.81,32.8
3515827,-0.12,0.01,0.98,2.08,3.48,1.65,983.81,32.79
3515865,-0.12,-0.01,0.99,2.08,3.42,1.46,983.79,32.79
3515903,-0.13,0.0,1.0,1.89,3.6,1.34,983.82,32.79
3515941,-0.13,-0.01,0.97,1.83,4.15,1.46,983.75,32.8
3515979,-0.14,-0.01,0.99,2.01,3.6,1.65,983.83,32.79
3516017,-0.12,0.01,0.98,1.95,3.91,1.53,983.79,32.78
3516056,-0.11,0.01,0.98,1.95,3.72,1.46,983.79,32.8
3516105,-0.14,-0.0,0.96,1.95,3.85,1.28,983.79,32.78
3516143,-0.13,0.05,0.99,1.89,3.36,1.22,983.76,32.79
3516182,-0.13,0.04,0.98,1.77,3.6,1.53,983.79,32.79
3516220,-0.12,0.05,0.98,2.14,3.91,1.34,983.75,32.79
3516258,-0.1,0.05,0.99,2.2,3.78,1.34,983.8,32.79
3516296,-0.11,0.03,1.01,2.01,3.23,1.59,983.82,32.8
3516334,-0.11,-0.0,1.02,2.14,3.11,1.59,983.76,32.79
3516372,-0.11,-0.03,0.98,1.83,3.6,1.77,983.76,32.8
3516410,-0.14,0.0,0.96,2.32,3.54,1.59,983.76,32.8
3516448,-0.14,-0.01,0.96,1.77,3.36,1.71,983.74,32.8
3516524,-0.12,0.04,0.96,1.77,3.11,1.65,983.82,32.78
3516562,-0.12,0.06,0.97,1.83,2.62,1.46,983.77,32.78
3516600,-0.14,0.03,1.04,2.08,2.32,1.4,983.77,32.77
3516690,-0.13,-0.03,1.02,2.26,2.81,1.46,983.78,32.76
3516728,-0.12,-0.03,0.96,1.59,3.78,1.4,983.81,32.76
3516766,-0.13,-0.01,0.97,2.87,4.39,1.53,983.75,32.78
3516804,-0.15,0.02,0.98,2.38,4.64,1.46,983.78,32.79
3516842,-0.13,0.03,0.99,2.38,3.72,1.53,983.78,32.78
3516880,-0.1,0.03,1.0,2.14,3.85,1.4,983.79,32.78
3516919,-0.11,0.02,0.96,2.01,4.46,1.4,983.76,32.77
3516968,-0.12,0.03,0.98,2.14,3.3,1.34,983.81,32.79
3517006,-0.08,0.02,0.99,1.53,4.03,1.4,983.79,32.78
3517045,-0.12,0.02,1.0,2.01,3.66,1.22,983.79,32.79
3517083,-0.12,0.01,0.98,2.01,3.72,1.4,983.77,32.8
3517121,-0.13,-0.0,0.99,2.32,2.99,1.46,983.79,32.79
3517159,-0.11,-0.01,1.0,2.08,2.81,1.46,983.77,32.78
3517197,-0.13,-0.0,0.97,1.95,3.42,1.46,983.79,32.8
3517235,-0.14,0.01,0.98,2.2,3.11,1.77,983.74,32.79
3517273,-0.14,0.02,0.98,2.08,3.66,1.59,983.75,32.79
3517311,-0.12,0.01,0.98,2.08,2.99,1.53,983.73,32.79
3517361,-0.12,0.03,0.98,2.14,3.42,1.53,983.76,32.78
3517399,-0.11,0.03,0.98,2.14,3.3,1.53,983.79,32.78
3517437,-0.12,0.02,0.98,1.89,3.97,1.53,983.8,32.8
3517476,-0.13,0.01,0.98,2.2,4.15,1.4,983.77,32.79
3517514,-0.13,0.01,0.98,2.2,3.97,1.53,983.8,32.81
3517552,-0.14,0.0,0.98,2.14,4.15,1.46,983.74,32.79
3517590,-0.13,0.0,0.98,2.01,3.85,1.59,983.84,32.8
3517628,-0.12,0.01,0.98,1.95,4.21,1.53,983.76,32.8
3517666,-0.12,0.01,0.99,2.08,4.03,1.53,983.78,32.79
3517716,-0.09,0.02,0.99,2.26,4.27,1.34,983.82,32.8
3517754,-0.11,0.02,0.99,2.26,3.42,1.53,983.73,32.78
3517792,-0.12,0.02,0.97,2.2,3.48,1.53,983.76,32.79
3517830,-0.11,0.01,0.98,2.2,2.99,1.53,983.75,32.8
3517868,-0.12,0.02,0.99,2.01,2.87,1.46,983.79,32.81
3517906,-0.12,0.02,0.99,2.01,2.81,1.71,983.8,32.81
3517944,-0.12,0.02,0.99,2.08,3.36,1.34,983.8,32.81
3517983,-0.13,0.02,1.0,2.26,3.11,1.46,983.77,32.8
3518021,-0.14,0.01,0.97,2.08,3.66,1.46,983.81,32.8
3518059,-0.12,-0.0,0.99,2.26,3.17,1.53,983.78,32.8
3518109,-0.12,0.01,0.98,1.89,3.72,1.4,983.74,32.8
3518147,-0.13,0.01,0.97,2.08,3.97,1.53,983.81,32.8
3518185,-0.13,0.01,0.98,2.2,3.72,1.4,983.83,32.8
3518223,-0.12,0.01,0.98,1.83,4.33,1.46,983.82,32.8
3518261,-0.12,0.02,0.99,1.89,3.72,1.53,983.77,32.79
3518299,-0.12,0.01,0.98,1.89,4.15,1.53,983.83,32.8
3518337,-0.12,0.01,0.99,2.01,3.91,1.59,983.81,32.8
3518375,-0.13,0.01,0.99,2.08,4.09,1.59,983.73,32.8
3518413,-0.12,0.01,0.99,2.2,3.66,1.53,983.77,32.81
3518451,-0.11,0.01,0.99,2.14,3.48,1.65,983.75,32.78
3518501,-0.11,0.02,0.99,2.08,3.48,1.59,983.74,32.78
3518539,-0.11,0.02,0.98,2.01,3.42,1.65,983.8,32.79
3518577,-0.12,0.01,0.98,1.95,3.36,1.59,983.74,32.79
3518615,-0.12,0.01,0.99,2.08,3.3,1.59,983.75,32.8
3518654,-0.13,0.01,0.98,2.01,3.42,1.59,983.78,32.81
3518692,-0.13,0.01,0.99,1.95,3.3,1.53,983.85,32.8
3518730,-0.13,0.01,0.97,2.01,3.66,1.46,983.74,32.8
3518768,-0.12,0.0,1.0,2.14,3.3,1.46,983.81,32.81
3518806,-0.13,0.01,0.97,2.08,4.03,1.59,983.8,32.8
3518844,-0.13,0.01,0.99,2.26,3.66,1.4,983.76,32.8
3518894,-0.13,0.01,0.97,1.71,4.03,1.4,983.77,32.8
3518932,-0.12,0.01,0.98,2.08,3.85,1.34,983.78,32.8
3518970,-0.12,0.01,0.99,1.95,3.85,1.59,983.8,32.8
3519008,-0.13,0.01,0.99,1.83,3.91,1.4,983.75,32.8
3519046,-0.13,0.01,0.99,1.95,4.03,1.46,983.81,32.8
3519084,-0.13,0.01,0.98,1.95,3.97,1.34,983.77,32.8
3519123,-0.13,0.02,0.99,2.01,4.09,1.53,983.82,32.8
3519161,-0.11,0.01,0.99,2.2,3.72,1.46,983.8,32.81
3519199,-0.11,0.01,0.99,2.14,3.91,1.53,983.77,32.8
3519237,-0.11,0.03,0.98,2.01,3.78,1.71,983.74,32.8
3519287,-0.11,0.01,0.98,2.01,3.72,1.59,983.78,32.79
3519325,-0.11,0.0,0.98,1.83,3.42,1.46,983.78,32.79
3519363,-0.12,0.01,1.0,1.95,3.42,1.46,983.8,32.8
3519401,-0.14,0.02,0.98,2.01,3.42,1.59,983.83,32.79
3519439,-0.14,0.02,0.99,2.2,3.23,1.59,983.73,32.8
3519477,-0.12,0.01,1.0,2.01,3.11,1.46,983.8,32.8
3519515,-0.12,0.01,0.99,1.95,3.66,1.46,983.8,32.81
3519553,-0.12,0.01,0.99,2.08,3.17,1.46,983.73,32.8
3519591,-0.12,0.01,0.98,2.08,3.72,1.53,983.79,32.8
3519629,-0.11,0.02,0.98,1.95,3.54,1.46,983.8,32.81
3519705,-0.13,0.01,0.98,1.89,3.85,1.46,983.8,32.76
3519743,-0.13,0.01,0.98,2.01,3.97,1.46,983.72,32.77
3519781,-0.13,0.01,0.98,2.01,3.97,1.34,983.75,32.79
3519871,-0.12,0.02,0.99,2.08,3.97,1.46,983.78,32.78
3519909,-0.12,0.01,0.98,2.08,3.85,1.46,983.82,32.77
3519947,-0.11,0.02,0.99,2.08,3.78,1.46,983.76,32.78
3519985,-0.11,0.01,0.99,2.26,3.72,1.4,983.73,32.78
3520023,-0.12,0.01,0.98,2.14,3.6,1.4,983.77,32.78
3520061,-0.12,0.01,0.98,2.01,3.54,1.59,983.74,32.78
3520099,-0.12,0.01,0.98,1.95,3.42,1.65,983.8,32.8
3520149,-0.12,0.01,0.99,1.95,3.54,1.34,983.76,32.79
3520187,-0.12,0.01,0.98,2.14,3.54,1.59,983.8,32.79
3520225,-0.13,0.01,0.99,2.01,3.3,1.53,983.82,32.8
3520263,-0.13,0.01,0.98,1.95,3.66,1.46,983.78,32.8
3520301,-0.12,0.01,0.98,1.83,3.66,1.59,983.76,32.8
3520339,-0.12,0.01,0.98,2.2,3.78,1.46,983.82,32.8
3520378,-0.12,0.01,0.99,2.08,3.78,1.53,983.78,32.8
3520416,-0.12,0.01,0.99,2.01,3.97,1.4,983.75,32.8
3520454,-0.12,0.01,0.98,1.95,4.03,1.46,983.73,32.79
3520504,-0.13,0.02,0.97,2.08,3.97,1.4,983.77,32.77
3520542,-0.12,0.02,0.99,2.08,3.66,1.34,983.8,32.8
3520580,-0.12,0.01,1.0,2.08,3.85,1.46,983.8,32.8
3520618,-0.12,0.01,0.99,1.95,3.78,1.53,983.79,32.8
3520656,-0.12,0.01,0.99,2.14,3.54,1.59,983.77,32.8
3520694,-0.13,0.02,0.98,2.01,3.78,1.53,983.76,32.8
3520732,-0.12,0.01,0.99,2.14,3.54,1.46,983.78,32.79
3520770,-0.11,0.01,0.98,2.08,3.48,1.53,983.76,32.8
3520809,-0.15,0.02,0.98,2.08,3.42,1.53,983.74,32.8
3520847,-0.11,0.0,0.99,1.95,3.48,1.46,983.76,32.79
3520896,-0.12,0.02,0.99,2.08,3.6,1.46,983.76,32.8
3520935,-0.13,0.01,0.98,1.89,3.6,1.46,983.79,32.81
3520973,-0.13,0.01,0.99,2.08,3.42,1.46,983.77,32.8
3521011,-0.12,0.01,0.98,2.08,3.72,1.46,983.81,32.8
3521049,-0.13,0.01,0.98,1.89,3.6,1.53,983.75,32.8
3521087,-0.12,0.01,0.99,1.95,3.72,1.53,983.78,32.8
3521125,-0.13,0.01,0.98,2.01,3.85,1.65,983.76,32.81
3521163,-0.13,0.01,0.99,1.95,3.6,1.53,983.76,32.81
3521201,-0.12,0.01,0.98,2.08,4.03,1.53,983.81,32.8
3521240,-0.12,0.01,0.98,2.01,3.72,1.46,983.76,32.81
3521289,-0.12,0.01,0.99,2.01,3.78,1.65,983.76,32.8
3521327,-0.11,0.01,0.98,2.01,3.91,1.53,983.81,32.79
3521366,-0.12,0.01,0.99,1.95,3.66,1.53,983.78,32.8
3521404,-0.12,0.01,0.99,2.01,3.6,1.46,983.78,32.79
3521442,-0.12,0.01,0.99,2.14,3.48,1.53,983.74,32.8
3521480,-0.12,0.01,0.98,2.01,3.66,1.46,983.79,32.81
3521518,-0.12,0.01,0.98,1.95,3.48,1.46,983.79,32.81
3521556,-0.12,0.01,0.99,1.89,3.48,1.46,983.79,32.8
3521594,-0.12,0.0,0.98,1.89,3.6,1.46,983.73,32.81
3521632,-0.12,0.01,0.99,2.08,3.42,1.46,983.81,32.81
3521682,-0.12,0.01,0.98,1.95,3.54,1.59,983.73,32.78
3521720,-0.12,0.01,0.99,2.14,3.72,1.53,983.75,32.78
3521758,-0.12,0.01,0.98,2.01,3.66,1.46,983.78,32.81
3521796,-0.12,0.02,0.99,1.77,4.09,1.59,983.77,32.8
3521834,-0.12,0.02,0.99,2.08,3.6,1.59,983.77,32.81
3521872,-0.13,0.02,0.99,1.95,3.85,1.65,983.73,32.82
3521910,-0.13,0.02,0.97,1.83,3.85,1.53,983.79,32.81
3521949,-0.12,0.02,0.98,1.77,3.6,1.4,983.75,32.81
3521987,-0.12,0.01,0.98,1.83,3.91,1.46,983.77,32.79
3522025,-0.12,0.01,0.99,1.83,3.66,1.65,983.73,32.8
3522075,-0.13,0.01,0.99,1.95,3.48,1.65,983.75,32.79
3522113,-0.12,0.01,0.98,1.95,3.42,1.53,983.76,32.78
3522151,-0.12,0.02,0.99,2.08,3.48,1.59,983.75,32.8
3522189,-0.11,0.01,0.98,2.08,3.6,1.4,983.76,32.81
3522227,-0.12,0.02,0.98,1.95,3.54,1.59,983.74,32.8
3522265,-0.13,0.02,0.97,1.95,3.66,1.46,983.75,32.79
3522303,-0.12,0.01,0.98,1.95,3.48,1.59,983.8,32.81
3522341,-0.12,0.01,0.98,1.95,3.72,1.65,983.82,32.8
3522379,-0.12,0.01,0.99,1.95,3.72,1.4,983.75,32.81
3522418,-0.13,0.01,0.98,2.08,3.91,1.34,983.74,32.79
3522467,-0.13,0.01,0.98,2.01,3.91,1.65,983.8,32.79
3522505,-0.12,0.01,0.98,2.14,3.72,1.53,983.78,32.8
3522544,-0.12,0.02,0.99,1.89,3.66,1.46,983.71,32.79
3522582,-0.11,0.01,0.99,1.89,3.6,1.59,983.72,32.79
3522620,-0.11,0.01,0.99,1.95,3.72,1.34,983.75,32.81
3522658,-0.15,0.0,0.97,2.38,3.85,1.53,983.78,32.8
3522696,-0.11,0.01,0.99,2.26,3.36,1.4,983.79,32.82
3522734,-0.11,0.01,0.99,1.83,3.6,1.28,983.82,32.81
3522772,-0.12,0.01,0.98,2.32,3.54,1.4,983.77,32.81
3522848,-0.13,0.01,0.98,2.26,3.54,1.4,983.81,32.78
3522886,-0.11,0.01,0.98,2.14,3.42,1.34,983.78,32.78
3522924,-0.13,0.01,0.98,1.95,3.54,1.46,983.77,32.79
3523014,-0.12,0.01,0.98,2.01,3.54,1.59,983.77,32.75
3523052,-0.12,0.01,0.99,2.01,3.54,1.59,983.72,32.78
3523090,-0.13,0.01,0.98,2.08,3.72,1.53,983.82,32.79
3523128,-0.12,0.01,0.98,2.14,3.54,1.4,983.77,32.79
3523166,-0.12,0.02,0.99,2.2,3.3,1.53,983.74,32.79
3523204,-0.13,0.02,0.98,2.08,3.6,1.53,983.79,32.8
3523242,-0.12,0.02,0.99,2.08,3.6,1.34,983.75,32.79
3523292,-0.1,0.01,0.99,2.08,3.72,1.65,983.77,32.78
3523330,-0.12,0.01,0.98,2.08,3.66,1.53,983.78,32.8
3523368,-0.14,0.01,0.97,2.08,3.66,1.53,983.76,32.78
3523406,-0.12,0.01,0.99,2.08,3.36,1.53,983.79,32.8
3523445,-0.12,0.01,1.0,2.01,3.6,1.53,983.75,32.79
3523483,-0.13,0.01,0.98,2.08,3.66,1.53,983.78,32.81
3523521,-0.13,0.01,0.98,2.08,3.78,1.53,983.78,32.81
3523559,-0.12,0.01,0.98,2.2,3.66,1.53,983.78,32.81
3523597,-0.12,0.02,0.99,1.95,3.48,1.53,983.74,32.8
3523635,-0.11,0.02,0.98,1.95,3.6,1.46,983.77,32.8
3523685,-0.12,0.01,0.99,2.08,3.42,1.53,983.85,32.81
3523723,-0.12,0.01,0.99,2.14,3.6,1.28,983.74,32.8
3523761,-0.13,0.01,0.98,2.08,3.48,1.46,983.8,32.81
3523799,-0.13,0.01,0.99,2.14,3.6,1.46,983.79,32.8
3523837,-0.13,0.01,0.98,2.26,3.6,1.53,983.77,32.81
3523875,-0.12,0.01,0.98,2.26,3.48,1.4,983.82,32.82
3523913,-0.12,0.01,0.98,2.14,3.54,1.46,983.81,32.81
3523952,-0.12,0.01,0.99,2.01,3.48,1.59,983.75,32.81
3523990,-0.12,0.01,0.98,2.08,3.66,1.53,983.78,32.82
3524028,-0.12,0.01,0.98,2.01,3.48,1.46,983.76,32.81
3524078,-0.12,0.01,0.99,1.95,3.66,1.4,983.8,32.81
3524116,-0.13,0.01,0.98,1.95,3.85,1.28,983.76,32.8
3524154,-0.13,0.01,0.98,1.95,3.72,1.4,983.72,32.8
3524192,-0.12,0.01,0.98,2.01,3.85,1.46,983.81,32.81
3524230,-0.13,0.01,0.99,2.08,3.6,1.46,983.77,32.82
3524268,-0.12,0.01,0.98,2.01,3.78,1.46,983.73,32.81
3524306,-0.12,0.02,0.98,2.01,3.78,1.53,983.79,32.81
3524344,-0.12,0.01,0.98,2.08,3.6,1.46,983.76,32.81
3524382,-0.12,0.01,0.98,1.89,3.6,1.59,983.8,32.8
3524421,-0.12,0.01,0.99,2.01,3.72,1.53,983.8,32.81
3524470,-0.12,0.01,0.98,1.95,3.78,1.53,983.8,32.8
3524508,-0.12,0.01,0.99,1.89,3.78,1.46,983.83,32.81
3524547,-0.12,0.01,0.99,2.01,3.85,1.59,983.88,32.82
3524585,-0.13,0.0,0.98,1.83,3.48,1.46,983.79,32.81
3524623,-0.13,-0.0,0.98,1.77,3.66,1.46,983.72,32.81
3524661,-0.12,0.01,0.99,2.08,3.72,1.46,983.77,32.81
3524699,-0.11,0.02,0.99,1.83,3.78,1.53,983.76,32.81
3524737,-0.12,0.02,0.97,1.89,3.97,1.28,983.78,32.82
3524775,-0.12,0.03,0.98,2.01,3.66,1.34,983.75,32.82
3524813,-0.12,0.02,1.0,1.89,3.6,1.16,983.81,32.82
3524863,-0.12,0.02,0.99,1.89,3.85,1.4,983.75,32.82
3524901,-0.12,0.03,0.98,2.14,3.54,1.46,983.7,32.8
3524939,-0.13,0.02,0.99,2.2,3.54,1.34,983.76,32.8
3524977,-0.12,0.01,1.0,2.2,3.91,1.53,983.79,32.81
3525016,-0.13,0.01,0.99,2.2,3.66,1.4,983.77,32.82
3525054,-0.12,0.02,0.97,2.14,3.66,1.53,983.76,32.82
3525092,-0.11,0.02,0.98,2.2,3.48,1.4,983.8,32.82
3525130,-0.12,0.01,1.0,2.26,3.36,1.59,983.73,32.8
3525168,-0.13,0.0,0.98,1.89,3.91,1.71,983.75,32.82
3525206,-0.13,0.01,0.97,2.08,3.48,1.65,983.8,32.82
3525256,-0.12,0.01,0.97,1.83,3.6,1.65,983.82,32.81
3525294,-0.12,0.0,0.98,1.65,3.54,1.71,983.71,32.81
3525332,-0.12,-0.0,0.98,1.46,3.66,1.83,983.73,32.8
3525370,-0.12,0.01,0.99,1.4,3.72,1.83,983.75,32.81
3525408,-0.12,0.01,0.99,1.59,3.66,1.89,983.77,32.81
3525446,-0.12,0.01,1.0,1.83,3.6,1.83,983.74,32.81
3525484,-0.11,0.01,0.99,2.01,3.78,1.77,983.73,32.81
3525522,-0.12,0.01,0.99,2.38,3.54,1.77,983.8,32.81
3525561,-0.12,0.02,0.99,2.5,3.54,1.71,983.79,32.82
3525610,-0.12,0.03,0.98,2.5,3.42,1.59,983.83,32.81
3525649,-0.12,0.02,0.98,2.26,3.54,1.53,983.77,32.81
3525687,-0.12,0.02,0.98,2.08,3.54,1.4,983.76,32.8
3525725,-0.12,0.01,0.97,1.83,3.48,1.1,983.79,32.82
3525763,-0.11,0.01,0.98,1.65,3.42,1.34,983.82,32.83
3525801,-0.12,0.01,0.98,1.65,3.48,1.16,983.72,32.81
3525839,-0.12,0.01,0.99,1.77,3.42,1.1,983.79,32.82
3525877,-0.14,0.01,0.99,1.77,3.54,1.28,983.76,32.82
3525915,-0.13,0.01,0.99,2.01,3.72,1.16,983.77,32.81
3525953,-0.13,0.04,1.0,2.32,3.6,1.28,983.79,32.83
3526029,-0.13,0.03,0.99,2.62,3.85,1.53,983.74,32.78
3526067,-0.13,0.02,0.97,2.56,3.91,1.46,983.76,32.78
3526105,-0.12,0.01,0.97,2.26,3.48,1.65,983.74,32.8
3526269,-0.13,-0.01,0.99,1.59,3.72,1.53,983.74,32.74
3526307,-0.12,-0.01,1.0,1.83,3.66,1.59,983.76,32.76
3526346,-0.12,-0.0,0.99,1.95,3.54,1.46,983.79,32.77
3526384,-0.11,0.0,0.99,2.14,3.54,1.4,983.81,32.78
3526422,-0.11,0.01,0.98,2.26,3.6,1.46,983.77,32.78
3526460,-0.12,0.02,0.98,2.14,3.36,1.28,983.78,32.78
3526498,-0.12,0.03,0.98,2.08,3.3,1.16,983.81,32.79
3526548,-0.12,0.03,0.98,2.08,3.48,1.4,983.75,32.77
3526586,-0.12,0.03,0.98,1.89,3.66,1.28,983.78,32.79
3526624,-0.13,0.03,0.98,1.89,3.66,1.4,983.72,32.78
3526662,-0.13,0.02,0.99,1.77,3.48,1.34,983.79,32.8
3526700,-0.13,0.02,0.99,2.14,3.6,1.59,983.76,32.79
3526738,-0.13,0.02,0.99,2.14,3.72,1.59,983.77,32.81
3526777,-0.12,0.01,0.99,2.14,3.78,1.65,983.78,32.81
3526815,-0.12,0.01,0.99,2.26,3.66,1.59,983.78,32.79
3526853,-0.12,0.01,0.98,2.38,3.78,1.77,983.75,32.8
3526891,-0.12,0.01,0.98,2.14,3.85,1.53,983.77,32.79
3526941,-0.12,0.01,0.98,2.2,3.91,1.59,983.72,32.78
3526979,-0.12,0.01,0.98,2.01,4.03,1.65,983.7,32.79
3527017,-0.11,0.01,0.98,2.14,3.72,1.65,983.79,32.81
3527055,-0.12,0.01,0.98,1.83,3.85,1.53,983.78,32.8
3527093,-0.12,0.01,0.99,1.83,3.66,1.53,983.79,32.81
3527131,-0.12,0.01,0.99,1.89,3.54,1.46,983.78,32.81
3527169,-0.12,0.01,0.99,1.95,3.54,1.46,983.81,32.81
3527208,-0.12,0.01,0.99,2.14,3.6,1.34,983.77,32.81
3527246,-0.12,0.02,0.98,2.14,3.54,1.53,983.78,32.81
3527284,-0.12,0.02,0.98,2.2,3.6,1.4,983.75,32.8
3527333,-0.13,0.02,0.98,2.14,3.48,1.46,983.76,32.81
3527371,-0.13,0.02,0.98,1.95,3.6,1.46,983.77,32.81
3527410,-0.13,0.02,0.98,1.95,3.54,1.59,983.76,32.81
3527448,-0.12,0.01,0.98,2.08,3.72,1.65,983.79,32.81
3527486,-0.12,0.01,0.98,1.95,3.72,1.53,983.8,32.81
3527524,-0.13,0.01,0.98,2.01,3.85,1.59,983.79,32.81
3527562,-0.12,0.01,0.98,2.08,3.78,1.53,983.81,32.81
3527600,-0.12,0.01,0.99,2.2,3.78,1.59,983.78,32.81
3527638,-0.12,0.01,0.98,2.08,3.91,1.65,983.78,32.82
3527676,-0.12,0.01,0.98,2.01,3.97,1.53,983.81,32.81
3527726,-0.12,0.01,0.98,1.95,3.85,1.59,983.76,32.8
3527764,-0.12,0.01,0.98,2.08,3.72,1.46,983.75,32.8
3527802,-0.12,0.01,0.98,2.08,3.72,1.46,983.81,32.81
3527840,-0.12,0.01,0.98,1.95,3.6,1.59,983.82,32.82
3527878,-0.12,0.01,0.99,1.83,3.72,1.4,983.77,32.81
3527916,-0.12,0.02,0.99,2.08,3.6,1.4,983.83,32.81
3527954,-0.12,0.02,0.99,2.2,3.6,1.4,983.74,32.82
3527992,-0.12,0.01,0.98,2.08,3.6,1.53,983.8,32.82
3528030,-0.12,0.01,0.98,2.01,3.54,1.53,983.78,32.82
3528080,-0.12,0.01,0.98,2.2,3.54,1.59,983.78,32.81
3528118,-0.12,0.01,0.98,2.08,3.42,1.46,983.82,32.82
3528156,-0.13,0.01,0.98,2.01,3.66,1.71,983.74,32.8
3528194,-0.13,0.01,0.98,1.89,3.6,1.53,983.74,32.81
3528232,-0.12,0.01,0.98,2.08,3.72,1.53,983.8,32.81
3528270,-0.12,0.01,0.99,2.01,3.91,1.34,983.78,32.81
3528308,-0.12,0.01,0.98,2.08,3.72,1.46,983.84,32.81
3528346,-0.12,0.01,0.98,2.01,3.78,1.53,983.78,32.82
3528384,-0.12,0.02,0.98,1.95,3.66,1.46,983.75,32.82
3528422,-0.12,0.02,0.98,2.08,3.85,1.71,983.76,32.82
3528472,-0.12,0.02,0.98,2.01,3.66,1.53,983.77,32.81
3528510,-0.12,0.01,0.98,2.01,3.72,1.46,983.73,32.82
3528548,-0.12,0.01,0.99,2.14,3.66,1.53,983.79,32.82
3528586,-0.12,0.01,0.99,2.01,3.72,1.46,983.75,32.81
3528624,-0.12,0.01,0.99,2.08,3.72,1.59,983.83,32.82
3528662,-0.12,0.01,0.98,2.01,3.54,1.46,983.82,32.82
3528700,-0.12,0.01,0.98,2.14,3.72,1.59,983.77,32.83
3528738,-0.12,0.01,0.98,2.26,3.6,1.59,983.79,32.82
3528776,-0.12,0.01,0.98,2.01,3.6,1.46,983.76,32.82
3528814,-0.12,0.01,0.98,1.95,3.54,1.46,983.76,32.83
3528864,-0.12,0.01,0.98,1.89,3.6,1.59,983.74,32.81
3528902,-0.12,0.01,0.98,1.89,3.54,1.4,983.8,32.82
3528940,-0.12,0.01,0.98,2.08,3.78,1.53,983.77,32.82
3528978,-0.12,0.01,0.98,2.08,3.72,1.46,983.78,32.82
3529016,-0.12,0.01,0.98,2.01,3.66,1.46,983.78,32.82
3529054,-0.12,0.02,0.98,2.08,3.85,1.59,983.79,32.82
3529092,-0.12,0.02,0.98,2.08,3.78,1.46,983.79,32.81
3529130,-0.12,0.01,0.99,2.01,3.72,1.59,983.72,32.81
3529168,-0.12,0.01,0.98,2.01,3.66,1.4,983.76,32.82
3529207,-0.12,0.01,0.98,2.08,3.54,1.53,983.76,32.81
3529284,-0.12,0.01,0.98,2.14,3.66,1.53,983.74,32.78
3529322,-0.12,0.01,0.99,2.01,3.48,1.46,983.74,32.79
3529360,-0.12,0.01,0.99,2.2,3.48,1.46,983.79,32.81
3529449,-0.12,0.01,0.98,2.14,3.54,1.53,983.79,32.78
3529487,-0.12,0.01,0.98,2.2,3.6,1.53,983.76,32.79
3529525,-0.12,0.01,0.98,1.95,3.6,1.46,983.73,32.79
3529563,-0.12,0.01,0.98,2.01,3.54,1.59,983.76,32.8
3529602,-0.12,0.01,0.98,2.2,3.6,1.46,983.79,32.81
3529640,-0.12,0.01,0.98,2.01,3.6,1.59,983.81,32.82
3529678,-0.12,0.01,0.98,2.08,3.78,1.46,983.79,32.81
3529727,-0.12,0.01,0.98,2.01,3.66,1.53,983.76,32.8
3529766,-0.12,0.01,0.98,1.95,3.6,1.4,983.73,32.8
3529804,-0.12,0.01,0.98,1.89,3.72,1.53,983.76,32.81
3529842,-0.12,0.01,0.99,2.2,3.78,1.4,983.77,32.81
3529880,-0.12,0.01,0.98,2.08,3.72,1.53,983.77,32.81
3529918,-0.12,0.01,0.98,2.14,3.6,1.59,983.81,32.81
3529956,-0.12,0.01,0.99,2.08,3.6,1.4,983.76,32.82
3529994,-0.12,0.01,0.98,2.01,3.6,1.53,983.76,32.82
3530032,-0.12,0.01,0.99,2.01,3.48,1.59,983.78,32.8
3530070,-0.12,0.01,0.98,2.08,3.54,1.53,983.78,32.81
3530120,-0.12,0.01,0.98,2.08,3.54,1.59,983.76,32.8
3530158,-0.12,0.01,0.98,2.14,3.6,1.46,983.8,32.82
3530196,-0.12,0.01,0.98,2.08,3.72,1.53,983.78,32.81
3530234,-0.12,0.01,0.98,2.08,3.54,1.46,983.76,32.81
3530272,-0.12,0.01,0.98,2.14,3.72,1.59,983.77,32.82
3530310,-0.12,0.01,0.98,2.2,3.66,1.53,983.77,32.82
3530348,-0.12,0.01,0.98,2.14,3.91,1.4,983.79,32.82
3530386,-0.12,0.01,0.98,2.08,3.72,1.53,983.74,32.83
3530425,-0.12,0.01,0.98,2.2,3.66,1.46,983.75,32.83
3530474,-0.12,0.01,0.98,2.08,3.66,1.46,983.76,32.8
3530512,-0.12,0.01,0.98,2.01,3.72,1.53,983.77,32.81
3530551,-0.12,0.01,0.98,2.14,3.72,1.53,983.71,32.8
3530589,-0.12,0.01,0.98,1.95,3.66,1.4,983.76,32.82
3530627,-0.12,0.01,0.98,2.01,3.6,1.59,983.78,32.83
3530665,-0.12,0.01,0.98,2.01,3.48,1.59,983.82,32.83
3530703,-0.12,0.01,0.98,2.08,3.6,1.46,983.73,32.82
3530741,-0.12,0.02,0.98,2.01,3.66,1.46,983.78,32.83
3530779,-0.12,0.02,0.99,2.14,3.6,1.59,983.75,32.83
3530817,-0.12,0.02,0.98,2.01,3.54,1.46,983.76,32.82
3530867,-0.12,0.02,0.99,2.2,3.78,1.53,983.78,32.82
3530905,-0.12,0.01,0.98,2.01,3.78,1.34,983.8,32.81
3530943,-0.12,0.01,0.98,1.95,3.66,1.65,983.79,32.83
3530981,-0.12,0.01,0.98,2.01,3.54,1.53,983.76,32.82
3531019,-0.12,0.01,0.98,1.95,3.72,1.46,983.78,32.82
3531057,-0.12,0.01,0.98,2.01,3.66,1.53,983.79,32.83
3531096,-0.12,0.01,0.98,2.01,3.78,1.59,983.71,32.82
3531134,-0.12,0.01,0.98,2.14,3.72,1.65,983.72,32.82
3531172,-0.12,0.01,0.98,1.89,3.72,1.46,983.75,32.83
3531210,-0.12,0.02,0.99,1.89,3.72,1.53,983.78,32.83
3531259,-0.12,0.01,0.99,2.08,3.72,1.59,983.73,32.8
3531298,-0.12,0.01,0.99,2.01,3.85,1.53,983.8,32.82
3531336,-0.12,0.01,0.98,2.08,3.54,1.65,983.75,32.82
3531374,-0.12,0.01,0.99,1.95,3.72,1.53,983.79,32.82
3531412,-0.12,0.01,0.98,2.01,3.72,1.59,983.78,32.82
3531450,-0.12,0.01,0.98,2.01,3.54,1.59,983.76,32.83
3531488,-0.12,0.01,0.98,2.2,3.6,1.53,983.76,32.82
3531526,-0.12,0.01,0.98,2.08,3.72,1.59,983.74,32.83
3531564,-0.12,0.01,0.98,2.01,3.66,1.53,983.8,32.84
3531602,-0.12,0.01,0.98,2.01,3.66,1.53,983.75,32.83
3531652,-0.12,0.01,0.99,1.95,3.66,1.46,983.79,32.82
3531690,-0.12,0.01,0.98,2.2,3.72,1.53,983.79,32.83
3531728,-0.12,0.01,0.99,2.08,3.6,1.53,983.76,32.82
3531766,-0.12,0.01,0.98,2.01,3.6,1.53,983.77,32.83
3531804,-0.12,0.01,0.98,1.83,3.72,1.59,983.69,32.82
3531842,-0.12,0.01,0.98,1.95,3.85,1.59,983.74,32.83
3531880,-0.12,0.01,0.98,2.08,3.72,1.53,983.83,32.84
3531919,-0.12,0.01,0.98,2.01,3.54,1.59,983.76,32.84
3531957,-0.12,0.01,0.98,2.14,3.72,1.4,983.77,32.83
3531995,-0.12,0.01,0.99,2.26,3.6,1.59,983.79,32.83
3532045,-0.12,0.01,0.98,2.01,3.6,1.65,983.78,32.82
3532083,-0.12,0.01,0.99,2.14,3.72,1.4,983.8,32.83
3532121,-0.12,0.01,0.98,2.01,3.72,1.53,983.78,32.83
3532159,-0.12,0.01,0.98,2.01,3.48,1.53,983.76,32.84
3532197,-0.12,0.01,0.98,2.08,3.72,1.46,983.8,32.83
3532235,-0.12,0.01,0.98,2.14,3.66,1.59,983.77,32.83
3532273,-0.12,0.01,0.98,2.08,3.54,1.53,983.72,32.83
3532311,-0.12,0.01,0.98,2.08,3.66,1.65,983.8,32.83
3532349,-0.12,0.01,0.98,2.2,3.66,1.46,983.82,32.82
3532387,-0.12,0.01,0.98,2.08,3.72,1.46,983.77,32.83
3532463,-0.12,0.02,0.98,2.2,3.85,1.46,983.75,32.8
3532501,-0.12,0.01,0.99,2.14,3.78,1.46,983.73,32.8
3532539,-0.12,0.02,0.99,1.95,3.72,1.65,983.81,32.81
3532628,-0.12,0.01,0.98,2.08,3.72,1.46,983.84,32.78
3532667,-0.12,0.01,0.98,2.01,3.66,1.59,983.73,32.79
3532705,-0.12,0.01,0.98,2.14,3.66,1.46,983.8,32.8
3532743,-0.12,0.01,0.98,2.08,3.66,1.46,983.74,32.8
3532781,-0.12,0.01,0.98,2.01,3.54,1.46,983.78,32.81
3532819,-0.12,0.01,0.98,2.01,3.66,1.59,983.75,32.8
3532857,-0.12,0.01,0.98,2.14,3.48,1.4,983.78,32.81
3532907,-0.12,0.01,0.98,2.2,3.78,1.46,983.73,32.79
3532945,-0.13,0.02,0.98,2.01,3.78,1.53,983.75,32.8
3532983,-0.12,0.02,0.98,2.14,3.66,1.65,983.72,32.8
3533021,-0.12,0.01,0.98,2.01,3.54,1.53,983.77,32.79
3533059,-0.12,0.01,0.98,2.01,3.72,1.53,983.8,32.81
3533097,-0.12,0.01,0.99,2.08,3.78,1.46,983.79,32.8
3533135,-0.12,0.01,0.98,1.95,3.78,1.59,983.82,32.81
3533173,-0.12,0.02,0.99,1.95,3.6,1.4,983.84,32.82
3533211,-0.12,0.01,0.98,2.08,3.78,1.4,983.76,32.81
3533261,-0.12,0.01,0.98,2.08,3.6,1.28,983.74,32.79
3533299,-0.12,0.01,0.99,2.01,3.78,1.53,983.77,32.81
3533337,-0.12,0.01,0.99,2.01,3.6,1.46,983.8,32.8
3533375,-0.12,0.01,0.98,2.08,3.72,1.4,983.76,32.8
3533413,-0.12,0.01,0.98,2.01,3.6,1.59,983.8,32.8
3533451,-0.12,0.02,0.98,2.01,3.72,1.4,983.79,32.81
3533489,-0.12,0.01,0.98,1.89,3.66,1.53,983.78,32.8
3533527,-0.12,0.02,0.98,1.95,3.6,1.53,983.83,32.8
3533565,-0.12,0.01,0.98,2.08,3.66,1.46,983.76,32.81
3533603,-0.12,0.01,0.99,2.01,3.66,1.4,983.81,32.8
3533653,-0.12,0.01,0.98,2.14,3.6,1.53,983.77,32.8
3533691,-0.12,0.01,0.98,2.08,3.78,1.53,983.73,32.79
3533729,-0.12,0.01,0.98,2.08,3.66,1.4,983.8,32.81
3533767,-0.12,0.01,0.98,2.01,3.6,1.46,983.79,32.81
3533805,-0.12,0.01,0.98,2.08,3.66,1.46,983.81,32.82
3533843,-0.12,0.01,0.99,2.08,3.66,1.34,983.76,32.81
3533881,-0.12,0.01,0.98,1.95,3.72,1.46,983.75,32.81
3533919,-0.12,0.01,0.98,1.95,3.72,1.59,983.79,32.82
3533957,-0.12,0.01,0.99,2.14,3.6,1.4,983.78,32.82
3533996,-0.12,0.01,0.98,1.89,3.54,1.53,983.83,32.83
3534045,-0.12,0.02,0.98,2.26,3.78,1.46,983.74,32.82
3534083,-0.12,0.02,0.98,2.14,3.6,1.46,983.76,32.83
3534121,-0.12,0.01,0.99,1.95,3.6,1.4,983.76,32.83
3534160,-0.12,0.01,0.98,2.14,3.66,1.46,983.78,32.82
3534198,-0.12,0.01,0.98,2.08,3.54,1.34,983.72,32.81
3534236,-0.12,0.01,0.98,1.95,3.6,1.53,983.76,32.81
3534274,-0.12,0.01,0.98,2.01,3.78,1.4,983.76,32.82
3534312,-0.12,0.01,0.98,1.95,3.78,1.4,983.79,32.83
3534350,-0.12,0.01,0.98,2.01,3.78,1.46,983.77,32.84
3534388,-0.12,0.01,0.98,2.01,3.78,1.46,983.76,32.83
3534438,-0.12,0.01,0.98,2.01,3.78,1.59,983.73,32.81
3534476,-0.12,0.02,0.98,2.08,3.72,1.59,983.81,32.83
3534514,-0.12,0.01,0.98,2.08,3.6,1.4,983.75,32.83
3534552,-0.12,0.02,0.99,2.26,3.66,1.53,983.82,32.83
3534590,-0.12,0.02,0.98,2.14,3.78,1.59,983.78,32.84
3534628,-0.12,0.01,0.99,2.14,3.54,1.59,983.82,32.83
3534666,-0.12,0.01,0.98,2.08,3.6,1.53,983.73,32.82
3534704,-0.12,0.01,0.98,2.08,3.78,1.46,983.81,32.83
3534742,-0.12,0.01,0.98,2.01,3.66,1.53,983.82,32.83
3534780,-0.12,0.01,0.98,2.2,3.6,1.59,983.81,32.84
3534830,-0.12,0.01,0.98,2.14,3.78,1.46,983.81,32.83
3534868,-0.12,0.01,0.98,1.95,3.78,1.46,983.76,32.82
3534906,-0.12,0.01,0.99,2.01,3.6,1.53,983.77,32.83
3534944,-0.12,0.01,0.98,2.14,3.78,1.46,983.76,32.82
3534982,-0.12,0.01,0.98,2.08,3.66,1.53,983.74,32.82
3535020,-0.12,0.02,0.98,2.08,3.66,1.4,983.83,32.83
3535058,-0.12,0.02,0.99,2.14,3.6,1.4,983.79,32.83
3535097,-0.12,0.01,0.98,2.08,3.54,1.4,983.75,32.83
3535135,-0.12,0.01,0.98,2.14,3.72,1.53,983.76,32.82
3535173,-0.12,0.01,0.98,2.01,3.6,1.53,983.74,32.83
3535222,-0.12,0.01,0.98,2.08,3.48,1.46,983.8,32.82
3535260,-0.12,0.01,0.98,2.08,3.66,1.46,983.81,32.83
3535298,-0.12,0.01,0.98,2.08,3.42,1.53,983.75,32.83
3535336,-0.12,0.01,0.98,2.01,3.6,1.46,983.76,32.84
3535375,-0.12,0.01,0.98,2.08,3.66,1.59,983.8,32.83
3535413,-0.12,0.01,0.99,2.01,3.72,1.53,983.76,32.83
3535451,-0.12,0.01,0.98,2.14,3.66,1.46,983.76,32.82
3535489,-0.12,0.01,0.98,2.08,3.66,1.46,983.77,32.84
3535527,-0.12,0.02,0.98,2.01,3.78,1.4,983.75,32.84
3535602,-0.12,0.01,0.98,1.95,3.72,1.59,983.84,32.8
3535641,-0.12,0.01,0.98,1.89,3.66,1.46,983.75,32.81
3535679,-0.12,0.01,0.98,1.89,3.66,1.53,983.82,32.82
3535768,-0.12,0.01,0.98,2.01,3.6,1.53,983.74,32.8
3535806,-0.12,0.01,0.98,1.89,3.54,1.34,983.77,32.8
3535844,-0.12,0.01,0.98,2.08,3.6,1.59,983.77,32.8
3535882,-0.12,0.01,0.98,2.2,3.72,1.59,983.74,32.8
3535920,-0.12,0.01,0.98,2.14,3.6,1.46,983.78,32.83
3535958,-0.12,0.01,0.98,1.95,3.54,1.4,983.79,32.81
3535996,-0.12,0.01,0.99,2.01,3.54,1.53,983.78,32.82
3536046,-0.12,0.01,0.98,1.95,3.6,1.46,983.78,32.81
3536084,-0.12,0.01,0.98,1.89,3.6,1.46,983.77,32.82
3536122,-0.12,0.01,0.99,2.01,3.54,1.46,983.75,32.81
3536160,-0.12,0.01,0.99,2.08,3.72,1.46,983.75,32.81
3536198,-0.12,0.01,0.98,2.14,3.48,1.53,983.82,32.83
3536236,-0.12,0.01,0.98,2.01,3.6,1.53,983.79,32.82
3536274,-0.12,0.01,0.98,1.95,3.42,1.53,983.79,32.83
3536312,-0.12,0.01,0.98,2.01,3.6,1.65,983.76,32.82
3536350,-0.12,0.01,0.98,2.01,3.54,1.46,983.79,32.83
3536388,-0.12,0.01,0.98,2.01,3.54,1.46,983.72,32.81
3536438,-0.12,0.01,0.99,2.08,3.72,1.59,983.81,32.82
3536476,-0.12,0.01,0.98,2.01,3.6,1.34,983.73,32.81
3536514,-0.12,0.01,0.99,2.2,3.66,1.53,983.73,32.83
3536552,-0.12,0.01,0.98,2.01,3.72,1.53,983.79,32.84
3536590,-0.12,0.01,0.98,2.08,3.6,1.46,983.71,32.81
3536628,-0.12,0.01,0.99,2.08,3.66,1.46,983.82,32.84
3536666,-0.12,0.01,0.98,1.89,3.66,1.46,983.74,32.83
3536705,-0.12,0.01,0.98,1.77,3.85,1.53,983.73,32.83
3536743,-0.12,0.01,0.98,2.01,3.42,1.34,983.74,32.83
3536781,-0.12,0.01,0.98,2.14,3.54,1.53,983.78,32.84
3536830,-0.12,0.01,0.98,2.01,3.54,1.4,983.77,32.83
3536869,-0.12,0.01,0.98,2.01,3.6,1.59,983.72,32.83
3536907,-0.12,0.01,0.99,2.01,3.6,1.46,983.75,32.83
3536945,-0.12,0.01,0.98,2.01,3.72,1.34,983.78,32.83
3536983,-0.12,0.01,0.98,1.95,3.6,1.53,983.77,32.83
3537021,-0.12,0.01,0.98,1.95,3.6,1.53,983.8,32.85
3537059,-0.12,0.01,0.98,2.08,3.66,1.53,983.76,32.83
3537097,-0.12,0.01,0.98,2.14,3.6,1.53,983.75,32.85
3537135,-0.12,0.01,0.98,2.01,3.78,1.46,983.73,32.83
3537173,-0.12,0.01,0.98,1.95,3.78,1.28,983.7,32.84
3537223,-0.12,0.01,0.99,1.95,3.78,1.59,983.76,32.82
3537261,-0.12,0.01,0.98,2.08,3.78,1.4,983.73,32.83
3537299,-0.12,0.01,0.98,2.08,3.66,1.59,983.73,32.83
3537337,-0.12,0.02,0.98,2.08,3.72,1.46,983.73,32.83
3537376,-0.12,0.01,0.99,2.08,3.66,1.59,983.77,32.83
3537414,-0.12,0.01,0.98,2.01,3.72,1.4,983.78,32.84
3537452,-0.12,0.01,0.98,2.01,3.85,1.4,983.73,32.83
3537490,-0.12,0.01,0.98,2.14,3.66,1.59,983.74,32.83
3537528,-0.12,0.01,0.99,2.01,3.66,1.59,983.76,32.85
3537566,-0.12,0.01,0.98,2.08,3.66,1.4,983.76,32.83
3537616,-0.12,0.01,0.98,2.08,3.66,1.59,983.78,32.81
3537654,-0.12,0.01,0.99,2.08,3.78,1.59,983.78,32.83
3537692,-0.12,0.01,0.98,2.01,3.72,1.53,983.74,32.84
3537730,-0.12,0.01,0.98,2.01,3.6,1.46,983.79,32.83
3537768,-0.12,0.01,0.98,2.01,3.6,1.65,983.84,32.85
3537806,-0.12,0.01,0.98,2.08,3.72,1.53,983.74,32.84
3537844,-0.12,0.01,0.98,2.01,3.72,1.46,983.79,32.85
3537883,-0.12,0.01,0.98,2.01,3.6,1.53,983.76,32.83
3537921,-0.12,0.01,0.98,2.08,3.6,1.4,983.72,32.83
3537959,-0.12,0.01,0.99,2.14,3.54,1.53,983.73,32.84
3538009,-0.12,0.01,0.98,2.08,3.6,1.46,983.84,32.83
3538047,-0.12,0.01,0.99,2.08,3.66,1.4,983.78,32.83
3538085,-0.12,0.01,0.98,1.89,3.72,1.46,983.76,32.83
3538123,-0.12,0.01,0.98,2.08,3.54,1.46,983.78,32.84
3538161,-0.12,0.01,0.99,2.01,3.42,1.28,983.78,32.85
3538199,-0.12,0.01,0.98,2.01,3.6,1.59,983.78,32.84
3538237,-0.12,0.01,0.98,2.08,3.54,1.53,983.71,32.83
3538275,-0.12,0.01,0.98,2.08,3.6,1.46,983.76,32.84
3538313,-0.12,0.01,0.98,2.2,3.6,1.53,983.77,32.85
3538363,-0.12,0.01,0.98,2.14,3.48,1.46,983.74,32.82
3538401,-0.12,0.01,0.98,2.14,3.72,1.46,983.77,32.84
3538439,-0.12,0.01,0.98,1.95,3.6,1.4,983.79,32.84
3538477,-0.12,0.01,0.98,2.01,3.6,1.53,983.79,32.84
3538515,-0.12,0.01,0.98,1.95,3.66,1.4,983.74,32.85
3538553,-0.12,0.01,0.98,2.26,3.72,1.53,983.74,32.83
3538591,-0.12,0.02,0.98,1.95,3.85,1.65,983.81,32.85
3538629,-0.12,0.01,0.98,1.95,3.6,1.46,983.76,32.84
3538667,-0.12,0.01,0.99,2.14,3.66,1.46,983.73,32.85
3538705,-0.12,0.01,0.99,2.14,3.78,1.46,983.73,32.83
3538781,-0.12,0.01,0.98,2.01,3.54,1.53,983.77,32.81
3538819,-0.12,0.01,0.98,2.01,3.78,1.53,983.78,32.82
3538857,-0.12,0.02,0.98,2.08,3.6,1.46,983.69,32.82
3538947,-0.12,0.01,0.99,2.01,3.85,1.59,983.76,32.78
3538985,-0.12,0.01,0.99,2.01,3.72,1.59,983.72,32.8
3539023,-0.12,0.01,0.98,1.95,3.72,1.46,983.76,32.8
3539061,-0.12,0.01,0.98,2.08,3.72,1.53,983.75,32.81
3539099,-0.12,0.01,0.98,1.95,3.78,1.4,983.76,32.81
3539137,-0.12,0.01,0.99,1.95,3.72,1.46,983.76,32.81
3539175,-0.12,0.01,0.98,1.83,3.66,1.34,983.76,32.82
3539225,-0.12,0.01,0.98,2.01,3.72,1.59,983.78,32.82
3539263,-0.12,0.01,0.98,1.95,3.66,1.4,983.81,32.82
3539301,-0.12,0.01,0.99,2.14,3.66,1.46,983.75,32.81
3539339,-0.12,0.01,0.99,2.08,3.66,1.59,983.78,32.82
3539377,-0.12,0.01,0.99,2.08,3.66,1.53,983.74,32.83
3539415,-0.12,0.01,0.98,1.95,3.66,1.34,983.75,32.83
3539453,-0.12,0.01,0.98,2.01,3.66,1.4,983.8,32.84
3539492,-0.12,0.01,0.98,2.01,3.54,1.46,983.78,32.84
3539530,-0.12,0.01,0.99,1.95,3.48,1.34,983.79,32.84
3539568,-0.12,0.01,0.98,2.01,3.54,1.53,983.71,32.83
3539618,-0.12,0.01,0.98,1.95,3.66,1.59,983.76,32.82
3539656,-0.12,0.01,0.99,1.89,3.6,1.28,983.79,32.82
3539694,-0.12,0.01,0.98,2.01,3.72,1.59,983.82,32.83
3539732,-0.12,0.01,0.99,1.89,3.54,1.53,983.71,32.82
3539770,-0.12,0.01,0.99,2.08,3.66,1.53,983.77,32.84
3539808,-0.12,0.02,0.98,2.01,3.72,1.53,983.8,32.83
3539846,-0.12,0.01,0.98,2.26,3.72,1.53,983.79,32.83
3539884,-0.12,0.01,0.98,2.14,3.66,1.46,983.79,32.83
3539922,-0.12,0.01,0.99,2.01,3.66,1.59,983.79,32.84
3539960,-0.12,0.01,0.98,2.01,3.66,1.53,983.79,32.84
3540010,-0.12,0.01,0.98,2.08,3.6,1.65,983.76,32.82
3540048,-0.12,0.01,0.98,2.14,3.72,1.46,983.76,32.82
3540086,-0.12,0.01,0.98,2.08,3.66,1.4,983.73,32.82
3540124,-0.12,0.01,0.98,2.01,3.72,1.4,983.73,32.82
3540162,-0.12,0.01,0.98,1.95,3.72,1.34,983.74,32.81
3540200,-0.12,0.01,0.98,2.14,3.78,1.4,983.73,32.82
3540238,-0.12,0.01,0.99,2.01,3.6,1.46,983.79,32.83
3540276,-0.12,0.01,0.99,2.2,3.78,1.59,983.7,32.82
3540315,-0.12,0.02,0.99,2.14,3.72,1.53,983.76,32.83
3540353,-0.12,0.02,0.99,2.14,3.72,1.46,983.76,32.83
3540402,-0.12,0.01,0.98,2.01,3.6,1.46,983.74,32.81
3540440,-0.12,0.01,0.98,2.14,3.66,1.59,983.71,32.83
3540479,-0.12,0.01,0.98,2.08,3.54,1.59,983.76,32.83
3540517,-0.12,0.01,0.98,2.2,3.54,1.53,983.75,32.82
3540555,-0.12,0.02,0.98,2.01,3.6,1.59,983.77,32.84
3540593,-0.11,0.02,0.98,2.01,3.6,1.46,983.74,32.83
3540631,-0.12,0.01,0.98,1.95,3.78,1.34,983.73,32.83
3540669,-0.12,0.01,0.98,2.01,3.66,1.4,983.76,32.81
3540707,-0.13,0.01,0.99,2.14,3.72,1.46,983.81,32.83
3540757,-0.12,0.02,0.99,1.95,3.72,1.53,983.76,32.81
3540795,-0.12,0.01,0.98,2.08,3.6,1.53,983.79,32.83
3540833,-0.12,0.01,0.98,1.95,3.66,1.4,983.74,32.82
3540871,-0.12,0.01,0.99,1.95,3.54,1.46,983.76,32.83
3540909,-0.12,0.01,0.98,1.77,3.66,1.59,983.7,32.83
3540947,-0.12,0.01,0.98,2.01,3.85,1.46,983.73,32.83
3540985,-0.12,0.01,0.98,2.01,3.66,1.4,983.76,32.82
3541023,-0.12,0.01,0.99,2.01,3.72,1.53,983.71,32.81
3541061,-0.12,0.01,0.98,2.01,3.72,1.46,983.77,32.83
3541099,-0.12,0.01,0.98,2.01,3.66,1.4,983.74,32.82
3541149,-0.12,0.01,0.98,2.14,3.66,1.4,983.8,32.82
3541187,-0.12,0.02,0.98,2.08,3.66,1.46,983.79,32.82
3541225,-0.12,0.02,0.98,2.01,3.54,1.34,983.75,32.81
3541263,-0.12,0.01,0.99,1.89,3.72,1.46,983.8,32.82
3541301,-0.12,0.01,0.98,2.01,3.72,1.53,983.74,32.83
3541339,-0.12,0.01,0.98,1.89,3.72,1.59,983.74,32.82
3541377,-0.12,0.01,0.99,2.01,3.66,1.59,983.75,32.82
3541415,-0.12,0.01,0.99,2.01,3.66,1.59,983.77,32.83
3541453,-0.12,0.01,0.98,1.77,3.66,1.53,983.77,32.82
3541492,-0.12,0.01,0.99,1.95,3.66,1.53,983.78,32.83
3541541,-0.12,0.01,0.98,2.01,3.72,1.46,983.81,32.81
3541579,-0.12,0.01,0.98,2.08,3.78,1.53,983.81,32.83
3541617,-0.12,0.02,0.98,1.89,3.54,1.28,983.81,32.83
3541656,-0.12,0.01,0.98,2.01,3.72,1.53,983.71,32.81
3541694,-0.12,0.01,0.99,1.95,3.6,1.46,983.81,32.82
3541732,-0.12,0.01,0.99,2.01,3.66,1.53,983.73,32.82
3541770,-0.12,0.01,0.98,2.14,3.66,1.53,983.74,32.83
3541808,-0.12,0.01,0.98,2.01,3.6,1.4,983.78,32.83
3541846,-0.12,0.01,0.98,2.01,3.6,1.53,983.77,32.83
3541884,-0.12,0.01,0.98,2.2,3.6,1.34,983.73,32.82
3541960,-0.12,0.01,0.98,1.89,3.78,1.46,983.78,32.8
3541998,-0.12,0.01,0.98,2.14,3.66,1.53,983.74,32.8
3542036,-0.12,0.01,0.98,2.01,3.72,1.53,983.7,32.81
3542125,-0.12,0.01,0.98,1.95,3.78,1.59,983.74,32.77
3542163,-0.12,0.01,0.99,1.95,3.72,1.46,983.76,32.79
3542202,-0.12,0.01,0.99,1.89,3.66,1.46,983.79,32.8
3542240,-0.12,0.01,0.98,2.08,3.72,1.59,983.75,32.8
3542278,-0.12,0.01,0.98,2.08,3.66,1.34,983.72,32.8
3542316,-0.12,0.01,0.99,1.89,3.6,1.4,983.78,32.8
3542354,-0.12,0.01,0.98,1.95,3.66,1.53,983.75,32.82
3542404,-0.12,0.01,0.98,1.95,3.78,1.46,983.72,32.8
3542442,-0.12,0.01,0.98,2.14,3.85,1.4,983.76,32.8
3542480,-0.12,0.01,0.98,1.95,3.72,1.53,983.76,32.8
3542518,-0.12,0.01,0.98,1.95,3.66,1.34,983.81,32.82
3542556,-0.12,0.01,0.99,2.01,3.72,1.34,983.74,32.81
3542594,-0.12,0.01,0.98,1.95,3.72,1.34,983.73,32.8
3542632,-0.12,0.01,0.98,2.01,3.66,1.53,983.73,32.81
3542670,-0.12,0.01,0.98,2.14,3.72,1.4,983.76,32.81
3542708,-0.12,0.01,0.99,2.08,3.6,1.46,983.75,32.82
3542746,-0.12,0.01,0.99,2.01,3.72,1.53,983.73,32.82
3542796,-0.12,0.01,0.98,1.89,3.78,1.34,983.77,32.81
3542834,-0.12,0.01,0.98,2.08,3.72,1.53,983.76,32.81
3542872,-0.12,0.01,0.98,2.01,3.72,1.46,983.75,32.83
3542910,-0.12,0.01,0.98,2.01,3.54,1.4,983.72,32.81
3542948,-0.12,0.01,0.98,2.14,3.66,1.53,983.77,32.83
3542986,-0.12,0.01,0.98,1.95,3.66,1.53,983.75,32.83
3543025,-0.12,0.01,0.98,2.14,3.78,1.46,983.71,32.81
3543063,-0.12,0.01,0.98,2.01,3.85,1.53,983.78,32.84
3543101,-0.12,0.02,0.99,1.95,3.85,1.46,983.75,32.82
3543139,-0.12,0.02,0.99,2.01,3.66,1.4,983.78,32.84
3543189,-0.12,0.01,0.98,2.08,3.66,1.46,983.71,32.82
3543227,-0.12,0.01,0.98,2.01,3.85,1.59,983.76,32.83
3543265,-0.12,0.01,0.98,1.89,3.6,1.46,983.71,32.83
3543303,-0.13,0.02,0.99,2.01,3.66,1.59,983.76,32.83
3543341,-0.12,0.02,0.99,2.08,3.6,1.46,983.8,32.83
3543379,-0.11,0.01,0.98,1.89,3.72,1.46,983.77,32.83
3543417,-0.12,0.01,0.98,1.95,3.85,1.46,983.71,32.84
3543455,-0.12,0.01,0.99,2.01,3.54,1.46,983.79,32.84
3543493,-0.13,0.02,0.99,2.01,3.66,1.4,983.82,32.84
3543543,-0.12,0.02,0.99,2.14,3.48,1.4,983.77,32.82
3543581,-0.12,0.01,0.98,2.08,3.72,1.34,983.71,32.82
3543619,-0.12,0.01,0.98,1.95,3.91,1.46,983.78,32.83
3543657,-0.12,0.01,0.99,2.08,3.6,1.59,983.82,32.85
3543695,-0.12,0.02,0.98,2.14,3.72,1.53,983.74,32.83
3543733,-0.12,0.02,0.98,2.01,3.72,1.46,983.75,32.85
3543771,-0.12,0.01,0.98,1.95,3.85,1.46,983.8,32.85
3543809,-0.12,0.01,0.99,1.95,3.66,1.59,983.77,32.83
3543848,-0.12,0.01,0.99,2.01,3.78,1.4,983.78,32.84
3543886,-0.12,0.01,0.99,1.77,3.85,1.34,983.75,32.85
3543935,-0.12,0.02,0.98,1.95,3.85,1.34,983.8,32.83
3543974,-0.12,0.02,0.98,1.95,3.6,1.4,983.74,32.83
3544012,-0.12,0.01,0.99,1.89,3.78,1.34,983.8,32.85
3544050,-0.12,0.01,0.99,2.01,3.66,1.4,983.74,32.84
3544088,-0.12,0.01,0.98,2.01,3.6,1.4,983.77,32.84
3544126,-0.12,0.02,0.98,2.01,3.72,1.4,983.77,32.85
3544164,-0.12,0.01,0.98,2.01,3.66,1.22,983.75,32.85
3544202,-0.12,0.01,0.99,1.95,3.6,1.46,983.79,32.85
3544240,-0.12,0.01,0.99,1.95,3.66,1.34,983.82,32.84
3544279,-0.12,0.01,0.99,2.01,3.66,1.53,983.74,32.83
3544328,-0.12,0.01,0.98,2.08,3.85,1.53,983.72,32.83
3544366,-0.12,0.01,0.98,1.89,3.72,1.53,983.75,32.85
3544405,-0.12,0.01,0.98,2.08,3.66,1.34,983.72,32.83
3544443,-0.12,0.01,0.99,2.01,3.66,1.46,983.74,32.85
3544481,-0.12,0.01,0.98,2.08,3.66,1.53,983.83,32.85
3544519,-0.12,0.01,0.98,1.95,3.78,1.46,983.81,32.84
3544557,-0.12,0.01,0.98,1.89,3.66,1.46,983.77,32.84
3544595,-0.12,0.01,0.98,2.01,3.85,1.34,983.71,32.83
3544633,-0.12,0.01,0.99,1.89,3.66,1.46,983.7,32.84
3544671,-0.12,0.01,0.98,2.14,3.6,1.46,983.7,32.86
3544721,-0.12,0.01,0.98,2.01,3.6,1.59,983.77,32.84
3544759,-0.12,0.01,0.98,1.83,3.78,1.4,983.76,32.83
3544797,-0.12,0.01,0.98,1.95,3.72,1.34,983.71,32.84
3544835,-0.12,0.01,0.98,2.01,3.6,1.53,983.73,32.84
3544874,-0.12,0.01,0.98,1.89,3.66,1.34,983.79,32.85
3544912,-0.12,0.01,0.99,1.95,3.72,1.4,983.75,32.84
3544950,-0.12,0.01,0.98,1.89,3.66,1.59,983.73,32.83
3544988,-0.12,0.02,0.99,1.89,3.72,1.53,983.71,32.85
3545026,-0.12,0.02,0.98,1.89,3.78,1.46,983.78,32.85
3545064,-0.12,0.01,0.98,2.01,3.78,1.4,983.75,32.86
3545140,-0.12,0.01,0.99,1.95,3.6,1.46,983.71,32.81
3545178,-0.12,0.01,0.98,1.89,3.72,1.4,983.76,32.83
3545216,-0.12,0.01,0.98,1.89,3.66,1.53,983.77,32.84
3545305,-0.12,0.01,0.99,1.95,3.54,1.46,983.7,32.8
3545344,-0.12,0.01,0.99,2.08,3.54,1.4,983.82,32.82
3545382,-0.12,0.01,0.98,1.77,3.85,1.4,983.8,32.83
3545420,-0.12,0.01,0.98,1.95,3.78,1.4,983.71,32.81
3545458,-0.12,0.01,0.98,2.14,3.72,1.53,983.72,32.82
3545496,-0.13,0.02,0.99,2.2,3.72,1.4,983.71,32.81
3545534,-0.12,0.02,0.98,2.01,3.85,1.4,983.75,32.83
3545584,-0.12,0.01,0.98,1.89,3.72,1.46,983.76,32.82
3545622,-0.12,0.01,0.98,2.08,3.72,1.4,983.8,32.85
3545660,-0.12,0.01,0.98,2.08,3.72,1.53,983.76,32.82
3545698,-0.12,0.01,0.99,2.14,3.66,1.34,983.76,32.84
3545736,-0.12,0.01,0.99,1.95,3.66,1.59,983.75,32.83
3545774,-0.12,0.01,0.98,2.08,3.66,1.4,983.8,32.85
3545812,-0.12,0.01,0.98,2.2,3.66,1.46,983.77,32.85
3545851,-0.12,0.01,0.98,2.08,3.72,1.53,983.75,32.82
3545889,-0.12,0.01,0.98,2.14,3.72,1.53,983.76,32.84
3545938,-0.12,0.02,0.98,1.89,3.6,1.53,983.74,32.83
3545976,-0.12,0.01,0.98,2.08,3.78,1.46,983.83,32.84
3546015,-0.12,0.01,0.99,1.89,3.66,1.4,983.78,32.86
3546053,-0.12,0.01,0.99,1.89,3.72,1.53,983.76,32.84
3546091,-0.12,0.01,0.98,1.95,3.54,1.53,983.75,32.83
3546129,-0.12,0.01,0.98,1.83,3.6,1.53,983.71,32.83
3546167,-0.12,0.01,0.99,1.95,3.48,1.53,983.72,32.84
3546205,-0.12,0.01,0.98,2.01,3.72,1.53,983.76,32.85
3546243,-0.12,0.01,0.99,2.08,3.66,1.53,983.77,32.84
3546281,-0.12,0.01,0.98,2.14,3.6,1.28,983.72,32.85
3546331,-0.12,0.01,0.98,1.95,3.72,1.34,983.73,32.83
3546369,-0.12,0.01,0.98,2.01,3.66,1.53,983.79,32.83
3546407,-0.12,0.01,0.99,2.01,3.78,1.53,983.74,32.83
3546445,-0.12,0.01,0.99,2.08,3.78,1.53,983.75,32.83
3546483,-0.12,0.01,0.98,2.2,3.6,1.4,983.72,32.84
3546521,-0.12,0.01,0.98,2.14,3.66,1.46,983.74,32.83
3546559,-0.12,0.01,0.98,1.89,3.66,1.46,983.77,32.85
3546598,-0.12,0.01,0.98,2.08,3.78,1.46,983.71,32.84
3546636,-0.12,0.01,0.98,2.01,3.48,1.59,983.73,32.84
3546674,-0.12,0.01,0.99,2.2,3.72,1.71,983.75,32.84
3546723,-0.12,0.01,0.98,1.89,3.6,1.4,983.78,32.83
3546762,-0.12,0.01,0.98,2.01,3.6,1.34,983.73,32.84
3546800,-0.12,0.01,0.98,2.01,3.66,1.4,983.73,32.85
3546838,-0.12,0.01,0.98,1.95,3.54,1.46,983.74,32.84
3546876,-0.12,0.01,0.98,1.95,3.66,1.53,983.76,32.84
3546914,-0.12,0.01,0.98,1.95,3.6,1.59,983.76,32.84
3546952,-0.12,0.01,0.99,1.95,3.72,1.4,983.71,32.83
3546990,-0.12,0.01,0.99,2.14,3.54,1.46,983.71,32.84
3547028,-0.12,0.01,0.98,1.95,3.85,1.34,983.79,32.85
3547067,-0.12,0.01,0.98,2.01,3.72,1.53,983.74,32.85
3547116,-0.12,0.01,0.99,2.2,3.85,1.46,983.73,32.83
3547154,-0.12,0.01,0.98,2.01,3.78,1.59,983.74,32.84
3547192,-0.12,0.01,0.98,1.95,3.78,1.53,983.7,32.83
3547231,-0.12,0.01,0.98,2.08,3.85,1.53,983.72,32.83
3547269,-0.12,0.01,0.98,2.01,3.54,1.46,983.67,32.84
3547307,-0.12,0.01,0.98,1.83,3.72,1.46,983.75,32.84
3547345,-0.12,0.01,0.98,2.01,3.66,1.59,983.75,32.85
3547383,-0.12,0.01,0.99,2.08,3.66,1.59,983.72,32.85
3547421,-0.12,0.01,0.98,2.08,3.66,1.46,983.71,32.85
3547459,-0.12,0.01,0.98,2.08,3.6,1.59,983.76,32.85
3547509,-0.12,0.01,0.98,2.14,3.66,1.59,983.78,32.83
3547547,-0.12,0.01,0.99,2.01,3.66,1.46,983.77,32.83
3547585,-0.12,0.01,0.98,1.95,3.72,1.53,983.73,32.84
3547623,-0.12,0.01,0.99,2.2,3.78,1.53,983.73,32.84
3547661,-0.12,0.01,0.98,2.01,3.85,1.4,983.76,32.85
3547699,-0.12,0.01,0.98,2.01,3.72,1.46,983.75,32.85
3547737,-0.12,0.01,0.98,2.08,3.78,1.46,983.77,32.86
3547775,-0.12,0.01,0.98,2.08,3.66,1.46,983.76,32.84
3547813,-0.12,0.01,0.99,2.01,3.6,1.53,983.76,32.84
3547852,-0.12,0.01,0.98,2.14,3.6,1.4,983.75,32.83
3547901,-0.12,0.01,0.98,2.14,3.66,1.4,983.74,32.82
3547939,-0.12,0.01,0.98,2.01,3.54,1.53,983.73,32.84
3547978,-0.12,0.01,0.98,1.95,3.91,1.59,983.71,32.83
3548016,-0.12,0.01,0.98,2.08,3.78,1.53,983.72,32.85
3548054,-0.12,0.01,0.98,1.95,3.72,1.4,983.8,32.85
3548092,-0.12,0.01,0.99,2.01,3.72,1.59,983.72,32.83
3548130,-0.12,0.02,0.99,2.01,3.66,1.34,983.76,32.86
3548168,-0.12,0.02,0.98,2.14,3.78,1.53,983.81,32.85
3548206,-0.12,0.02,0.99,2.08,3.78,1.34,983.69,32.84
3548244,-0.12,0.01,0.98,2.2,3.85,1.46,983.75,32.85
3548321,-0.12,0.01,0.99,2.01,3.78,1.46,983.76,32.81
3548359,-0.12,0.01,0.99,2.08,3.66,1.46,983.76,32.83
3548397,-0.12,0.01,0.98,1.95,3.66,1.46,983.78,32.82
3548487,-0.12,0.02,0.98,2.01,3.85,1.46,983.75,32.8
3548525,-0.12,0.02,0.98,1.95,3.6,1.46,983.73,32.81
3548563,-0.12,0.01,0.98,2.08,3.66,1.34,983.76,32.83
3548601,-0.12,0.01,0.99,2.08,3.97,1.53,983.75,32.83
3548639,-0.12,0.01,0.99,2.01,3.66,1.34,983.79,32.84
3548677,-0.12,0.01,0.99,2.01,3.72,1.65,983.72,32.82
3548727,-0.12,0.02,0.98,2.01,3.6,1.34,983.73,32.8
3548765,-0.12,0.01,0.98,2.01,3.6,1.59,983.72,32.82
3548803,-0.12,0.01,0.98,1.95,3.6,1.4,983.77,32.83
3548841,-0.12,0.01,0.98,1.89,3.6,1.53,983.74,32.83
3548879,-0.12,0.01,0.98,2.01,3.66,1.4,983.79,32.82
3548917,-0.12,0.01,0.99,2.08,3.66,1.59,983.71,32.83
3548956,-0.12,0.01,0.98,1.89,3.6,1.53,983.78,32.83
3548994,-0.12,0.01,0.98,1.95,3.66,1.34,983.79,32.83
3549032,-0.12,0.02,0.98,1.83,3.66,1.46,983.79,32.84
3549070,-0.12,0.02,0.98,2.08,3.72,1.53,983.78,32.84
3549120,-0.13,0.02,0.98,2.08,3.6,1.59,983.7,32.81
3549158,-0.12,0.01,0.99,1.89,3.72,1.53,983.81,32.83
3549196,-0.13,0.01,0.98,1.95,3.66,1.53,983.78,32.84
3549234,-0.12,0.01,0.99,1.89,3.66,1.46,983.74,32.83
3549272,-0.12,0.01,0.98,1.95,3.78,1.28,983.75,32.82
3549310,-0.12,0.01,0.99,2.08,3.72,1.4,983.76,32.84
3549348,-0.12,0.01,0.99,2.01,3.72,1.4,983.76,32.83
3549386,-0.12,0.01,0.98,2.14,3.78,1.46,983.73,32.83
3549424,-0.12,0.01,0.98,2.08,3.72,1.4,983.77,32.83
3549462,-0.12,0.01,0.98,2.01,3.66,1.4,983.77,32.84
3549512,-0.12,0.01,0.99,1.95,3.72,1.53,983.77,32.82
3549550,-0.12,0.01,0.98,1.95,3.72,1.53,983.72,32.82
3549588,-0.13,0.02,0.99,2.01,3.66,1.53,983.71,32.82
3549626,-0.12,0.01,0.98,2.01,3.72,1.46,983.73,32.81
3549665,-0.12,0.01,0.98,2.01,3.6,1.46,983.78,32.83
3549703,-0.13,0.02,0.98,1.89,3.66,1.34,983.73,32.83
3549741,-0.13,0.02,0.99,2.01,3.72,1.53,983.8,32.84
3549779,-0.12,0.02,0.99,2.08,3.72,1.34,983.81,32.83
3549817,-0.12,0.01,0.98,1.89,3.72,1.46,983.7,32.84
3549855,-0.12,0.01,0.98,1.95,3.78,1.4,983.76,32.83
3549905,-0.14,0.01,0.99,2.14,3.78,1.59,983.8,32.82
3549943,-0.13,0.01,0.99,1.95,3.6,1.53,983.77,32.83
3549981,-0.1,0.01,0.98,1.95,3.78,1.4,983.79,32.84
3550019,-0.11,0.01,0.98,2.08,3.66,1.53,983.7,32.82
3550057,-0.12,0.01,0.99,2.01,3.72,1.4,983.78,32.83
3550095,-0.12,0.02,0.99,2.01,3.85,1.34,983.8,32.83
3550133,-0.12,0.02,0.99,1.83,3.66,1.4,983.77,32.84
3550171,-0.12,0.02,0.98,1.89,3.72,1.22,983.78,32.84
3550209,-0.11,0.02,0.98,1.95,3.6,1.46,983.79,32.83
3550247,-0.14,0.02,0.97,2.26,3.66,1.28,983.76,32.84
3550297,-0.11,0.02,0.99,2.2,4.27,1.53,983.75,32.81
3550335,-0.12,0.01,0.99,2.32,3.85,1.53,983.77,32.84
3550373,-0.11,0.02,0.98,2.01,3.72,1.46,983.75,32.83
3550411,-0.11,0.01,0.98,2.08,3.6,1.4,983.75,32.83
3550449,-0.11,0.02,0.98,2.01,3.3,1.46,983.77,32.83
3550488,-0.13,0.01,0.99,2.01,3.66,1.53,983.82,32.85
3550526,-0.14,0.01,0.98,2.14,3.42,1.59,983.82,32.83
3550564,-0.13,0.01,0.99,2.08,3.54,1.53,983.76,32.84
3550602,-0.11,0.01,0.98,2.01,3.66,1.53,983.84,32.83
3550640,-0.12,0.01,0.98,1.95,3.6,1.53,983.76,32.84
3550689,-0.12,0.01,0.99,1.95,3.72,1.46,983.78,32.81
3550727,-0.12,0.02,0.98,1.89,3.66,1.46,983.78,32.83
3550766,-0.13,0.02,0.98,1.95,3.85,1.46,983.74,32.83
3550804,-0.12,0.01,0.98,1.89,4.03,1.46,983.74,32.83
3550842,-0.12,0.01,0.99,1.89,3.66,1.4,983.77,32.83
3550880,-0.13,0.01,0.99,1.77,3.91,1.46,983.79,32.83
3550918,-0.12,0.01,0.99,2.01,3.66,1.59,983.82,32.83
3550956,-0.11,0.02,0.99,2.01,3.72,1.4,983.8,32.83
3550994,-0.11,0.02,0.99,2.2,3.54,1.4,983.74,32.83
3551044,-0.12,0.02,0.98,2.2,3.66,1.46,983.75,32.82
3551082,-0.12,0.01,0.98,2.08,3.42,1.28,983.78,32.84
3551120,-0.13,0.01,0.99,2.08,3.36,1.59,983.8,32.83
3551158,-0.12,0.0,0.98,1.83,3.54,1.53,983.82,32.83
3551196,-0.12,0.01,0.98,2.01,3.48,1.46,983.78,32.82
3551234,-0.11,0.01,0.99,1.89,3.72,1.4,983.77,32.83
3551272,-0.12,0.01,0.98,1.95,3.48,1.34,983.8,32.82
3551310,-0.13,0.02,0.99,2.01,3.42,1.46,983.75,32.83
3551348,-0.13,0.02,0.99,1.95,3.66,1.4,983.77,32.82
3551387,-0.11,0.02,0.99,2.01,3.72,1.4,983.8,32.83
3551462,-0.12,0.01,0.99,2.08,3.66,1.53,983.79,32.79
3551500,-0.12,0.01,0.99,2.08,4.03,1.46,983.76,32.81
3551538,-0.13,0.01,0.98,1.89,3.54,1.65,983.77,32.82
3551628,-0.13,0.01,0.98,1.65,3.97,1.65,983.72,32.78
3551666,-0.12,0.02,0.98,1.95,3.72,1.4,983.67,32.78
3551704,-0.11,0.02,0.97,1.77,4.15,1.46,983.74,32.8
3551742,-0.12,0.02,0.99,1.83,3.54,1.4,983.76,32.8
3551780,-0.12,0.01,0.99,1.89,3.54,1.4,983.74,32.82
3551818,-0.12,0.01,0.98,1.95,3.42,1.4,983.77,32.81
3551856,-0.11,0.01,0.98,2.08,3.6,1.53,983.73,32.81
3551906,-0.13,0.02,0.99,2.2,3.36,1.46,983.75,32.82
3551944,-0.14,0.02,0.98,2.08,3.54,1.34,983.77,32.82
3551982,-0.12,0.02,0.97,2.01,3.72,1.4,983.73,32.81
3552020,-0.11,0.01,0.99,2.01,3.36,1.65,983.76,32.83
3552058,-0.12,0.01,1.0,2.01,3.48,1.59,983.77,32.82
3552097,-0.12,0.01,0.99,1.95,3.78,1.59,983.82,32.84
3552135,-0.13,0.0,0.98,2.08,3.72,1.77,983.78,32.83
3552173,-0.13,0.01,0.98,2.08,3.6,1.46,983.76,32.83
3552211,-0.13,0.02,0.99,2.2,3.72,1.53,983.76,32.82
3552249,-0.13,0.01,0.99,2.08,3.85,1.34,983.72,32.83
3552298,-0.11,0.01,0.97,2.01,3.97,1.53,983.78,32.83
3552336,-0.12,0.0,0.98,2.2,3.6,1.34,983.72,32.83
3552375,-0.11,0.01,0.99,2.2,3.91,1.46,983.78,32.84
3552413,-0.11,0.02,0.99,1.89,3.91,1.46,983.78,32.83
3552451,-0.12,0.02,0.98,1.83,3.72,1.4,983.78,32.83
3552489,-0.13,0.02,0.98,2.01,3.66,1.46,983.74,32.83
3552527,-0.12,0.02,0.99,1.83,3.85,1.34,983.77,32.85
3552565,-0.12,0.02,0.98,2.14,4.09,1.59,983.76,32.84
3552603,-0.11,0.01,0.99,2.14,4.09,1.53,983.75,32.83
3552641,-0.12,0.01,0.99,2.2,3.6,1.46,983.79,32.84
3552691,-0.12,0.02,0.99,2.2,3.54,1.46,983.8,32.82
3552729,-0.12,0.03,0.99,2.14,3.42,1.53,983.76,32.83
3552767,-0.12,0.03,0.98,2.08,3.48,1.65,983.79,32.83
3552805,-0.13,0.03,0.97,2.08,3.42,1.65,983.77,32.83
3552843,-0.14,0.02,0.98,2.01,3.54,1.46,983.74,32.83
3552881,-0.13,0.02,0.98,2.01,3.6,1.46,983.76,32.85
3552919,-0.16,0.0,0.99,2.26,3.42,1.4,983.79,32.84
3552957,-0.11,0.01,0.98,1.89,3.36,1.77,983.79,32.83
3552995,-0.09,-0.0,0.98,1.95,3.78,1.59,983.8,32.83
3553033,-0.12,-0.01,0.98,2.14,3.97,1.65,983.69,32.85
3553083,-0.13,0.01,0.99,2.01,4.09,1.71,983.71,32.84
3553121,-0.14,0.02,0.99,1.95,3.78,1.46,983.76,32.82
3553159,-0.14,0.01,0.98,2.08,3.72,1.53,983.76,32.83
3553197,-0.11,0.02,0.99,2.01,3.78,1.53,983.78,32.85
3553235,-0.12,0.02,0.98,2.01,4.03,1.65,983.79,32.84
3553273,-0.11,0.01,0.99,2.14,3.42,1.46,983.79,32.84
3553311,-0.11,0.0,0.99,1.71,3.36,1.59,983.72,32.83
3553349,-0.12,0.02,1.0,2.01,3.36,1.65,983.74,32.84
3553387,-0.12,0.01,0.97,2.08,3.91,1.53,983.77,32.84
3553437,-0.13,0.02,0.99,2.01,3.66,1.28,983.76,32.83
3553475,-0.12,0.01,0.97,2.14,3.66,1.53,983.82,32.84
3553513,-0.12,0.0,0.99,2.14,3.17,1.65,983.75,32.83
3553551,-0.14,0.01,0.98,1.89,3.6,1.4,983.77,32.84
3553589,-0.12,0.01,0.98,1.95,3.42,1.46,983.78,32.85
3553627,-0.12,0.02,0.99,1.89,3.48,1.53,983.77,32.83
3553665,-0.12,0.02,0.98,2.01,3.6,1.53,983.76,32.84
3553703,-0.11,0.02,0.99,2.08,3.66,1.46,983.77,32.85
3553742,-0.13,0.01,0.99,2.08,4.03,1.46,983.81,32.85
3553780,-0.14,0.01,0.98,1.89,3.91,1.59,983.8,32.85
3553829,-0.12,0.01,0.99,2.08,3.78,1.59,983.78,32.84
3553867,-0.12,0.01,0.98,1.89,3.72,1.53,983.76,32.84
3553905,-0.11,0.01,0.98,2.01,3.78,1.46,983.75,32.84
3553944,-0.12,0.01,0.98,1.89,3.66,1.53,983.71,32.84
3553982,-0.11,0.01,0.99,2.08,3.6,1.46,983.69,32.83
3554020,-0.12,0.01,0.99,2.01,3.66,1.46,983.81,32.85
3554058,-0.12,0.02,0.99,1.95,3.3,1.53,983.76,32.85
3554096,-0.11,0.02,0.98,2.08,3.17,1.34,983.72,32.85
3554134,-0.12,0.02,0.99,2.2,3.17,1.46,983.78,32.85
3554172,-0.13,0.02,0.98,2.08,3.36,1.46,983.79,32.84
3554222,-0.12,0.01,0.98,2.01,3.3,1.46,983.78,32.83
3554260,-0.13,0.01,0.99,2.26,3.42,1.53,983.78,32.84
3554298,-0.13,0.01,0.98,2.2,3.66,1.59,983.83,32.85
3554336,-0.12,0.02,0.99,2.08,3.48,1.65,983.7,32.85
3554374,-0.12,0.01,0.98,1.95,3.91,1.59,983.73,32.84
3554412,-0.12,0.0,0.97,2.08,3.85,1.53,983.73,32.84
3554450,-0.13,0.01,0.99,2.26,3.78,1.4,983.84,32.85
3554488,-0.13,0.02,0.99,2.08,3.78,1.59,983.76,32.85
3554527,-0.1,0.01,0.98,1.83,4.09,1.53,983.79,32.85
3554565,-0.14,0.01,0.98,1.95,4.03,1.59,983.76,32.85
