timestamp,acc_x,acc_y,acc_z,rot_x,rot_y,rot_z,qfe,temp,Unnamed: 10
6475502,-0.0,-0.05,0.97,2.69,2.62,3.42,949.71,21.08,
6475541,0.0,-0.06,0.97,2.5,3.17,3.23,949.73,21.09,
6475579,-0.0,-0.05,0.96,2.56,3.17,3.11,949.72,21.1,
6475617,0.01,-0.05,1.0,2.5,3.05,2.99,949.73,21.09,
6475656,0.0,-0.05,0.98,2.14,2.99,2.87,949.75,21.1,
6475706,0.0,-0.05,1.04,2.01,2.32,2.81,949.74,21.09,
6475744,-0.0,-0.05,1.04,1.77,2.38,2.75,949.64,21.08,
6475782,-0.0,-0.05,1.06,1.4,2.14,2.75,949.73,21.09,
6475821,0.01,-0.04,1.09,1.22,1.95,2.44,949.77,21.1,
6475859,-0.0,-0.04,1.1,1.1,2.14,2.5,949.73,21.1,
6475897,-0.01,-0.04,1.08,0.79,2.32,2.38,949.72,21.09,
6475936,-0.0,-0.04,1.15,1.04,2.38,2.38,949.69,21.09,
6475974,0.01,-0.04,1.15,0.79,3.17,2.32,949.73,21.09,
6476012,0.0,-0.03,1.21,1.04,2.38,2.08,949.72,21.1,
6476062,0.0,-0.04,1.22,1.28,2.99,2.01,949.69,21.08,
6476101,0.0,-0.03,1.24,1.34,2.81,1.89,949.74,21.08,
6476139,0.0,-0.03,1.24,1.34,2.5,1.83,949.64,21.09,
6476177,0.01,-0.03,1.22,1.59,2.44,1.65,949.66,21.09,
6476216,-0.01,-0.03,1.22,1.53,2.56,1.65,949.79,21.1,
6476254,0.0,-0.03,1.23,1.71,2.62,1.53,949.68,21.1,
6476292,0.0,-0.04,1.21,1.65,2.44,1.59,949.65,21.09,
6476330,0.0,-0.03,1.18,1.71,1.83,1.34,949.76,21.1,
6476369,-0.01,-0.04,1.17,2.26,1.34,1.4,949.66,21.09,
6476407,-0.0,-0.05,1.13,2.14,1.1,1.46,949.7,21.1,
6476457,0.0,-0.04,1.12,2.26,0.73,1.28,949.73,21.08,
6476495,-0.01,-0.05,1.07,2.69,0.73,0.98,949.71,21.09,
6476534,-0.01,-0.05,1.04,2.56,0.92,1.1,949.74,21.09,
6476572,-0.0,-0.05,1.04,2.75,1.1,0.92,949.77,21.1,
6476610,-0.01,-0.05,1.0,2.93,1.4,0.85,949.73,21.09,
6476649,-0.01,-0.05,1.0,2.75,1.4,0.85,949.69,21.09,
6476687,-0.0,-0.05,0.97,2.44,0.61,0.73,949.68,21.09,
6476725,-0.01,-0.06,0.96,2.75,0.43,0.73,949.68,21.09,
6476763,-0.01,-0.06,0.94,2.38,0.67,0.79,949.68,21.1,
6476802,-0.01,-0.05,0.94,2.32,0.49,0.85,949.69,21.09,
6476852,-0.02,-0.06,0.92,1.95,1.28,0.55,949.75,21.08,
6476890,-0.0,-0.06,0.92,1.95,1.65,0.61,949.63,21.08,
6476928,-0.02,-0.06,0.92,1.89,1.83,0.61,949.74,21.09,
6476967,-0.02,-0.05,0.92,1.59,2.62,0.67,949.63,21.1,
6477005,-0.02,-0.06,0.91,1.53,3.6,0.49,949.69,21.11,
6477043,-0.0,-0.05,0.93,1.53,4.21,0.31,949.73,21.1,
6477082,-0.02,-0.06,0.92,1.16,4.58,0.49,949.64,21.09,
6477120,-0.01,-0.05,0.96,1.16,4.33,0.31,949.65,21.1,
6477158,-0.01,-0.06,0.96,1.16,5.13,0.31,949.7,21.1,
6477197,-0.02,-0.06,0.94,1.22,4.76,0.49,949.59,21.1,
6477247,-0.02,-0.06,0.99,1.34,4.88,0.55,949.62,21.09,
6477285,-0.02,-0.05,1.0,1.22,4.52,0.49,949.64,21.1,
6477323,-0.01,-0.04,1.06,1.1,4.09,0.55,949.59,21.1,
6477361,-0.01,-0.05,1.09,1.04,4.64,0.61,949.58,21.09,
6477400,-0.02,-0.04,1.14,0.98,4.52,0.55,949.64,21.1,
6477438,-0.02,-0.04,1.17,0.98,5.25,0.61,949.66,21.09,
6477476,-0.02,-0.03,1.19,1.16,4.76,0.49,949.63,21.1,
6477515,-0.02,-0.04,1.17,1.04,5.62,0.55,949.62,21.1,
6477553,-0.01,-0.03,1.16,0.55,6.23,0.55,949.58,21.09,
6477603,-0.01,-0.03,1.16,0.73,6.9,0.55,949.57,21.09,
6477641,-0.02,-0.04,1.14,0.49,6.65,0.67,949.63,21.09,
6477680,-0.02,-0.03,1.17,0.92,6.84,0.79,949.57,21.09,
6477718,-0.02,-0.04,1.15,1.4,6.96,0.49,949.59,21.09,
6477756,-0.02,-0.04,1.18,1.65,6.53,0.73,949.58,21.09,
6477795,-0.0,-0.04,1.16,1.95,6.65,0.73,949.54,21.1,
6477833,-0.01,-0.04,1.15,1.95,6.59,0.49,949.61,21.11,
6477871,-0.03,-0.03,1.08,1.89,6.59,0.92,949.56,21.1,
6477910,-0.02,-0.03,1.09,2.26,5.68,0.92,949.54,21.1,
6477948,-0.02,-0.04,1.06,2.26,5.98,0.73,949.55,21.11,
6478024,-0.01,-0.04,1.09,2.38,4.88,0.98,949.53,21.07,
6478063,-0.01,-0.04,1.11,2.75,4.33,0.73,949.56,21.09,
6478101,-0.01,-0.05,1.05,2.44,4.7,0.67,949.55,21.09,
6478191,-0.01,-0.05,0.98,2.14,3.91,0.67,949.55,21.06,
6478229,-0.01,-0.04,0.99,2.75,2.75,0.73,949.52,21.07,
6478267,-0.01,-0.05,0.96,2.62,2.99,0.49,949.52,21.06,
6478306,0.01,-0.06,0.95,2.87,2.32,0.43,949.56,21.09,
6478344,-0.01,-0.04,0.94,2.62,1.53,0.43,949.5,21.08,
6478382,-0.01,-0.06,0.96,2.81,1.4,0.37,949.51,21.08,
6478420,-0.0,-0.06,0.97,2.62,1.04,0.24,949.53,21.09,
6478470,-0.02,-0.06,0.98,2.62,0.24,0.24,949.51,21.08,
6478509,-0.01,-0.06,0.98,2.38,0.61,0.0,949.47,21.08,
6478547,-0.01,-0.06,0.97,2.01,0.43,0.18,949.43,21.08,
6478585,-0.01,-0.04,1.04,1.95,-0.31,0.0,949.45,21.07,
6478623,-0.02,-0.06,0.95,1.77,0.37,-0.06,949.45,21.09,
6478662,-0.01,-0.04,1.04,2.08,-0.73,-0.18,949.46,21.09,
6478700,0.0,-0.05,1.03,2.01,0.85,-0.18,949.46,21.09,
6478738,-0.01,-0.04,1.01,2.08,0.55,-0.31,949.44,21.09,
6478776,-0.03,-0.03,1.08,2.38,1.83,-0.49,949.38,21.1,
6478827,-0.02,-0.06,1.03,2.2,2.56,-0.79,949.47,21.08,
6478865,-0.01,-0.05,1.07,2.62,3.48,-0.85,949.4,21.1,
6478903,-0.01,-0.05,1.04,2.14,4.15,-1.1,949.39,21.09,
6478941,-0.02,-0.04,1.06,2.56,4.03,-1.22,949.36,21.09,
6478980,-0.02,-0.05,1.0,1.89,4.88,-1.28,949.44,21.1,
6479018,-0.02,-0.05,1.0,2.2,4.46,-0.98,949.4,21.09,
6479056,-0.01,-0.06,0.98,2.01,4.88,-1.28,949.41,21.1,
6479095,-0.02,-0.05,0.96,2.44,4.64,-1.34,949.41,21.1,
6479133,-0.02,-0.05,0.96,2.26,4.21,-1.16,949.4,21.1,
6479171,-0.01,-0.06,0.9,1.89,3.36,-1.34,949.37,21.1,
6479221,-0.02,-0.05,0.95,2.26,2.99,-1.22,949.31,21.1,
6479260,-0.0,-0.06,0.92,1.65,2.87,-1.28,949.33,21.1,
6479298,-0.02,-0.04,1.0,2.14,1.59,-1.28,949.38,21.11,
6479336,-0.03,-0.05,1.01,1.77,1.95,-1.1,949.31,21.09,
6479375,-0.03,-0.05,1.02,1.89,1.04,-1.22,949.31,21.1,
6479413,-0.03,-0.05,1.08,2.01,1.34,-1.28,949.33,21.1,
6479451,-0.04,-0.05,1.0,1.53,2.26,-0.92,949.29,21.11,
6479490,-0.04,-0.03,1.07,2.26,0.92,-1.04,949.3,21.11,
6479528,-0.03,-0.05,1.04,1.89,1.28,-0.92,949.26,21.1,
6479578,-0.04,-0.04,1.06,2.08,0.61,-0.79,949.23,21.1,
6479616,-0.03,-0.05,1.03,1.89,0.85,-0.55,949.24,21.1,
6479655,-0.04,-0.05,1.02,1.89,0.43,-0.73,949.26,21.11,
6479693,-0.03,-0.04,1.05,2.08,0.06,-0.73,949.22,21.1,
6479731,-0.03,-0.05,1.0,2.08,0.24,-0.43,949.22,21.11,
6479770,-0.03,-0.05,0.99,2.01,0.31,-0.61,949.21,21.11,
6479808,-0.04,-0.04,0.99,1.89,0.06,-0.43,949.25,21.1,
6479846,-0.04,-0.04,1.03,2.44,-0.31,-0.43,949.23,21.1,
6479885,-0.03,-0.05,0.95,2.26,0.49,-0.49,949.22,21.11,
6479935,-0.04,-0.05,0.96,2.69,-15.62,-0.31,949.14,21.09,
6479973,-0.03,-0.05,0.91,2.08,0.18,-0.18,949.11,21.08,
6480011,-0.05,-0.05,0.94,2.56,-0.37,-0.18,949.17,21.1,
6480050,-0.04,-0.05,0.9,2.08,0.0,-0.12,949.15,21.09,
6480088,-0.05,-0.05,0.92,2.87,-1.04,0.0,949.16,21.1,
6480126,-0.05,-0.06,0.86,2.38,-0.55,0.0,949.12,21.1,
6480165,-0.04,-0.05,0.89,2.69,-0.55,0.0,949.12,21.1,
6480203,-0.04,-0.06,0.82,2.93,0.92,0.0,949.12,21.1,
6480241,-0.07,-0.05,0.78,2.44,1.59,-0.06,949.12,21.1,
6480279,-0.04,-0.05,0.83,3.11,3.05,0.06,949.07,21.1,
6480330,-0.06,-0.06,0.82,2.2,3.54,0.37,949.08,21.09,
6480368,-0.07,-0.05,0.91,2.62,4.64,0.37,949.1,21.1,
6480406,-0.04,-0.06,0.91,1.59,5.43,0.43,949.01,21.1,
6480444,-0.05,-0.05,0.95,2.08,6.04,0.61,949.03,21.1,
6480483,-0.07,-0.06,0.95,1.71,6.59,0.79,949.08,21.11,
6480521,-0.07,-0.06,0.94,1.77,6.16,0.98,949.06,21.1,
6480559,-0.06,-0.04,0.96,1.59,6.23,1.04,949.07,21.1,
6480598,-0.06,-0.04,0.97,1.83,5.92,1.59,949.04,21.11,
6480636,-0.06,-0.05,0.94,1.89,5.74,1.77,948.98,21.09,
6480674,-0.06,-0.05,1.0,1.83,5.0,1.77,948.97,21.1,
6480724,-0.04,-0.05,1.0,1.53,4.7,2.2,948.95,21.09,
6480763,-0.05,-0.04,1.05,1.71,4.15,2.26,948.97,21.1,
6480801,-0.05,-0.03,1.02,1.22,3.72,2.81,949.0,21.1,
6480839,-0.05,-0.04,1.05,1.46,2.69,2.87,949.04,21.12,
6480878,-0.04,-0.05,1.03,1.1,2.14,3.23,949.01,21.11,
6480916,-0.04,-0.04,1.05,1.22,1.34,3.23,949.0,21.1,
6480954,-0.04,-0.03,1.02,0.73,0.73,3.66,949.01,21.1,
6480993,-0.05,-0.02,1.06,1.04,-0.06,3.72,948.97,21.11,
6481031,-0.03,-0.04,1.04,0.31,0.43,3.85,948.96,21.11,
6481107,-0.01,-0.04,1.09,-1.04,0.31,4.03,948.95,21.06,
6481145,-0.03,-0.04,1.1,-1.28,-0.73,4.09,948.97,21.1,
6481183,-0.02,-0.03,1.1,-1.53,-0.61,4.15,948.95,21.09,
6481273,-0.03,-0.04,1.11,-1.04,-0.61,4.15,948.93,21.06,
6481312,-0.03,-0.04,1.1,-0.67,0.0,4.27,948.97,21.08,
6481350,-0.03,-0.04,1.08,-0.49,0.06,4.15,948.98,21.08,
6481388,-0.02,-0.03,1.09,-0.24,0.06,4.09,948.97,21.08,
6481427,-0.03,-0.04,1.08,-0.18,1.1,4.21,948.96,21.09,
6481465,-0.02,-0.04,1.08,0.06,1.83,4.33,948.93,21.09,
6481503,-0.02,-0.03,1.12,0.37,2.5,4.03,948.95,21.09,
6481553,-0.04,-0.03,1.1,0.31,3.36,4.27,948.88,21.07,
6481592,-0.03,-0.03,1.14,0.37,4.58,4.33,948.89,21.09,
6481630,-0.01,-0.03,1.11,0.06,5.0,4.09,948.83,21.08,
6481668,-0.02,-0.03,1.12,0.18,4.52,4.27,948.92,21.09,
6481706,-0.0,-0.03,1.09,0.06,5.31,4.27,948.86,21.08,
6481745,-0.01,-0.02,1.11,0.18,4.33,4.21,948.89,21.1,
6481783,0.0,-0.03,1.13,0.0,4.64,4.58,948.86,21.09,
6481821,-0.02,-0.03,1.11,-0.06,4.09,4.52,948.88,21.1,
6481859,-0.02,-0.02,1.14,0.06,4.33,4.52,948.89,21.08,
6481909,-0.0,-0.02,1.16,0.06,4.09,4.27,948.93,21.09,
6481948,-0.0,-0.02,1.22,0.37,3.85,4.39,948.83,21.09,
6481986,0.0,-0.03,1.15,0.0,4.82,4.21,948.86,21.09,
6482024,-0.01,-0.02,1.2,0.24,4.64,4.39,948.86,21.09,
6482062,-0.02,-0.04,1.11,0.12,5.49,4.15,948.83,21.1,
6482101,-0.02,-0.03,1.11,0.49,4.58,3.85,948.81,21.09,
6482139,-0.01,-0.03,1.13,0.79,5.62,3.78,948.85,21.1,
6482178,0.0,-0.05,1.08,0.85,5.68,3.48,948.82,21.1,
6482216,-0.01,-0.03,1.11,1.16,5.8,3.66,948.8,21.1,
6482254,0.01,-0.03,1.08,1.04,7.08,3.36,948.78,21.11,
6482304,-0.01,-0.04,1.11,1.22,7.26,3.36,948.74,21.09,
6482342,-0.01,-0.03,1.13,1.16,7.14,3.23,948.75,21.09,
6482381,-0.04,-0.03,1.14,1.53,6.9,3.17,948.73,21.08,
6482419,-0.01,-0.04,1.11,1.28,7.45,3.11,948.7,21.1,
6482457,0.0,-0.03,1.13,1.77,6.59,2.99,948.67,21.1,
6482496,-0.02,-0.03,1.1,1.89,7.02,3.17,948.71,21.1,
6482534,-0.02,-0.05,1.07,1.89,6.41,3.05,948.67,21.11,
6482572,-0.01,-0.04,1.11,2.44,5.92,2.99,948.7,21.1,
6482611,-0.01,-0.04,1.06,2.38,5.07,3.05,948.64,21.11,
6482649,-0.0,-0.04,1.08,2.99,3.91,2.99,948.59,21.1,
6482699,-0.0,-0.04,1.03,2.81,3.85,2.75,948.64,21.1,
6482737,-0.01,-0.04,1.05,3.17,3.42,2.69,948.61,21.1,
6482776,-0.01,-0.04,1.03,3.05,3.11,2.81,948.56,21.1,
6482814,-0.02,-0.04,1.04,3.17,3.11,2.56,948.58,21.1,
6482852,-0.01,-0.04,1.03,2.69,3.3,2.56,948.58,21.11,
6482891,-0.02,-0.05,1.02,2.56,2.69,2.44,948.53,21.1,
6482929,-0.01,-0.04,1.02,2.38,2.38,2.2,948.57,21.11,
6482967,-0.01,-0.04,1.01,2.14,2.14,2.2,948.53,21.1,
6483006,-0.01,-0.05,1.0,1.95,2.44,2.26,948.57,21.11,
6483056,-0.02,-0.04,0.97,1.95,1.65,1.95,948.46,21.09,
6483094,-0.02,-0.05,0.92,1.46,1.83,1.95,948.43,21.1,
6483132,-0.01,-0.05,0.91,1.46,1.34,1.83,948.46,21.1,
6483171,-0.01,-0.04,0.94,1.46,1.04,1.83,948.39,21.1,
6483209,-0.02,-0.05,0.89,0.92,1.34,1.89,948.43,21.11,
6483247,-0.01,-0.04,0.9,0.92,0.61,1.71,948.44,21.11,
6483286,-0.02,-0.05,0.92,0.49,0.61,1.77,948.42,21.11,
6483324,-0.0,-0.05,0.94,0.31,0.37,1.83,948.44,21.11,
6483362,-0.01,-0.04,0.95,-0.06,0.18,1.77,948.37,21.11,
6483401,0.0,-0.04,0.96,-0.43,0.31,1.65,948.38,21.11,
6483450,-0.01,-0.04,1.0,-0.73,0.24,1.59,948.36,21.11,
6483489,-0.0,-0.04,1.03,-0.79,0.79,1.22,948.33,21.11,
6483527,-0.0,-0.03,1.04,-0.67,1.04,1.16,948.36,21.11,
6483565,-0.01,-0.03,1.04,-0.67,1.16,0.98,948.31,21.11,
6483604,-0.01,-0.03,1.03,-0.31,1.1,0.98,948.29,21.1,
6483642,-0.01,-0.03,1.03,-0.06,0.98,0.73,948.3,21.11,
6483680,-0.0,-0.03,1.03,0.18,1.1,0.67,948.28,21.11,
6483718,-0.02,-0.03,1.03,0.24,1.4,0.67,948.28,21.12,
6483757,-0.02,-0.03,1.04,0.37,1.53,0.49,948.25,21.11,
6483795,-0.01,-0.03,1.03,0.67,1.46,0.43,948.19,21.11,
6483845,-0.01,-0.03,1.03,0.73,1.28,0.31,948.24,21.11,
6483883,-0.01,-0.04,1.01,0.85,1.59,0.37,948.21,21.11,
6483922,-0.01,-0.03,0.99,0.92,1.34,0.37,948.16,21.11,
6483960,-0.02,-0.03,0.97,1.16,1.4,0.31,948.18,21.11,
6483998,-0.01,-0.03,0.95,1.34,1.53,0.37,948.15,21.11,
6484036,-0.01,-0.04,0.97,1.53,1.04,0.31,948.16,21.11,
6484075,-0.01,-0.04,0.94,1.65,1.28,0.12,948.14,21.11,
6484113,0.0,-0.03,0.96,1.59,0.73,0.18,948.17,21.1,
6484151,-0.0,-0.03,0.97,1.46,0.85,0.06,948.09,21.11,
6484227,-0.02,-0.03,0.99,1.28,0.92,0.18,948.06,21.09,
6484266,-0.01,-0.03,0.98,1.22,0.98,-0.12,948.08,21.09,
6484304,-0.01,-0.03,0.99,1.34,0.73,0.12,948.11,21.1,
6484395,-0.01,-0.03,1.0,1.46,0.43,-0.06,948.06,21.08,
6484433,-0.01,-0.03,0.98,1.59,0.61,-0.12,948.0,21.07,
6484472,-0.02,-0.03,0.99,1.65,0.73,-0.18,948.02,21.08,
6484510,-0.02,-0.03,1.0,1.46,0.61,-0.24,947.99,21.1,
6484548,-0.01,-0.03,1.0,1.77,0.43,-0.31,947.96,21.09,
6484587,-0.02,-0.03,1.0,1.65,0.67,-0.37,947.93,21.09,
6484625,-0.01,-0.03,1.01,1.34,1.28,-0.55,947.95,21.1,
6484675,-0.01,-0.02,1.05,1.53,1.22,-0.43,947.95,21.09,
6484713,-0.02,-0.03,1.02,1.59,1.28,-0.49,947.96,21.09,
6484751,-0.03,-0.03,1.01,1.77,1.16,-0.43,947.92,21.11,
6484789,-0.02,-0.04,0.99,2.01,1.65,-0.67,947.89,21.09,
6484828,-0.02,-0.04,0.98,2.32,0.92,-0.55,947.84,21.1,
6484866,-0.04,-0.02,0.94,2.26,0.92,-0.61,947.82,21.1,
6484904,-0.04,-0.02,0.91,2.14,1.34,-0.55,947.86,21.1,
6484942,-0.03,-0.04,0.95,2.26,2.44,-0.43,947.82,21.09,
6484981,-0.03,-0.04,0.96,2.01,2.87,-0.43,947.8,21.1,
6485031,-0.04,-0.04,1.0,2.26,2.99,-0.55,947.8,21.09,
6485069,-0.05,-0.03,0.96,2.38,4.39,-0.49,947.76,21.1,
6485107,-0.04,-0.03,0.95,2.56,4.76,-0.24,947.77,21.09,
6485145,-0.03,-0.04,0.89,2.08,5.68,-0.37,947.72,21.1,
6485184,-0.05,-0.02,0.95,2.56,5.19,-0.18,947.72,21.1,
6485222,-0.05,-0.04,0.93,2.26,6.04,0.06,947.7,21.11,
6485260,-0.03,-0.03,0.97,2.44,5.0,-0.12,947.69,21.1,
6485299,-0.05,-0.03,0.96,2.26,6.16,0.12,947.71,21.12,
6485337,-0.04,-0.04,0.96,2.62,6.16,0.18,947.75,21.12,
6485375,-0.05,-0.05,0.97,2.87,6.04,0.24,947.69,21.11,
6485425,-0.06,-0.05,0.92,2.93,6.23,0.43,947.66,21.09,
6485463,-0.04,-0.05,0.92,3.36,6.53,0.55,947.71,21.11,
6485502,-0.03,-0.05,0.84,3.17,6.41,0.67,947.6,21.1,
6485540,-0.04,-0.04,0.87,3.48,5.19,0.92,947.65,21.1,
6485578,-0.05,-0.08,0.84,3.36,5.74,1.04,947.71,21.1,
6485617,-0.01,-0.05,0.87,3.23,5.49,0.98,947.6,21.1,
6485655,-0.02,-0.05,0.89,3.36,4.76,1.22,947.6,21.11,
6485693,-0.04,-0.05,0.83,2.75,4.64,1.28,947.61,21.1,
6485731,-0.04,-0.04,0.87,2.69,3.42,1.46,947.54,21.11,
6485782,-0.03,-0.04,0.9,1.77,2.75,1.53,947.55,21.1,
6485820,-0.03,-0.04,0.9,1.59,2.32,1.46,947.52,21.1,
6485858,-0.03,-0.03,0.96,1.46,1.95,1.65,947.54,21.1,
6485897,-0.03,-0.04,0.99,1.1,2.69,1.77,947.53,21.1,
6485935,-0.04,-0.03,1.03,0.98,1.65,1.71,947.53,21.12,
6485973,-0.03,-0.04,1.04,1.1,2.38,1.65,947.52,21.11,
6486011,-0.04,-0.04,1.01,1.1,2.5,1.71,947.55,21.11,
6486050,-0.03,-0.03,1.04,1.46,2.62,1.83,947.48,21.11,
6486088,-0.01,-0.03,1.01,1.28,3.17,1.89,947.44,21.11,
6486126,-0.04,-0.03,0.97,1.59,2.99,1.77,947.52,21.12,
6486176,-0.03,-0.04,0.94,1.65,3.42,1.83,947.45,21.11,
6486215,-0.02,-0.03,0.97,1.59,2.26,1.77,947.42,21.11,
6486253,-0.02,-0.03,1.0,1.65,1.95,1.46,947.4,21.12,
6486291,-0.04,-0.03,0.99,1.22,2.01,1.53,947.41,21.12,
6486330,-0.03,-0.04,1.08,1.71,1.59,1.65,947.35,21.11,
6486368,-0.01,-0.04,1.07,1.22,0.98,1.46,947.37,21.11,
6486406,-0.04,-0.02,1.09,1.16,0.24,1.34,947.34,21.11,
6486444,-0.04,-0.03,1.07,1.28,0.49,1.46,947.26,21.11,
6486483,-0.04,-0.04,1.09,1.16,-0.24,1.4,947.3,21.11,
6486521,-0.04,-0.04,1.11,1.53,-2.01,1.59,947.2,21.13,
6486571,-0.03,-0.04,1.06,1.83,-3.91,2.01,947.2,21.1,
6486609,-0.06,-0.03,0.99,1.83,-5.43,2.14,947.08,21.11,
6486648,-0.09,-0.03,0.96,2.08,-7.69,2.56,947.02,21.11,
6486686,-0.08,-0.05,0.99,2.2,-8.61,2.81,946.99,21.11,
6486724,-0.07,-0.06,0.96,2.26,-9.34,2.93,946.95,21.12,
6486762,-0.1,-0.05,1.0,2.2,-10.8,3.3,946.93,21.12,
6486801,-0.09,-0.06,0.97,2.2,-11.05,3.6,946.85,21.13,
6486839,-0.09,-0.05,0.97,2.26,-12.08,4.03,946.83,21.11,
6486877,-0.09,-0.05,0.96,2.38,-12.57,4.27,946.85,21.11,
6486927,-0.1,-0.05,0.89,2.32,-12.94,4.7,946.89,21.11,
6486966,-0.08,-0.05,0.93,2.14,-12.51,5.0,946.81,21.11,
6487004,-0.07,-0.07,0.92,2.08,-12.39,5.19,946.84,21.11,
6487042,-0.09,-0.05,0.92,2.2,-12.94,5.43,946.85,21.11,
6487081,-0.08,-0.05,0.93,2.08,-12.45,6.04,946.84,21.11,
6487119,-0.07,-0.06,0.88,1.53,-12.57,6.1,946.83,21.12,
6487157,-0.09,-0.04,0.93,1.65,-13.49,6.41,946.83,21.11,
6487196,-0.08,-0.06,0.89,0.92,-13.49,6.65,946.78,21.11,
6487234,-0.07,-0.05,0.95,0.85,-14.4,6.71,946.81,21.12,
6487272,-0.07,-0.04,0.95,0.37,-13.61,6.96,946.81,21.1,
6487349,-0.06,-0.04,1.0,-0.12,-13.98,7.26,946.71,21.07,
6487387,-0.06,-0.04,1.01,-0.67,-14.1,7.26,946.74,21.09,
6487425,-0.07,-0.04,1.01,-1.04,-14.28,7.63,946.7,21.09,
6487515,-0.07,-0.03,1.04,-1.53,-14.34,7.75,946.72,21.05,
6487553,-0.07,-0.03,1.08,-1.65,-14.77,7.69,946.66,21.08,
6487592,-0.05,-0.03,1.1,-2.01,-14.47,7.81,946.65,21.08,
6487630,-0.05,-0.02,1.15,-2.08,-15.26,7.69,946.59,21.07,
6487669,-0.05,-0.02,1.14,-2.2,-15.2,7.75,946.64,21.07,
6487707,-0.06,-0.02,1.17,-2.26,-15.5,7.69,946.62,21.08,
6487757,-0.04,-0.02,1.18,-2.14,-15.08,7.51,946.56,21.09,
6487795,-0.05,-0.02,1.19,-2.44,-15.56,7.26,946.52,21.07,
6487834,-0.04,-0.01,1.19,-2.32,-15.5,7.32,946.55,21.08,
6487872,-0.05,-0.01,1.2,-2.38,-15.75,6.96,946.55,21.09,
6487910,-0.05,0.0,1.23,-2.14,-16.05,6.96,946.54,21.09,
6487949,-0.06,-0.0,1.24,-2.44,-16.24,6.96,946.5,21.09,
6487987,-0.05,-0.01,1.26,-2.01,-16.3,6.9,946.54,21.1,
6488025,-0.06,-0.01,1.22,-2.01,-16.72,6.59,946.52,21.1,
6488064,-0.04,-0.01,1.23,-2.01,-17.03,6.77,946.52,21.1,
6488114,-0.06,-0.0,1.2,-2.08,-16.36,6.59,946.53,21.09,
6488152,-0.05,-0.01,1.21,-2.14,-16.36,6.41,946.51,21.09,
6488190,-0.06,-0.0,1.2,-2.2,-15.56,6.16,946.47,21.1,
6488229,-0.07,-0.01,1.22,-1.95,-15.69,6.04,946.47,21.1,
6488267,-0.08,0.0,1.2,-2.62,-14.59,5.8,946.47,21.1,
6488305,-0.08,-0.01,1.21,-2.56,-13.67,5.92,946.48,21.1,
6488344,-0.08,-0.02,1.15,-2.99,-11.84,5.62,946.44,21.1,
6488382,-0.08,-0.02,1.16,-2.93,-11.66,5.8,946.45,21.11,
6488420,-0.07,-0.02,1.16,-2.87,-10.31,5.92,946.47,21.11,
6488470,-0.08,-0.02,1.12,-3.05,-10.07,5.98,946.43,21.1,
6488509,-0.08,-0.02,1.09,-3.42,-9.52,6.16,946.39,21.09,
6488547,-0.09,-0.03,1.06,-4.21,-9.28,6.23,946.45,21.09,
6488585,-0.08,-0.04,1.13,-4.27,-10.07,6.53,946.47,21.1,
6488623,-0.08,-0.04,1.13,-4.58,-8.85,6.41,946.54,21.1,
6488662,-0.08,-0.03,1.14,-4.52,-8.79,6.71,946.46,21.1,
6488700,-0.07,-0.04,1.09,-4.82,-9.16,6.71,946.46,21.1,
6488738,-0.11,-0.03,1.1,-4.88,-9.52,7.02,946.49,21.1,
6488777,-0.08,-0.04,1.11,-5.68,-8.73,7.32,946.48,21.11,
6488827,-0.1,-0.03,1.14,-5.62,-9.28,7.81,946.47,21.08,
6488865,-0.13,-0.02,1.09,-6.47,-8.91,8.36,946.4,21.08,
6488903,-0.09,-0.03,1.17,-5.98,-8.61,8.36,946.47,21.1,
6488942,-0.09,-0.03,1.11,-6.35,-6.59,8.42,946.49,21.11,
6488980,-0.08,-0.01,1.2,-5.98,-7.93,8.97,946.45,21.1,
6489018,-0.1,-0.02,1.18,-6.1,-6.41,9.4,946.47,21.1,
6489057,-0.09,-0.01,1.18,-6.1,-6.29,9.58,946.51,21.11,
6489095,-0.08,-0.01,1.22,-6.16,-4.52,9.64,946.45,21.09,
6489134,-0.06,-0.03,1.15,-6.53,-3.23,9.7,946.51,21.1,
6489172,-0.06,-0.01,1.14,-6.59,-1.95,9.64,946.47,21.1,
6489222,-0.06,0.0,1.15,-6.65,-0.24,9.77,946.49,21.1,
6489260,-0.03,-0.03,1.15,-6.65,0.73,9.89,946.51,21.1,
6489298,-0.04,-0.01,1.11,-6.59,1.71,9.77,946.45,21.1,
6489337,-0.06,-0.02,1.14,-6.53,2.93,9.83,946.47,21.11,
6489375,-0.02,-0.04,1.09,-6.96,4.03,10.13,946.47,21.1,
6489413,-0.03,-0.02,1.16,-6.77,3.54,10.25,946.44,21.1,
6489452,-0.05,-0.03,1.09,-7.32,5.0,10.5,946.44,21.1,
6489490,-0.05,-0.02,1.17,-7.26,3.97,10.68,946.36,21.1,
6489528,-0.05,-0.04,1.13,-7.57,4.88,10.99,946.41,21.11,
6489579,-0.07,-0.01,1.15,-7.81,3.85,11.35,946.37,21.09,
6489617,-0.03,-0.01,1.12,-8.48,4.82,11.54,946.39,21.09,
6489655,-0.02,-0.02,1.19,-8.24,2.93,11.6,946.4,21.09,
6489694,-0.04,-0.03,1.23,-8.42,2.32,12.08,946.44,21.09,
6489732,-0.06,-0.02,1.2,-8.79,2.87,12.21,946.41,21.09,
6489770,-0.04,0.0,1.25,-8.36,3.23,12.21,946.34,21.1,
6489808,-0.03,-0.01,1.23,-8.73,2.87,12.33,946.29,21.1,
6489847,-0.07,-0.0,1.23,-8.67,1.4,12.76,946.29,21.1,
6489885,-0.06,-0.01,1.21,-9.16,2.75,12.57,946.27,21.1,
6489935,-0.04,0.01,1.26,-8.61,1.95,12.94,946.27,21.09,
6489973,-0.05,0.0,1.24,-8.97,2.44,13.31,946.27,21.11,
6490012,-0.06,-0.01,1.26,-8.91,2.2,13.55,946.22,21.09,
6490050,-0.07,-0.0,1.27,-8.91,2.5,13.61,946.22,21.1,
6490088,-0.06,0.01,1.26,-8.85,2.32,13.98,946.25,21.1,
6490127,-0.05,0.02,1.27,-8.97,2.2,14.1,946.25,21.1,
6490165,-0.06,0.01,1.24,-8.91,1.89,14.34,946.19,21.1,
6490203,-0.05,-0.0,1.28,-8.91,2.26,14.53,946.21,21.1,
6490242,-0.04,0.0,1.23,-9.16,2.14,14.77,946.23,21.11,
6490280,-0.07,-0.03,1.24,-9.03,1.71,15.01,946.24,21.1,
6490356,-0.05,0.0,1.17,-9.58,2.01,15.2,946.24,21.07,
6490394,-0.05,-0.01,1.2,-9.16,2.75,15.44,946.23,21.09,
6490433,-0.05,-0.02,1.17,-9.58,3.3,15.32,946.22,21.09,
6490523,-0.03,-0.02,1.26,-10.13,4.64,15.69,946.17,21.05,
6490561,-0.04,-0.0,1.31,-10.56,6.16,15.32,946.24,21.08,
6490599,-0.02,0.01,1.32,-11.05,6.96,15.44,946.17,21.07,
6490637,-0.03,0.02,1.37,-11.47,7.02,15.62,946.15,21.07,
6490676,-0.03,0.01,1.36,-12.02,7.63,15.62,946.2,21.08,
6490714,-0.03,0.02,1.46,-12.21,7.39,15.38,946.21,21.08,
6490764,-0.01,0.03,1.46,-12.7,7.32,15.69,946.26,21.07,
6490803,-0.01,0.04,1.54,-12.45,6.59,15.93,946.3,21.09,
6490841,0.0,0.03,1.52,-12.76,7.08,15.93,946.28,21.09,
6490879,-0.0,0.03,1.52,-12.94,4.88,16.05,946.27,21.1,
6490918,-0.02,0.04,1.5,-13.18,4.58,16.3,946.32,21.1,
6490956,-0.03,0.03,1.48,-13.18,3.11,16.42,946.29,21.09,
6490994,-0.02,0.04,1.49,-13.49,2.26,16.6,946.31,21.09,
6491033,-0.01,0.04,1.5,-13.61,1.04,16.48,946.33,21.1,
6491071,-0.03,0.04,1.51,-13.43,0.31,16.66,946.31,21.09,
6491121,-0.02,0.04,1.47,-13.43,0.18,16.6,946.27,21.08,
6491159,-0.02,0.03,1.5,-13.12,0.12,16.48,946.27,21.09,
6491198,-0.04,0.04,1.51,-12.76,-0.31,16.54,946.26,21.1,
6491236,-0.05,0.04,1.44,-12.88,0.55,16.42,946.23,21.1,
6491274,-0.03,0.06,1.48,-12.88,0.79,16.05,946.23,21.11,
6491313,-0.01,0.05,1.45,-13.18,1.16,15.87,946.34,21.11,
6491351,-0.01,0.05,1.51,-13.06,0.55,15.69,946.29,21.1,
6491389,-0.0,0.06,1.52,-13.06,2.14,15.44,946.29,21.11,
6491427,-0.01,0.07,1.54,-12.88,1.4,15.38,946.25,21.1,
6491466,-0.02,0.07,1.54,-12.76,1.22,15.2,946.27,21.11,
6491516,-0.04,0.07,1.54,-12.51,1.34,15.01,946.3,21.09,
6491554,-0.01,0.07,1.55,-12.63,1.77,14.95,946.28,21.1,
6491593,-0.02,0.07,1.48,-12.76,1.1,14.83,946.27,21.09,
6491631,-0.04,0.08,1.47,-12.39,1.22,14.77,946.31,21.1,
6491669,-0.03,0.06,1.49,-12.15,0.31,15.08,946.24,21.1,
6491708,-0.04,0.06,1.47,-11.78,0.18,15.14,946.27,21.11,
6491746,-0.04,0.06,1.46,-11.54,-0.24,15.2,946.24,21.11,
6491784,-0.04,0.04,1.48,-10.99,0.24,15.32,946.26,21.11,
6491822,-0.04,0.05,1.43,-11.11,0.12,15.14,946.24,21.1,
6491873,-0.04,0.08,1.57,-10.62,-0.49,15.38,946.21,21.09,
6491911,-0.05,0.06,1.47,-10.38,-1.1,15.62,946.23,21.1,
6491949,-0.06,0.05,1.52,-10.13,-0.85,15.81,946.24,21.1,
6491988,-0.04,0.03,1.43,-10.07,0.49,15.81,946.21,21.1,
6492026,-0.04,0.04,1.43,-10.01,-0.43,15.81,946.2,21.1,
6492064,-0.06,0.04,1.4,-9.95,0.67,15.93,946.19,21.1,
6492103,-0.05,0.04,1.37,-10.07,0.79,15.62,946.19,21.1,
6492141,-0.03,0.03,1.41,-10.5,1.4,15.69,946.18,21.11,
6492179,-0.04,0.03,1.39,-10.74,1.28,15.81,946.22,21.11,
6492229,-0.04,0.03,1.42,-10.93,2.26,16.05,946.21,21.09,
6492268,-0.04,0.03,1.4,-10.93,2.5,15.93,946.22,21.1,
6492306,-0.03,0.03,1.43,-10.8,2.87,15.93,946.21,21.1,
6492344,-0.04,0.02,1.37,-11.05,2.69,16.3,946.22,21.11,
6492383,-0.03,0.03,1.39,-10.99,2.2,16.11,946.24,21.12,
6492421,-0.03,0.02,1.36,-11.05,2.75,15.99,946.25,21.11,
6492460,-0.03,0.03,1.35,-11.11,2.81,16.3,946.25,21.1,
6492498,-0.02,0.03,1.39,-11.05,2.26,16.3,946.24,21.1,
6492536,-0.02,0.01,1.35,-10.99,3.17,16.24,946.26,21.1,
6492586,-0.02,0.03,1.39,-11.05,3.17,16.3,946.29,21.09,
6492625,-0.0,0.02,1.37,-11.05,3.3,16.36,946.31,21.1,
6492663,-0.02,0.02,1.35,-10.93,2.5,16.05,946.28,21.11,
6492701,-0.01,0.01,1.35,-11.11,3.05,16.24,946.26,21.1,
6492740,-0.0,0.01,1.34,-10.99,2.69,15.99,946.27,21.11,
6492778,-0.0,0.02,1.3,-11.29,2.38,15.99,946.29,21.11,
6492817,-0.01,0.02,1.3,-11.84,1.71,16.05,946.21,21.11,
6492855,0.01,0.02,1.33,-11.9,1.28,16.05,946.25,21.11,
6492893,-0.0,0.02,1.31,-12.15,1.34,16.05,946.26,21.1,
6492932,0.0,0.03,1.37,-11.96,0.98,15.87,946.23,21.11,
6492982,-0.0,0.02,1.39,-11.96,2.01,15.75,946.23,21.1,
6493020,-0.0,0.04,1.45,-11.84,2.38,15.32,946.25,21.11,
6493058,-0.0,0.03,1.44,-11.78,3.23,14.95,946.24,21.1,
6493097,-0.01,0.03,1.44,-11.96,2.26,15.2,946.19,21.1,
6493135,0.0,0.04,1.47,-12.33,2.99,15.08,946.21,21.11,
6493173,0.0,0.04,1.46,-12.39,3.78,14.71,946.21,21.1,
6493212,0.0,0.03,1.48,-12.08,4.33,14.71,946.17,21.09,
6493250,0.0,0.03,1.47,-12.21,4.09,14.71,946.22,21.1,
6493289,-0.01,0.03,1.49,-12.33,3.85,14.59,946.23,21.11,
6493365,0.0,0.03,1.49,-12.27,3.6,14.53,946.24,21.08,
6493403,-0.01,0.03,1.49,-12.15,3.48,14.71,946.25,21.09,
6493441,-0.02,0.03,1.47,-12.15,3.3,14.47,946.24,21.1,
6493531,-0.01,0.03,1.5,-12.15,1.77,14.59,946.28,21.07,
6493570,-0.01,0.02,1.48,-12.15,2.14,14.53,946.24,21.07,
6493608,-0.01,0.03,1.53,-11.96,1.22,14.47,946.26,21.08,
6493646,-0.01,0.02,1.5,-12.21,1.53,14.59,946.26,21.08,
6493685,-0.03,0.04,1.48,-12.15,1.16,14.28,946.29,21.09,
6493723,-0.02,0.02,1.51,-11.72,1.4,14.47,946.24,21.08,
6493761,-0.02,0.01,1.45,-11.96,1.04,14.34,946.23,21.09,
6493811,-0.04,0.03,1.43,-12.33,0.12,14.59,946.29,21.09,
6493850,-0.03,0.03,1.44,-12.88,0.55,14.83,946.2,21.1,
6493888,-0.01,0.03,1.49,-12.82,0.31,14.77,946.21,21.09,
6493927,-0.02,0.03,1.5,-12.76,0.85,14.65,946.19,21.09,
6493965,-0.03,0.02,1.5,-12.76,1.46,14.77,946.26,21.09,
6494003,-0.02,0.05,1.53,-12.7,1.77,14.83,946.28,21.1,
6494042,-0.01,0.05,1.55,-12.76,1.77,14.59,946.25,21.1,
6494080,-0.02,0.03,1.56,-12.39,1.34,14.83,946.33,21.1,
6494118,-0.02,0.03,1.51,-12.63,0.85,14.89,946.24,21.1,
6494168,-0.01,0.05,1.52,-12.33,0.24,15.08,946.27,21.09,
6494207,-0.0,0.05,1.5,-12.33,-0.79,15.14,946.28,21.09,
6494245,-0.01,0.04,1.53,-12.15,-1.59,15.26,946.25,21.1,
6494283,-0.02,0.03,1.49,-12.21,-1.95,15.26,946.28,21.1,
6494322,-0.02,0.04,1.52,-12.27,-2.5,15.14,946.3,21.1,
6494360,-0.02,0.05,1.5,-11.96,-2.81,15.26,946.27,21.1,
6494399,-0.01,0.04,1.48,-11.9,-3.36,15.26,946.29,21.11,
6494437,-0.02,0.03,1.49,-11.84,-3.6,15.26,946.26,21.1,
6494475,-0.01,0.03,1.43,-11.84,-3.97,15.5,946.29,21.1,
6494525,-0.02,0.04,1.43,-11.35,-4.7,15.44,946.3,21.1,
6494564,-0.01,0.04,1.4,-11.41,-4.82,15.26,946.34,21.11,
6494602,-0.03,0.04,1.45,-11.17,-6.1,15.62,946.33,21.11,
6494640,-0.02,0.02,1.42,-11.35,-6.1,15.75,946.25,21.1,
6494679,-0.02,0.03,1.42,-11.05,-6.84,15.75,946.33,21.1,
6494717,-0.04,0.04,1.41,-11.35,-6.84,15.99,946.27,21.1,
6494755,-0.02,0.04,1.38,-11.29,-6.9,16.11,946.3,21.1,
6494794,-0.0,0.02,1.38,-11.23,-6.77,15.93,946.26,21.1,
6494832,-0.01,0.02,1.32,-11.41,-6.47,16.05,946.27,21.1,
6494882,-0.02,0.03,1.32,-11.41,-6.29,15.99,946.33,21.1,
6494921,-0.02,0.02,1.28,-11.23,-5.8,15.93,946.32,21.1,
6494959,-0.03,0.02,1.29,-11.29,-5.37,16.11,946.34,21.1,
6494997,-0.03,0.02,1.29,-11.47,-4.39,15.99,946.39,21.1,
6495036,-0.03,0.02,1.26,-11.23,-4.03,16.11,946.39,21.1,
6495074,-0.01,0.02,1.27,-11.23,-3.11,15.93,946.34,21.1,
6495112,-0.01,0.02,1.25,-11.54,-3.05,16.11,946.35,21.1,
6495151,-0.01,0.02,1.23,-12.08,-2.08,16.17,946.29,21.11,
6495189,-0.02,0.02,1.2,-12.7,-1.28,16.24,946.34,21.1,
6495239,-0.02,0.01,1.21,-13.12,-0.73,15.99,946.42,21.1,
6495277,-0.01,0.01,1.19,-13.85,0.43,15.75,946.36,21.1,
6495316,0.01,0.01,1.21,-13.92,1.1,15.62,946.32,21.1,
6495354,0.02,0.01,1.2,-14.53,2.01,15.44,946.31,21.1,
6495392,-0.0,0.02,1.21,-14.71,2.08,15.38,946.37,21.1,
6495431,-0.0,0.02,1.22,-14.83,3.05,15.44,946.34,21.11,
6495469,0.0,0.01,1.24,-15.2,3.91,15.08,946.38,21.11,
6495507,0.0,0.02,1.26,-15.32,4.09,15.01,946.31,21.1,
6495545,-0.01,0.03,1.27,-15.32,4.76,14.71,946.41,21.11,
6495584,-0.0,0.03,1.27,-15.56,5.37,14.77,946.36,21.11,
6495634,0.0,0.02,1.29,-15.44,7.02,14.47,946.38,21.09,
6495672,-0.01,0.03,1.3,-15.38,7.32,14.28,946.42,21.1,
6495710,-0.01,0.03,1.3,-15.5,8.24,14.28,946.44,21.09,
6495749,0.01,0.04,1.35,-15.5,9.09,14.04,946.43,21.11,
6495787,-0.0,0.04,1.36,-15.44,9.46,14.04,946.43,21.11,
6495825,0.0,0.05,1.4,-15.2,9.46,14.1,946.42,21.1,
6495864,-0.01,0.04,1.41,-15.08,11.29,13.92,946.47,21.11,
6495902,0.0,0.06,1.44,-14.83,10.74,13.61,946.49,21.1,
6495941,-0.01,0.06,1.48,-14.47,10.8,13.61,946.49,21.1,
6495991,-0.03,0.07,1.47,-14.16,10.99,13.73,946.52,21.09,
6496029,-0.02,0.08,1.52,-14.1,11.66,13.73,946.51,21.11,
6496067,-0.0,0.07,1.55,-13.67,11.29,13.85,946.6,21.1,
6496106,-0.01,0.07,1.56,-13.43,11.11,13.79,946.56,21.1,
6496144,-0.03,0.08,1.55,-13.43,11.84,13.98,946.58,21.11,
6496182,-0.01,0.09,1.59,-12.82,12.57,13.85,946.55,21.1,
6496221,-0.01,0.09,1.56,-12.76,12.76,13.98,946.58,21.1,
6496259,-0.02,0.1,1.59,-12.51,12.76,14.16,946.63,21.11,
6496297,-0.01,0.09,1.61,-12.27,13.18,14.1,946.63,21.11,
6496373,-0.02,0.1,1.64,-11.6,13.67,14.53,946.63,21.08,
6496412,-0.02,0.11,1.65,-11.66,13.92,14.47,946.64,21.11,
6496450,-0.03,0.12,1.67,-11.29,14.28,14.65,946.69,21.11,
6496540,-0.01,0.12,1.68,-10.56,13.98,15.32,946.68,21.05,
6496579,-0.03,0.11,1.66,-10.38,13.43,15.75,946.78,21.09,
6496617,-0.03,0.12,1.69,-9.83,12.82,16.24,946.76,21.09,
6496655,-0.02,0.1,1.67,-9.4,12.45,16.72,946.79,21.09,
6496694,-0.03,0.1,1.66,-8.73,12.33,16.85,946.85,21.1,
6496732,-0.03,0.08,1.62,-8.61,12.27,17.09,946.83,21.09,
6496782,-0.03,0.08,1.6,-8.24,11.72,17.7,946.87,21.09,
6496820,-0.04,0.1,1.65,-8.06,10.38,17.94,946.88,21.09,
6496859,-0.0,0.09,1.68,-8.0,9.58,18.19,946.91,21.09,
6496897,-0.0,0.07,1.64,-8.61,7.45,18.37,947.0,21.09,
6496936,-0.02,0.06,1.65,-8.67,7.26,18.37,947.06,21.1,
6496974,0.0,0.04,1.56,-8.97,7.08,18.37,947.12,21.1,
6497012,0.01,0.06,1.58,-9.34,5.31,18.43,947.1,21.1,
6497051,0.02,0.06,1.56,-9.16,3.97,18.07,947.16,21.11,
6497089,0.0,0.04,1.53,-9.28,3.97,17.88,947.23,21.11,
6497127,0.01,0.03,1.49,-9.58,3.36,17.58,947.16,21.11,
6497177,0.03,0.05,1.58,-9.7,2.75,16.91,947.18,21.09,
6497216,-0.01,0.06,1.52,-10.01,2.44,16.72,947.16,21.11,
6497254,0.01,0.06,1.61,-10.13,1.83,16.6,947.14,21.11,
6497292,0.03,0.04,1.6,-10.13,2.01,15.99,947.18,21.11,
6497331,0.0,0.06,1.64,-10.25,0.55,15.81,947.21,21.1,
6497369,0.0,0.08,1.64,-10.38,0.49,15.38,947.17,21.1,
6497407,0.02,0.1,1.72,-10.5,0.18,15.01,947.19,21.1,
6497446,0.01,0.08,1.7,-10.68,-0.12,14.89,947.17,21.11,
6497484,0.0,0.09,1.77,-10.5,-2.2,14.77,947.18,21.11,
6497534,-0.0,0.07,1.78,-10.07,-2.99,14.34,947.2,21.1,
6497572,0.01,0.08,1.82,-9.95,-4.33,14.28,947.25,21.1,
6497611,-0.0,0.05,1.72,-9.58,-3.48,13.92,947.24,21.09,
6497649,-0.01,0.06,1.66,-9.03,-4.09,13.49,947.22,21.1,
6497687,0.0,0.06,1.64,-9.16,-3.91,13.06,947.23,21.1,
6497725,-0.01,0.05,1.62,-8.97,-4.33,12.82,947.16,21.1,
6497764,-0.02,0.04,1.64,-8.73,-4.33,12.51,947.21,21.11,
6497802,-0.01,0.04,1.62,-8.67,-3.23,12.08,947.2,21.11,
6497841,-0.01,0.05,1.64,-8.85,-3.36,11.72,947.24,21.1,
6497879,0.0,0.04,1.66,-9.09,-3.6,11.66,947.21,21.1,
6497929,-0.03,0.03,1.65,-9.16,-3.42,11.54,947.18,21.09,
6497967,-0.03,0.03,1.65,-9.16,-3.48,11.54,947.15,21.1,
6498006,-0.03,0.03,1.58,-8.79,-3.6,11.66,947.2,21.11,
6498044,-0.02,0.03,1.58,-8.85,-4.58,11.54,947.18,21.1,
6498082,-0.03,0.02,1.56,-8.91,-3.48,11.11,947.18,21.12,
6498121,-0.04,0.02,1.55,-9.03,-2.87,10.93,947.22,21.1,
6498159,-0.01,0.02,1.55,-9.52,-2.5,10.8,947.16,21.1,
6498197,-0.03,0.02,1.54,-9.64,-2.26,10.56,947.22,21.11,
6498236,-0.04,0.02,1.55,-10.01,-1.34,10.56,947.22,21.11,
6498286,-0.0,0.03,1.53,-10.44,-0.55,10.5,947.13,21.09,
6498324,-0.03,0.04,1.58,-10.38,-1.22,10.62,947.22,21.11,
6498362,-0.04,0.03,1.54,-10.56,-0.73,10.68,947.14,21.1,
6498401,-0.03,0.02,1.58,-10.44,-0.85,10.62,947.21,21.1,
6498439,-0.04,0.02,1.58,-10.38,-0.79,10.62,947.21,21.11,
6498477,-0.04,0.02,1.54,-10.19,-1.16,10.62,947.18,21.1,
6498516,-0.05,0.02,1.54,-10.25,-0.61,10.62,947.18,21.1,
6498554,-0.01,0.03,1.53,-10.19,-0.61,10.68,947.19,21.1,
6498592,-0.03,0.02,1.51,-10.19,-0.92,10.62,947.22,21.11,
6498643,-0.05,0.02,1.52,-10.13,-0.18,10.68,947.18,21.09,
6498681,-0.02,0.03,1.57,-10.13,0.12,10.8,947.14,21.1,
6498719,-0.03,0.02,1.56,-9.95,-0.55,10.93,947.2,21.1,
6498758,-0.05,0.03,1.58,-9.89,-0.49,11.05,947.15,21.11,
6498796,-0.03,0.01,1.56,-9.83,1.04,10.86,947.16,21.11,
6498834,-0.03,0.01,1.52,-9.64,1.77,10.74,947.16,21.1,
6498873,-0.03,0.03,1.52,-9.22,1.22,10.8,947.17,21.1,
6498911,-0.05,0.02,1.47,-9.34,2.14,10.68,947.15,21.1,
6498949,-0.04,0.03,1.52,-8.85,2.38,10.56,947.13,21.11,
6498999,-0.02,0.0,1.51,-9.09,3.11,10.62,947.08,21.1,
6499038,-0.06,0.01,1.55,-9.09,2.2,10.86,947.1,21.1,
6499076,-0.04,0.01,1.5,-9.28,3.17,11.11,947.12,21.09,
6499114,-0.03,0.01,1.56,-8.85,3.23,11.11,947.1,21.11,
6499153,-0.03,-0.01,1.47,-9.09,3.66,11.35,947.03,21.1,
6499191,-0.05,0.01,1.49,-9.03,2.5,11.47,947.04,21.11,
6499229,-0.04,0.01,1.5,-8.91,4.09,11.54,947.1,21.1,
6499268,-0.04,0.01,1.48,-9.16,3.17,11.66,947.1,21.11,
6499306,-0.03,0.02,1.55,-9.34,2.2,12.02,947.0,21.1,
6499344,-0.04,0.01,1.54,-9.34,2.2,11.96,947.03,21.11,
6499420,-0.02,0.03,1.59,-9.77,2.44,12.21,946.99,21.06,
6499459,-0.03,0.02,1.59,-9.95,2.08,12.45,947.02,21.1,
6499497,-0.03,0.02,1.54,-10.13,2.75,12.7,947.02,21.1,
6499587,-0.03,0.01,1.49,-10.13,1.1,12.76,946.97,21.06,
6499625,-0.01,0.02,1.59,-9.58,0.49,12.63,947.02,21.07,
6499664,0.0,-0.01,1.52,-9.64,2.01,12.63,946.99,21.08,
6499702,-0.0,0.01,1.55,-9.58,0.37,12.51,946.98,21.07,
6499740,-0.03,-0.01,1.49,-9.28,1.83,12.45,947.0,21.08,
6499779,-0.01,-0.0,1.44,-9.52,1.65,12.33,946.95,21.08,
6499829,-0.0,0.01,1.46,-9.58,2.08,11.96,946.92,21.08,
6499867,-0.01,-0.0,1.41,-9.58,3.11,11.96,946.97,21.09,
6499905,-0.01,0.02,1.46,-9.89,2.93,11.66,946.92,21.09,
6499944,-0.03,0.03,1.51,-9.89,3.66,11.47,946.86,21.08,
6499982,-0.0,0.02,1.53,-9.64,4.03,11.41,946.86,21.1,
6500020,-0.01,0.03,1.57,-9.58,3.72,11.72,946.93,21.1,
6500059,-0.0,0.04,1.58,-9.28,2.87,11.41,946.95,21.1,
6500097,-0.05,0.03,1.53,-9.16,2.2,11.84,946.86,21.08,
6500135,-0.02,0.02,1.5,-9.16,2.93,11.9,946.85,21.09,
6500173,-0.02,0.03,1.5,-8.91,3.05,11.9,946.87,21.1,
6500223,-0.03,0.03,1.55,-8.36,2.87,11.96,946.85,21.08,
6500262,-0.01,0.01,1.47,-8.3,3.6,12.02,946.81,21.09,
6500300,-0.02,0.03,1.54,-7.75,3.85,11.84,946.86,21.09,
6500338,-0.03,0.02,1.46,-7.81,4.15,11.9,946.82,21.09,
6500377,-0.02,0.04,1.47,-7.93,3.05,12.08,946.83,21.09,
6500415,0.01,0.03,1.47,-7.51,3.91,11.96,946.78,21.09,
6500453,-0.02,0.01,1.41,-7.75,3.42,12.08,946.8,21.1,
6500492,-0.02,0.01,1.4,-7.63,2.62,12.33,946.8,21.09,
6500530,-0.01,0.01,1.38,-7.63,2.93,12.27,946.78,21.1,
6500580,0.0,0.01,1.34,-7.57,3.05,12.27,946.73,21.09,
6500618,-0.01,0.01,1.34,-7.51,1.83,12.45,946.73,21.09,
6500657,-0.01,0.01,1.36,-7.26,2.01,12.39,946.71,21.09,
6500695,-0.02,0.0,1.35,-7.2,1.71,12.45,946.69,21.09,
6500733,-0.02,0.02,1.42,-6.96,1.46,12.51,946.75,21.1,
6500772,-0.01,0.01,1.43,-6.96,1.22,12.33,946.76,21.1,
6500810,-0.0,-0.01,1.35,-7.14,1.53,12.27,946.73,21.09,
6500848,-0.02,-0.02,1.26,-7.2,1.95,12.45,946.75,21.09,
6500887,-0.0,-0.02,1.22,-6.71,1.95,12.15,946.78,21.1,
6500925,-0.01,-0.04,1.1,-6.9,2.93,12.08,946.72,21.09,
6500975,-0.02,-0.02,1.14,-5.86,1.77,12.02,946.66,21.09,
6501013,-0.01,-0.05,1.03,-6.47,3.05,12.15,946.68,21.09,
6501052,-0.01,-0.03,1.11,-6.1,2.08,12.02,946.72,21.09,
6501090,-0.01,-0.04,1.08,-6.71,3.72,12.27,946.7,21.1,
6501128,-0.01,-0.06,1.08,-6.47,2.99,12.08,946.66,21.08,
6501167,-0.01,-0.05,1.03,-6.9,3.91,12.27,946.69,21.1,
6501205,-0.01,-0.03,1.0,-6.47,3.36,12.08,946.64,21.11,
6501243,-0.01,-0.04,0.98,-6.53,2.56,12.27,946.58,21.09,
6501281,0.01,-0.04,1.02,-6.71,2.01,12.27,946.64,21.11,
6501332,-0.0,-0.04,1.03,-7.32,2.62,12.45,946.62,21.1,
6501370,-0.01,-0.04,1.04,-7.51,2.2,12.76,946.64,21.1,
6501408,-0.03,-0.04,1.07,-8.06,0.85,12.51,946.49,21.09,
6501446,-0.0,-0.03,1.13,-8.06,1.22,12.45,946.6,21.11,
6501485,0.01,-0.03,1.14,-7.93,1.53,12.27,946.6,21.09,
6501523,0.02,-0.03,1.14,-7.87,1.77,12.27,946.56,21.11,
6501561,0.0,-0.02,1.14,-7.75,1.77,12.21,946.56,21.1,
6501600,-0.02,-0.02,1.14,-7.87,2.87,12.27,946.56,21.1,
6501638,0.01,-0.02,1.18,-8.0,4.03,11.96,946.59,21.11,
6501688,-0.0,-0.01,1.28,-7.93,3.66,11.78,946.53,21.08,
6501726,-0.01,-0.01,1.29,-8.0,2.93,11.66,946.49,21.1,
6501765,-0.0,-0.0,1.31,-8.06,4.03,11.54,946.5,21.1,
6501803,0.0,0.01,1.38,-7.81,4.33,11.41,946.54,21.1,
6501841,-0.01,0.0,1.35,-7.87,4.09,11.66,946.52,21.11,
6501880,-0.04,0.01,1.4,-7.45,3.17,11.47,946.53,21.11,
6501918,-0.03,-0.0,1.36,-7.14,4.88,11.47,946.47,21.11,
6501956,-0.0,0.01,1.36,-7.26,4.15,11.41,946.51,21.09,
6501994,-0.02,0.03,1.41,-6.9,3.85,11.66,946.47,21.1,
6502033,-0.03,0.01,1.34,-6.9,4.21,11.66,946.46,21.1,
6502083,-0.03,0.03,1.5,-6.59,4.94,11.6,946.45,21.1,
6502121,-0.0,0.03,1.5,-6.53,5.07,11.9,946.45,21.11,
6502159,-0.02,0.05,1.52,-6.41,4.03,11.84,946.43,21.11,
6502198,-0.03,0.05,1.52,-6.65,3.72,11.84,946.39,21.1,
6502236,-0.02,0.04,1.56,-6.41,2.93,11.84,946.44,21.1,
6502274,-0.02,0.06,1.61,-6.1,2.93,12.21,946.4,21.1,
6502312,-0.03,0.04,1.53,-5.8,2.2,12.27,946.46,21.12,
6502351,-0.03,0.04,1.54,-5.62,1.4,12.15,946.46,21.11,
6502389,-0.04,0.04,1.5,-5.62,1.1,12.27,946.44,21.11,
6502465,-0.03,0.02,1.42,-5.74,0.31,12.27,946.42,21.09,
6502503,-0.04,0.02,1.39,-5.62,0.73,12.45,946.4,21.1,
6502542,-0.01,0.01,1.38,-5.49,1.04,12.7,946.44,21.11,
6502632,-0.04,-0.01,1.32,-5.55,0.79,12.7,946.45,21.07,
6502670,-0.02,-0.01,1.31,-5.25,1.71,12.45,946.44,21.09,
6502708,-0.02,-0.0,1.26,-5.19,0.73,12.7,946.45,21.08,
6502747,-0.04,-0.01,1.25,-4.88,0.85,12.94,946.4,21.1,
6502785,-0.02,-0.02,1.22,-5.07,1.65,13.0,946.39,21.09,
6502823,-0.02,-0.01,1.24,-5.19,1.4,12.94,946.4,21.09,
6502862,-0.04,-0.02,1.21,-5.31,2.14,13.12,946.44,21.1,
6502912,-0.02,-0.03,1.19,-5.25,2.81,13.24,946.37,21.09,
6502950,-0.02,-0.03,1.16,-5.68,2.5,13.0,946.41,21.09,
6502989,-0.03,-0.02,1.14,-5.68,2.14,13.55,946.35,21.08,
6503027,-0.02,-0.03,1.11,-6.04,2.44,13.37,946.37,21.11,
6503065,-0.01,-0.03,1.1,-6.1,2.26,13.43,946.36,21.1,
6503104,-0.02,-0.03,1.1,-6.53,2.08,13.37,946.37,21.11,
6503142,-0.03,-0.04,1.06,-6.84,2.32,13.43,946.38,21.11,
6503180,-0.03,-0.03,1.08,-6.84,2.32,13.24,946.36,21.11,
6503219,-0.01,-0.03,1.1,-7.2,2.32,13.61,946.34,21.1,
6503269,-0.02,-0.03,1.12,-7.2,2.93,13.49,946.36,21.11,
6503307,-0.04,-0.02,1.14,-7.39,3.91,13.37,946.33,21.1,
6503345,-0.01,-0.03,1.19,-7.45,4.7,13.12,946.27,21.1,
6503384,-0.02,-0.03,1.2,-7.45,4.82,13.06,946.32,21.11,
6503422,-0.02,-0.03,1.21,-7.2,5.07,13.06,946.32,21.11,
6503460,-0.02,-0.03,1.2,-7.14,5.68,13.12,946.37,21.11,
6503499,-0.02,-0.02,1.17,-7.02,6.35,12.94,946.32,21.11,
6503537,-0.02,-0.03,1.18,-6.84,6.96,13.0,946.33,21.1,
6503575,-0.02,-0.03,1.14,-6.77,7.2,12.82,946.27,21.09,
6503626,-0.02,-0.03,1.14,-6.65,7.57,12.82,946.3,21.1,
6503664,-0.0,-0.03,1.12,-6.77,8.67,12.7,946.28,21.1,
6503702,-0.01,-0.03,1.18,-6.59,8.54,12.76,946.31,21.09,
6503741,-0.02,-0.04,1.14,-6.96,9.64,12.76,946.3,21.1,
6503779,-0.01,-0.02,1.2,-6.84,9.03,12.57,946.34,21.11,
6503817,-0.0,-0.03,1.22,-7.2,9.77,12.51,946.3,21.1,
6503856,-0.01,-0.03,1.2,-7.32,8.61,12.88,946.26,21.11,
6503894,-0.01,-0.02,1.21,-7.2,8.24,12.88,946.31,21.1,
6503932,-0.01,-0.02,1.18,-7.14,7.57,12.76,946.35,21.11,
6503971,0.01,-0.02,1.17,-7.32,7.08,12.88,946.37,21.11,
6504021,0.01,-0.02,1.19,-7.14,5.68,12.82,946.31,21.1,
6504059,-0.0,-0.03,1.19,-7.51,6.29,12.7,946.31,21.11,
6504097,-0.02,-0.03,1.23,-7.39,5.31,12.82,946.35,21.1,
6504136,0.0,-0.02,1.27,-7.63,4.7,12.7,946.35,21.11,
6504174,0.01,-0.02,1.31,-7.39,3.72,12.63,946.34,21.11,
6504212,0.0,-0.02,1.25,-7.93,3.3,12.88,946.28,21.11,
6504251,0.02,-0.02,1.32,-7.87,1.65,12.7,946.34,21.1,
6504289,0.02,-0.03,1.24,-8.18,0.67,12.7,946.31,21.11,
6504327,0.01,-0.04,1.27,-7.57,-1.22,12.63,946.37,21.1,
6504377,0.01,-0.04,1.19,-7.45,-0.55,12.33,946.39,21.1,
6504416,-0.01,-0.02,1.19,-7.08,-0.98,12.15,946.37,21.1,
6504454,0.01,-0.04,1.16,-6.96,-0.06,11.84,946.3,21.1,
6504492,0.02,-0.04,1.18,-6.9,0.55,11.54,946.36,21.11,
6504531,0.01,-0.03,1.19,-7.2,1.83,11.6,946.32,21.09,
6504569,-0.01,-0.03,1.2,-7.02,2.01,11.35,946.33,21.11,
6504608,-0.01,-0.02,1.3,-7.26,0.98,11.23,946.29,21.11,
6504646,0.0,-0.02,1.34,-7.32,0.73,11.35,946.33,21.12,
6504684,-0.02,-0.01,1.38,-7.51,-0.43,11.35,946.32,21.12,
6504734,-0.0,-0.01,1.44,-7.57,0.37,11.41,946.28,21.09,
6504773,-0.02,-0.01,1.44,-7.75,-0.06,11.41,946.34,21.1,
6504811,-0.0,0.0,1.46,-7.75,0.67,11.23,946.31,21.1,
6504849,-0.0,0.01,1.44,-7.87,2.26,10.93,946.32,21.11,
6504888,0.01,0.01,1.44,-7.51,2.81,10.86,946.3,21.11,
6504926,0.01,0.0,1.47,-6.96,3.11,10.62,946.36,21.11,
6504964,-0.01,-0.0,1.48,-6.59,4.09,10.31,946.34,21.11,
6505003,0.01,0.0,1.52,-6.16,4.82,10.13,946.3,21.12,
6505041,0.0,-0.01,1.48,-6.1,5.0,10.25,946.32,21.11,
6505079,0.0,-0.0,1.46,-5.86,4.7,9.95,946.3,21.1,
6505129,-0.01,-0.02,1.4,-5.37,6.23,9.83,946.27,21.1,
6505167,0.02,-0.02,1.36,-5.07,5.98,9.83,946.29,21.1,
6505206,0.0,-0.02,1.36,-4.94,6.23,9.46,946.34,21.1,
6505244,-0.01,-0.03,1.29,-4.39,6.71,9.52,946.35,21.1,
6505282,0.0,-0.03,1.32,-4.21,6.77,9.34,946.36,21.11,
6505321,0.01,-0.04,1.29,-4.03,6.71,9.22,946.42,21.12,
6505359,0.0,-0.04,1.27,-4.21,5.92,9.28,946.35,21.11,
6505397,0.0,-0.04,1.25,-4.09,6.35,9.22,946.38,21.11,
6505436,0.01,-0.04,1.22,-4.82,5.68,9.16,946.36,21.11,
6505474,-0.01,-0.04,1.25,-4.64,5.07,9.16,946.35,21.1,
6505551,-0.0,-0.04,1.25,-5.0,4.94,8.97,946.36,21.09,
6505590,-0.0,-0.05,1.22,-5.19,5.07,8.91,946.37,21.1,
6505628,-0.01,-0.03,1.24,-5.0,4.27,8.91,946.36,21.1,
6505718,-0.01,-0.04,1.24,-5.0,4.21,8.85,946.3,21.07,
6505756,-0.01,-0.05,1.2,-4.94,4.58,8.91,946.35,21.09,
6505794,-0.01,-0.04,1.21,-5.19,4.39,8.97,946.31,21.09,
6505833,-0.01,-0.04,1.21,-5.37,4.82,8.91,946.32,21.09,
6505871,-0.01,-0.05,1.19,-5.49,4.76,8.79,946.32,21.1,
6505909,-0.02,-0.05,1.2,-5.31,4.39,8.85,946.37,21.1,
6505959,-0.01,-0.04,1.17,-5.68,4.46,8.91,946.41,21.1,
6505998,-0.0,-0.04,1.19,-5.62,4.21,8.79,946.29,21.09,
6506036,-0.02,-0.05,1.19,-5.68,4.33,8.91,946.35,21.11,
6506074,-0.02,-0.05,1.17,-5.8,4.39,8.85,946.33,21.1,
6506113,-0.02,-0.05,1.16,-5.74,4.27,8.79,946.37,21.11,
6506151,-0.01,-0.05,1.13,-5.68,4.15,8.67,946.34,21.11,
6506189,-0.01,-0.04,1.12,-5.74,4.46,8.73,946.35,21.11,
6506228,-0.02,-0.05,1.15,-5.62,4.39,8.79,946.31,21.1,
6506266,-0.03,-0.06,1.13,-5.68,4.76,8.73,946.34,21.11,
6506316,-0.04,-0.04,1.2,-5.43,4.82,8.73,946.33,21.09,
6506354,-0.02,-0.05,1.19,-5.55,5.19,8.73,946.29,21.11,
6506393,-0.02,-0.04,1.23,-5.49,4.7,8.73,946.3,21.1,
6506431,-0.02,-0.05,1.23,-5.49,5.25,8.85,946.28,21.11,
6506469,-0.03,-0.04,1.23,-5.31,5.13,8.85,946.33,21.11,
6506507,-0.02,-0.03,1.29,-5.25,5.37,8.73,946.3,21.12,
6506546,-0.02,-0.03,1.29,-5.19,5.49,8.85,946.28,21.11,
6506584,-0.03,-0.03,1.34,-4.94,4.7,9.09,946.26,21.11,
6506623,-0.04,-0.04,1.32,-5.25,5.0,9.03,946.3,21.11,
6506661,-0.04,-0.03,1.39,-4.88,4.88,9.28,946.23,21.11,
6506711,-0.02,-0.02,1.36,-5.25,5.13,9.22,946.28,21.1,
6506749,-0.02,-0.02,1.4,-4.94,5.13,9.34,946.26,21.1,
6506788,-0.04,-0.04,1.32,-4.82,6.71,9.4,946.29,21.11,
6506826,-0.02,-0.04,1.34,-4.46,6.23,9.22,946.29,21.11,
6506864,-0.02,-0.03,1.31,-4.21,6.71,9.22,946.25,21.11,
6506902,-0.03,-0.04,1.31,-4.15,6.71,9.28,946.25,21.12,
6506941,-0.01,-0.04,1.32,-3.78,7.87,9.4,946.29,21.12,
6506979,0.0,-0.04,1.28,-3.48,8.79,9.09,946.24,21.11,
6507018,-0.0,-0.04,1.29,-3.11,9.58,9.09,946.22,21.11,
6507068,0.0,-0.04,1.25,-2.75,11.84,8.97,946.15,21.11,
6507106,0.0,-0.04,1.24,-2.01,13.18,8.85,946.1,21.11,
6507144,0.0,-0.06,1.2,-1.65,14.65,8.79,946.13,21.1,
6507183,0.0,-0.05,1.14,-1.59,15.56,8.54,946.11,21.11,
6507221,0.01,-0.04,1.15,-1.28,16.17,8.67,946.12,21.11,
6507259,0.02,-0.05,1.14,-1.16,16.97,8.67,946.07,21.11,
6507297,0.02,-0.05,1.19,-0.79,16.97,8.61,946.13,21.13,
6507336,0.01,-0.05,1.17,-0.31,17.4,8.67,946.09,21.14,
6507374,0.02,-0.05,1.16,0.24,18.31,8.61,946.07,21.11,
6507412,0.02,-0.06,1.1,0.55,19.04,8.79,946.09,21.12,
6507463,0.02,-0.05,1.05,1.28,19.04,8.54,946.06,21.12,
6507501,0.02,-0.06,1.0,1.59,19.71,8.42,946.04,21.11,
6507539,0.03,-0.06,1.01,1.71,19.71,8.48,946.04,21.13,
6507578,0.03,-0.06,1.01,2.26,19.65,8.42,946.02,21.12,
6507616,0.03,-0.07,0.98,1.95,19.29,8.48,946.04,21.11,
6507654,0.02,-0.07,0.99,2.26,18.98,8.42,946.08,21.12,
6507692,0.03,-0.07,0.96,2.26,19.1,8.3,946.08,21.12,
6507731,0.04,-0.06,0.95,2.32,18.37,8.18,946.04,21.12,
6507769,0.03,-0.06,0.92,2.14,18.43,8.12,946.08,21.12,
6507807,0.04,-0.06,0.92,2.14,17.82,7.93,946.02,21.12,
6507858,0.03,-0.07,0.91,1.95,17.21,8.0,946.07,21.12,
6507896,0.03,-0.06,0.94,1.71,15.87,7.87,946.05,21.13,
6507934,0.05,-0.06,0.93,1.65,15.87,7.57,946.05,21.11,
6507973,0.04,-0.07,0.91,1.34,14.65,7.57,946.02,21.13,
6508011,0.05,-0.06,0.93,1.16,13.67,7.39,946.11,21.13,
6508049,0.04,-0.07,0.92,0.98,12.7,7.02,946.13,21.12,
6508087,0.04,-0.06,0.97,0.98,11.17,7.02,946.11,21.12,
6508126,0.04,-0.07,0.98,0.61,10.38,6.84,946.13,21.12,
6508164,0.04,-0.06,1.0,0.49,8.3,6.41,946.17,21.13,
6508214,0.05,-0.09,1.05,0.18,7.08,6.29,946.14,21.11,
6508252,0.04,-0.07,1.07,0.31,6.71,5.8,946.09,21.12,
6508291,0.03,-0.06,1.11,0.18,6.41,5.43,946.08,21.12,
6508329,0.04,-0.06,1.13,0.43,6.65,5.07,946.23,21.13,
6508367,0.03,-0.06,1.09,-0.06,7.63,4.58,946.14,21.11,
6508406,0.03,-0.05,1.11,0.37,7.69,4.15,946.18,21.12,
6508444,0.04,-0.05,1.04,0.18,8.61,3.85,946.18,21.13,
6508483,0.03,-0.04,1.13,0.85,7.26,3.54,946.17,21.14,
6508521,0.02,-0.06,1.06,0.49,8.48,3.48,946.17,21.14,
6508559,-0.0,-0.04,1.13,0.98,7.45,3.11,946.23,21.14,
6508635,0.0,-0.05,1.08,0.73,6.71,3.05,946.25,21.1,
6508674,0.0,-0.05,1.09,0.79,6.35,2.81,946.27,21.12,
6508712,-0.0,-0.06,1.04,0.31,5.62,2.87,946.23,21.12,
6508802,0.0,-0.07,1.03,-0.06,3.6,2.93,946.24,21.09,
6508840,-0.01,-0.05,1.05,0.18,2.14,2.75,946.21,21.09,
6508878,-0.02,-0.06,1.03,0.0,2.26,2.81,946.23,21.11,
6508917,0.01,-0.06,1.03,0.24,1.04,2.81,946.18,21.11,
6508955,-0.01,-0.05,1.04,0.43,-0.24,2.69,946.15,21.1,
6508993,-0.02,-0.07,0.98,0.55,-0.92,2.69,946.21,21.11,
6509032,-0.03,-0.06,1.0,0.61,-1.77,2.62,946.14,21.11,
6509082,-0.03,-0.06,0.93,0.12,-3.3,2.56,945.99,21.1,
6509120,-0.04,-0.06,0.95,0.55,-6.23,2.81,945.95,21.11,
6509158,-0.07,-0.09,0.84,-0.49,-7.26,2.99,945.86,21.12,
6509196,-0.09,-0.08,0.82,-0.18,-10.56,3.11,945.73,21.13,
6509235,-0.11,-0.09,0.79,-0.85,-11.11,3.78,945.77,21.12,
6509273,-0.1,-0.05,0.81,-0.98,-13.43,4.21,945.62,21.12,
6509311,-0.12,-0.06,0.78,-1.04,-13.67,4.76,945.72,21.13,
6509350,-0.09,-0.1,0.77,-1.89,-15.08,5.31,945.66,21.12,
6509388,-0.1,-0.07,0.85,-1.83,-16.6,5.92,945.69,21.13,
6509438,-0.12,-0.08,0.8,-2.87,-16.54,6.71,945.67,21.12,
6509476,-0.09,-0.06,0.92,-2.81,-17.88,7.02,945.67,21.12,
6509515,-0.13,-0.08,0.88,-3.85,-15.99,7.45,945.71,21.13,
6509553,-0.1,-0.07,0.97,-3.54,-17.4,7.63,945.7,21.14,
6509591,-0.12,-0.08,0.97,-4.27,-16.24,7.93,945.69,21.12,
6509630,-0.09,-0.06,1.02,-4.64,-16.72,8.36,945.71,21.13,
6509668,-0.09,-0.05,1.06,-4.88,-15.75,8.54,945.72,21.13,
6509706,-0.09,-0.05,1.12,-5.55,-15.69,8.54,945.71,21.13,
6509745,-0.08,-0.06,1.17,-5.68,-15.44,8.79,945.73,21.13,
6509795,-0.08,-0.04,1.22,-6.29,-15.5,8.97,945.68,21.12,
6509833,-0.07,-0.04,1.23,-6.41,-15.2,8.85,945.66,21.13,
6509871,-0.08,-0.03,1.25,-6.71,-15.56,8.91,945.68,21.13,
6509910,-0.08,-0.03,1.3,-6.65,-15.32,9.03,945.68,21.13,
6509948,-0.07,-0.04,1.25,-6.59,-14.83,8.91,945.65,21.13,
6509986,-0.09,-0.02,1.31,-6.53,-15.01,8.97,945.67,21.13,
6510024,-0.08,-0.02,1.29,-6.77,-14.04,9.22,945.71,21.13,
6510063,-0.1,-0.03,1.34,-6.41,-14.22,8.97,945.67,21.13,
6510101,-0.07,-0.03,1.37,-6.29,-13.85,9.03,945.67,21.15,
6510151,-0.07,-0.02,1.37,-6.23,-13.43,9.16,945.72,21.13,
6510190,-0.08,-0.01,1.37,-6.41,-12.88,9.03,945.68,21.14,
6510228,-0.08,-0.01,1.37,-6.41,-12.63,9.22,945.68,21.13,
6510266,-0.08,-0.01,1.4,-6.41,-12.51,9.03,945.74,21.14,
6510304,-0.06,-0.02,1.39,-6.41,-12.39,9.03,945.7,21.13,
6510343,-0.08,-0.01,1.41,-6.35,-12.21,9.09,945.71,21.13,
6510381,-0.08,-0.0,1.39,-6.23,-12.27,9.28,945.67,21.13,
6510419,-0.06,-0.01,1.41,-6.29,-12.63,9.22,945.74,21.14,
6510458,-0.08,-0.01,1.39,-6.53,-12.39,9.4,945.71,21.14,
6510508,-0.07,-0.01,1.42,-6.71,-12.51,9.46,945.72,21.12,
6510546,-0.08,-0.02,1.4,-6.9,-12.45,9.52,945.7,21.14,
6510584,-0.09,0.01,1.38,-6.9,-12.82,9.77,945.79,21.14,
6510623,-0.09,-0.01,1.41,-7.2,-11.96,9.95,945.74,21.15,
6510661,-0.08,-0.01,1.39,-7.14,-11.23,10.13,945.72,21.13,
6510699,-0.08,-0.0,1.42,-7.39,-10.99,10.07,945.77,21.14,
6510738,-0.09,-0.01,1.41,-7.39,-10.38,10.13,945.79,21.14,
6510776,-0.08,-0.0,1.42,-7.69,-9.58,10.25,945.77,21.14,
6510815,-0.09,-0.01,1.41,-7.69,-9.16,10.44,945.78,21.13,
6510853,-0.07,-0.0,1.39,-7.87,-8.0,10.56,945.74,21.13,
6510903,-0.09,0.0,1.4,-7.81,-7.51,10.86,945.79,21.13,
6510941,-0.1,-0.0,1.38,-7.75,-6.23,10.99,945.73,21.13,
6510979,-0.08,0.0,1.39,-8.0,-6.1,11.35,945.74,21.12,
6511018,-0.09,0.0,1.39,-7.69,-4.76,11.6,945.74,21.14,
6511056,-0.09,-0.0,1.34,-8.0,-4.52,11.9,945.72,21.13,
6511094,-0.08,0.01,1.4,-7.63,-3.36,12.08,945.68,21.13,
6511132,-0.08,-0.01,1.33,-7.87,-2.26,12.57,945.67,21.14,
6511171,-0.09,-0.01,1.37,-7.69,-1.95,13.0,945.68,21.13,
6511209,-0.08,-0.01,1.33,-8.06,-0.55,13.24,945.67,21.13,
6511259,-0.07,0.01,1.38,-8.0,-0.73,13.85,945.72,21.13,
6511297,-0.06,0.01,1.34,-8.36,-0.06,14.04,945.7,21.13,
6511336,-0.06,-0.01,1.33,-8.36,-0.12,14.28,945.74,21.14,
6511374,-0.04,-0.0,1.35,-8.42,0.37,14.65,945.68,21.14,
6511412,-0.04,-0.01,1.33,-8.85,0.49,14.71,945.74,21.15,
6511451,-0.04,0.01,1.36,-8.73,-0.18,14.77,945.73,21.14,
6511489,-0.05,0.0,1.31,-9.09,-0.55,15.2,945.71,21.12,
6511527,-0.03,-0.0,1.34,-9.16,-1.4,15.26,945.71,21.14,
6511566,-0.01,-0.0,1.31,-9.58,-0.98,15.5,945.74,21.14,
6511641,-0.01,0.01,1.34,-10.31,-1.34,15.5,945.83,21.1,
6511680,0.0,0.0,1.38,-10.62,-1.34,15.26,945.8,21.11,
6511718,0.02,0.01,1.38,-10.68,-1.16,15.01,945.75,21.12,
6511808,0.03,0.03,1.39,-10.99,-0.73,14.34,945.73,21.09,
6511846,0.03,0.03,1.44,-10.93,-1.16,14.04,945.75,21.11,
6511885,0.01,0.03,1.45,-10.99,-0.37,13.73,945.67,21.1,
6511923,0.02,0.03,1.48,-10.86,0.12,13.49,945.69,21.12,
6511961,0.01,0.05,1.45,-11.05,0.67,13.12,945.7,21.12,
6512000,-0.0,0.06,1.44,-11.17,0.92,12.76,945.68,21.11,
6512050,0.01,0.03,1.45,-10.93,2.62,12.27,945.61,21.11,
6512088,0.0,0.04,1.46,-10.86,2.87,12.02,945.65,21.11,
6512126,-0.0,0.05,1.53,-10.38,3.17,12.02,945.61,21.13,
6512164,-0.0,0.05,1.42,-10.74,4.21,11.84,945.69,21.13,
6512203,-0.0,0.07,1.52,-10.31,3.78,11.6,945.63,21.12,
6512241,-0.0,0.04,1.46,-10.56,4.64,11.6,945.72,21.12,
6512279,-0.01,0.04,1.48,-10.13,3.6,11.47,945.66,21.13,
6512318,-0.01,0.06,1.47,-9.95,4.64,11.6,945.71,21.14,
6512356,-0.02,0.07,1.44,-9.16,4.94,11.47,945.71,21.13,
6512394,-0.02,0.04,1.39,-8.85,5.8,11.35,945.73,21.14,
6512444,-0.01,0.03,1.39,-8.97,5.43,11.17,945.7,21.11,
6512483,-0.02,0.03,1.36,-8.67,5.74,11.9,945.65,21.12,
6512521,-0.02,0.04,1.29,-8.79,5.0,11.84,945.75,21.12,
6512559,-0.0,0.04,1.28,-8.42,5.37,11.78,945.7,21.13,
6512598,-0.02,0.0,1.21,-8.54,5.74,12.02,945.73,21.14,
6512636,-0.02,-0.0,1.23,-8.18,5.49,11.84,945.78,21.14,
6512674,-0.02,0.0,1.17,-7.81,6.9,11.84,945.69,21.13,
6512713,-0.01,0.01,1.18,-7.63,6.65,11.84,945.71,21.12,
6512751,-0.04,0.02,1.16,-7.57,7.08,12.02,945.69,21.13,
6512801,-0.01,0.01,1.19,-8.06,8.0,11.78,945.69,21.12,
6512839,-0.03,0.01,1.22,-8.3,9.16,11.6,945.69,21.13,
6512877,-0.02,0.02,1.22,-8.3,9.09,11.96,945.7,21.12,
6512916,-0.03,0.02,1.23,-8.18,9.46,11.72,945.68,21.12,
6512954,-0.03,0.01,1.22,-8.42,10.38,11.9,945.72,21.12,
6512992,-0.02,0.01,1.21,-8.54,10.62,11.84,945.71,21.14,
6513031,-0.04,0.02,1.17,-8.61,11.23,11.84,945.72,21.13,
6513069,-0.03,0.02,1.18,-8.36,11.29,12.02,945.68,21.12,
6513107,-0.03,0.03,1.24,-7.93,11.11,11.9,945.71,21.13,
6513146,-0.03,0.02,1.23,-8.24,11.54,12.15,945.79,21.14,
6513196,-0.04,0.03,1.3,-7.93,11.35,12.39,945.75,21.13,
6513234,-0.03,0.01,1.27,-7.81,11.47,12.51,945.73,21.13,
6513272,-0.04,0.02,1.24,-7.75,10.62,12.57,945.76,21.13,
6513311,-0.03,0.03,1.25,-7.39,10.8,12.88,945.8,21.12,
6513349,-0.03,0.01,1.24,-6.71,10.93,13.0,945.8,21.13,
6513387,-0.03,0.01,1.17,-6.84,10.38,13.12,945.84,21.15,
6513425,-0.04,0.02,1.2,-6.1,9.34,13.12,945.79,21.13,
6513464,-0.03,0.01,1.2,-5.98,9.95,13.49,945.83,21.14,
6513502,-0.03,-0.0,1.16,-5.74,8.54,13.61,945.78,21.13,
6513552,-0.05,-0.0,1.17,-5.68,7.69,13.67,945.82,21.12,
6513590,-0.05,0.01,1.2,-5.07,6.9,13.85,945.8,21.13,
6513628,-0.03,-0.0,1.21,-5.07,6.47,14.1,945.81,21.12,
6513667,-0.06,-0.01,1.15,-4.82,4.82,14.53,945.88,21.12,
6513705,-0.09,-0.01,1.17,-4.64,4.76,14.89,945.85,21.13,
6513743,-0.05,-0.01,1.13,-4.39,4.27,15.14,945.81,21.13,
6513782,-0.05,-0.0,1.12,-4.52,3.23,15.38,945.85,21.13,
6513820,-0.06,-0.01,1.12,-4.76,2.08,15.81,945.88,21.13,
6513858,-0.04,-0.01,1.13,-5.07,2.44,16.17,945.83,21.14,
6513908,-0.06,-0.01,1.1,-5.8,2.2,16.42,945.85,21.12,
6513947,-0.06,-0.0,1.09,-6.47,1.77,16.66,945.86,21.14,
6513985,-0.05,-0.01,1.11,-7.02,1.1,16.6,945.93,21.13,
6514023,-0.05,-0.01,1.12,-7.02,1.65,16.85,945.92,21.14,
6514061,-0.04,-0.01,1.1,-7.39,2.81,16.91,945.9,21.13,
6514100,-0.02,-0.01,1.14,-7.51,3.6,16.85,945.9,21.14,
6514138,-0.05,0.0,1.17,-7.75,3.91,17.15,945.89,21.14,
6514176,-0.03,-0.0,1.19,-8.06,4.27,17.46,945.99,21.13,
6514214,-0.05,0.0,1.2,-8.3,4.33,17.21,945.97,21.14,
6514253,-0.03,0.0,1.21,-8.67,4.52,17.52,945.98,21.13,
6514303,-0.02,0.0,1.24,-8.48,4.03,17.76,946.02,21.12,
6514341,-0.03,0.0,1.22,-8.3,4.03,17.7,946.04,21.13,
6514379,-0.03,0.01,1.26,-8.12,4.52,17.82,946.1,21.14,
6514418,-0.03,0.01,1.29,-7.81,4.27,17.76,946.1,21.14,
6514456,-0.03,0.02,1.37,-7.51,3.78,17.88,946.11,21.14,
6514494,-0.02,0.02,1.38,-7.45,4.15,17.82,946.09,21.12,
6514533,-0.01,0.03,1.36,-7.63,4.21,17.88,946.1,21.13,
6514571,0.01,0.02,1.36,-7.81,3.42,17.76,946.11,21.13,
6514609,-0.01,0.01,1.32,-8.12,2.87,17.94,946.18,21.14,
6514685,0.0,0.02,1.39,-8.06,2.81,17.88,946.16,21.09,
6514724,0.01,0.03,1.41,-7.81,1.28,17.76,946.2,21.12,
6514762,0.0,0.02,1.43,-7.93,1.46,17.76,946.23,21.12,
6514852,-0.01,0.03,1.4,-8.12,2.81,17.09,946.22,21.08,
6514890,0.0,0.05,1.45,-8.24,2.38,16.72,946.29,21.11,
6514929,0.01,0.03,1.45,-8.12,2.75,16.48,946.23,21.11,
6514967,0.0,0.02,1.42,-8.06,3.17,16.36,946.27,21.11,
6515005,0.01,0.03,1.46,-8.06,3.11,16.17,946.24,21.11,
6515044,0.01,0.03,1.48,-7.69,2.93,16.11,946.29,21.1,
6515082,0.0,0.03,1.46,-7.75,2.26,16.11,946.24,21.11,
6515132,0.0,0.02,1.46,-7.63,2.62,16.11,946.32,21.11,
6515170,-0.0,0.02,1.45,-7.26,1.89,15.99,946.28,21.11,
6515208,-0.0,0.03,1.46,-7.02,1.83,15.93,946.31,21.12,
6515246,0.0,0.03,1.45,-6.96,1.59,15.69,946.32,21.11,
6515285,0.01,0.03,1.49,-6.96,1.59,15.56,946.35,21.12,
6515323,0.0,0.03,1.47,-6.9,1.46,15.5,946.33,21.12,
6515361,-0.01,0.03,1.49,-7.02,1.16,15.56,946.38,21.12,
6515400,0.0,0.04,1.5,-7.14,0.55,15.5,946.3,21.12,
6515438,0.0,0.04,1.52,-7.63,-0.18,15.5,946.35,21.13,
6515488,-0.01,0.04,1.54,-7.93,-0.85,15.56,946.35,21.12,
6515526,-0.01,0.04,1.53,-8.36,-1.28,15.38,946.4,21.13,
6515564,-0.03,0.04,1.51,-8.48,-0.18,15.44,946.41,21.13,
6515603,0.01,0.04,1.54,-8.06,-0.92,15.32,946.44,21.14,
6515641,-0.01,0.01,1.5,-8.3,-0.67,15.32,946.46,21.12,
6515679,-0.01,-0.0,1.46,-8.06,-0.61,15.08,946.46,21.12,
6515718,-0.02,-0.0,1.47,-7.45,-0.24,15.01,946.5,21.12,
6515756,-0.0,-0.0,1.31,-7.39,1.46,15.01,946.48,21.12,
6515794,-0.02,0.01,1.33,-7.14,0.37,14.95,946.48,21.12,
6515832,-0.0,-0.04,1.33,-6.71,1.34,15.08,946.45,21.11,
6515882,-0.01,-0.03,1.32,-6.9,2.14,15.08,946.47,21.12,
6515921,-0.03,0.01,1.4,-7.02,4.09,14.83,946.39,21.11,
6515959,-0.01,-0.01,1.34,-7.14,5.8,14.83,946.4,21.12,
6515997,-0.02,-0.03,1.33,-7.93,6.47,14.65,946.34,21.13,
6516036,-0.01,-0.0,1.51,-8.0,7.39,14.89,946.36,21.13,
6516074,0.03,-0.02,1.42,-8.48,8.18,14.77,946.4,21.12,
6516112,0.01,0.05,1.51,-9.03,4.46,15.26,946.4,21.13,
6516150,0.03,0.04,1.6,-9.46,5.49,15.81,946.29,21.12,
6516188,0.04,-0.0,1.58,-9.89,3.85,15.81,946.28,21.13,
6516238,0.01,0.02,1.66,-10.74,1.16,15.69,946.34,21.12,
6516277,0.05,0.05,1.58,-11.05,0.79,15.62,946.34,21.12,
6516315,0.06,0.07,1.71,-10.93,-0.49,15.26,946.33,21.12,
6516353,0.05,0.04,1.62,-10.8,-0.79,15.32,946.29,21.12,
6516392,0.03,0.0,1.68,-10.01,-2.08,14.95,946.29,21.13,
6516430,0.04,-0.01,1.56,-10.8,-1.53,14.53,946.3,21.12,
6516468,0.01,0.07,1.69,-10.68,-3.05,14.47,946.31,21.13,
6516507,0.05,0.06,1.68,-10.07,-2.2,13.98,946.37,21.12,
6516545,0.06,0.0,1.59,-9.95,-2.56,13.37,946.26,21.12,
6516595,0.02,0.02,1.7,-9.7,-3.3,13.49,946.32,21.12,
6516633,0.04,0.02,1.58,-9.34,-3.36,13.12,946.35,21.12,
6516671,0.02,0.05,1.59,-9.09,-3.11,12.39,946.35,21.12,
6516710,0.04,0.04,1.54,-8.61,-3.17,12.33,946.39,21.12,
6516748,0.06,0.01,1.57,-8.36,-3.11,11.84,946.36,21.13,
6516786,0.03,0.01,1.51,-8.12,-2.56,10.99,946.35,21.14,
6516825,0.02,0.02,1.52,-8.06,-2.69,10.86,946.39,21.14,
6516863,0.02,0.01,1.49,-8.24,-1.34,10.5,946.36,21.13,
6516901,0.03,0.01,1.52,-7.81,-1.53,10.19,946.37,21.14,
6516940,0.02,0.02,1.52,-8.06,-0.61,9.83,946.39,21.13,
6516989,0.0,0.02,1.48,-8.0,-0.31,9.58,946.37,21.12,
6517028,0.03,0.03,1.52,-8.06,-0.12,9.28,946.38,21.14,
6517066,0.01,0.01,1.54,-8.18,-0.31,8.91,946.41,21.14,
6517104,-0.0,0.0,1.54,-8.3,-0.67,8.85,946.44,21.14,
6517142,0.0,0.01,1.56,-8.48,0.06,8.61,946.43,21.12,
6517181,0.01,0.01,1.56,-8.3,-0.31,8.61,946.35,21.13,
6517219,0.0,0.03,1.56,-8.36,-0.24,8.42,946.39,21.14,
6517257,-0.01,0.02,1.57,-7.87,-0.49,8.24,946.38,21.14,
6517295,-0.01,0.0,1.56,-8.0,0.37,8.06,946.43,21.14,
6517334,0.01,0.01,1.54,-8.18,-0.18,8.06,946.45,21.15,
6517384,-0.02,0.01,1.53,-8.24,-0.24,8.18,946.4,21.13,
6517422,-0.0,0.0,1.58,-8.0,-0.67,8.0,946.43,21.13,
6517460,-0.02,0.0,1.56,-7.81,-0.12,8.0,946.39,21.13,
6517498,-0.01,-0.01,1.54,-7.39,-0.61,8.0,946.44,21.13,
6517537,-0.03,-0.02,1.42,-7.51,0.06,8.0,946.38,21.14,
6517575,-0.01,-0.01,1.46,-7.26,-0.55,8.3,946.43,21.14,
6517613,-0.0,-0.03,1.39,-7.57,0.79,8.18,946.43,21.14,
6517651,-0.01,-0.02,1.36,-7.45,0.18,8.0,946.42,21.13,
6517690,-0.03,-0.02,1.38,-7.2,1.1,8.12,946.46,21.14,
6517766,-0.03,-0.03,1.43,-7.14,0.0,8.36,946.53,21.12,
6517804,-0.04,-0.04,1.39,-7.39,1.1,8.42,946.47,21.12,
6517842,-0.02,-0.02,1.45,-7.63,0.73,8.48,946.46,21.12,
6517932,-0.04,-0.02,1.48,-7.75,0.49,9.22,946.41,21.1,
6517970,-0.03,-0.02,1.4,-8.61,0.43,9.46,946.38,21.1,
6518009,-0.05,-0.0,1.49,-8.61,-1.65,9.89,946.41,21.11,
6518047,-0.04,-0.03,1.41,-9.28,0.12,10.25,946.4,21.12,
6518085,-0.03,-0.01,1.46,-9.52,-1.4,10.56,946.44,21.12,
6518123,-0.04,-0.02,1.47,-9.64,-0.61,11.05,946.45,21.12,
6518174,-0.04,-0.02,1.39,-9.22,-1.71,11.29,946.52,21.11,
6518212,-0.02,-0.03,1.43,-9.09,0.67,11.05,946.42,21.11,
6518250,-0.01,-0.02,1.31,-9.22,1.4,11.35,946.44,21.12,
6518288,0.0,-0.0,1.48,-8.54,1.1,11.23,946.44,21.12,
6518326,-0.01,-0.03,1.41,-9.52,2.2,11.29,946.4,21.12,
6518365,-0.02,-0.02,1.48,-9.46,1.65,11.17,946.44,21.12,
6518403,0.02,-0.02,1.45,-9.89,2.56,11.17,946.49,21.12,
6518441,0.02,-0.02,1.5,-9.16,0.73,11.11,946.5,21.12,
6518480,-0.02,-0.05,1.36,-9.89,2.38,11.29,946.51,21.12,
6518518,0.01,-0.01,1.49,-9.16,1.22,10.99,946.53,21.14,
6518568,0.02,-0.02,1.36,-9.4,3.11,10.8,946.57,21.13,
6518606,0.01,0.0,1.42,-9.52,0.12,10.8,946.51,21.12,
6518644,-0.01,-0.04,1.43,-9.4,2.01,10.93,946.5,21.13,
6518683,0.02,-0.05,1.36,-9.58,1.53,10.38,946.49,21.12,
6518721,-0.0,-0.01,1.48,-9.16,0.61,10.62,946.49,21.13,
6518759,0.01,-0.01,1.43,-9.22,2.26,10.62,946.47,21.13,
6518797,-0.0,-0.0,1.43,-9.28,1.83,10.19,946.52,21.15,
6518836,-0.0,-0.03,1.45,-9.34,3.91,10.07,946.43,21.13,
6518874,0.01,-0.02,1.43,-9.28,3.36,10.13,946.42,21.14,
6518924,-0.0,-0.01,1.45,-9.22,4.39,9.83,946.48,21.13,
6518962,0.02,-0.0,1.46,-9.16,4.46,9.7,946.45,21.13,
6519000,0.01,-0.01,1.46,-8.97,4.27,9.95,946.43,21.13,
6519039,0.01,-0.02,1.46,-8.67,3.91,9.7,946.47,21.14,
6519077,-0.01,-0.02,1.46,-8.36,3.97,9.77,946.43,21.14,
6519115,-0.01,-0.01,1.47,-8.06,3.97,9.7,946.43,21.13,
6519153,0.0,-0.01,1.45,-7.81,3.23,9.58,946.43,21.14,
6519192,0.01,-0.01,1.5,-7.51,2.69,9.4,946.44,21.15,
6519230,-0.02,-0.02,1.49,-7.51,2.32,9.64,946.41,21.14,
6519268,-0.01,-0.0,1.51,-7.87,2.44,9.52,946.49,21.15,
6519318,-0.02,0.02,1.54,-7.45,3.05,9.52,946.52,21.14,
6519356,-0.03,-0.01,1.42,-7.08,2.56,9.77,946.46,21.14,
6519395,-0.05,-0.04,1.47,-6.84,2.32,9.58,946.42,21.14,
6519433,-0.04,-0.06,1.32,-6.65,4.7,9.89,946.47,21.14,
6519471,-0.02,-0.05,1.25,-6.59,4.64,9.77,946.46,21.14,
6519509,-0.04,-0.04,1.13,-6.04,4.52,10.01,946.49,21.14,
6519548,-0.02,-0.04,1.06,-6.53,3.3,10.38,946.46,21.15,
6519586,-0.05,-0.07,1.1,-6.16,2.62,10.44,946.45,21.14,
6519624,-0.03,-0.07,1.0,-7.08,3.23,10.62,946.49,21.14,
6519674,-0.01,-0.03,1.13,-6.1,0.85,10.74,946.49,21.12,
6519712,-0.01,-0.06,1.03,-7.02,1.95,11.05,946.47,21.14,
6519751,-0.01,-0.05,1.1,-6.65,1.16,10.99,946.44,21.14,
6519789,-0.04,-0.08,1.06,-6.65,3.36,10.93,946.5,21.15,
6519827,-0.02,-0.06,1.03,-6.53,3.72,10.99,946.42,21.15,
6519865,-0.01,-0.05,0.92,-6.53,4.7,11.17,946.48,21.15,
6519904,-0.03,-0.05,0.97,-6.23,4.33,10.93,946.41,21.15,
6519942,-0.02,-0.08,0.93,-6.29,5.68,11.11,946.39,21.14,
6519980,0.0,-0.05,1.09,-6.65,3.66,11.11,946.39,21.14,
6520018,-0.02,-0.06,1.2,-6.1,2.87,11.41,946.37,21.15,
6520068,-0.02,-0.05,1.22,-6.47,1.1,11.54,946.4,21.13,
6520107,-0.02,-0.07,1.31,-6.16,1.1,11.54,946.34,21.14,
6520145,0.01,-0.05,1.29,-6.84,-1.4,11.66,946.32,21.14,
6520183,-0.0,-0.02,1.46,-6.47,-2.01,11.96,946.33,21.14,
6520221,-0.03,-0.04,1.39,-7.75,-0.85,11.96,946.25,21.14,
6520260,-0.02,-0.01,1.56,-7.2,-2.56,11.84,946.27,21.14,
6520298,-0.03,-0.02,1.63,-7.39,-0.92,11.6,946.18,21.14,
6520336,-0.02,-0.01,1.62,-7.39,0.0,11.47,946.17,21.14,
6520375,-0.01,0.01,1.8,-7.08,1.16,11.23,946.1,21.13,
6520425,-0.02,-0.0,1.66,-7.87,4.03,10.99,946.13,21.13,
6520463,-0.05,0.04,1.8,-7.63,5.13,10.74,946.14,21.14,
6520501,-0.0,-0.01,1.69,-7.63,7.39,10.56,946.11,21.15,
6520539,-0.01,-0.01,1.75,-7.39,5.49,10.38,946.1,21.15,
6520578,-0.03,-0.02,1.67,-7.08,7.93,10.25,946.15,21.14,
6520616,-0.03,0.01,1.6,-6.71,8.06,9.89,946.08,21.14,
6520654,-0.01,-0.0,1.6,-6.71,7.75,10.07,946.09,21.14,
6520692,-0.03,-0.03,1.54,-6.41,6.04,10.44,946.14,21.14,
6520731,-0.05,-0.04,1.56,-6.41,6.84,10.19,946.08,21.15,
6520807,-0.06,-0.02,1.55,-6.35,6.29,10.99,946.15,21.12,
6520845,-0.04,-0.05,1.42,-6.23,6.77,11.11,946.14,21.14,
6520883,-0.07,-0.04,1.39,-6.29,6.16,11.11,946.08,21.13,
6520973,-0.05,-0.05,1.3,-6.1,7.2,11.66,946.08,21.1,
6521011,-0.06,-0.05,1.26,-5.86,8.48,11.84,946.08,21.11,
6521049,-0.05,-0.05,1.26,-5.92,7.87,12.02,946.13,21.13,
6521088,-0.05,-0.06,1.28,-5.92,7.63,12.27,946.06,21.12,
6521126,-0.07,-0.07,1.25,-6.04,7.45,12.21,946.05,21.12,
6521164,-0.05,-0.06,1.28,-6.16,7.69,12.63,946.05,21.13,
6521214,-0.03,-0.06,1.32,-6.41,7.2,13.0,946.0,21.11,
6521253,-0.04,-0.05,1.31,-6.59,7.32,13.06,946.06,21.12,
6521291,-0.08,-0.05,1.28,-6.59,8.12,13.37,946.08,21.14,
6521329,-0.06,-0.05,1.32,-6.53,8.48,13.49,946.07,21.12,
6521368,-0.03,-0.05,1.36,-6.53,8.42,13.55,946.05,21.12,
6521406,-0.06,-0.06,1.29,-6.41,9.46,13.61,946.13,21.13,
6521444,-0.03,-0.06,1.31,-6.41,9.89,13.55,946.13,21.13,
6521482,0.0,-0.07,1.29,-6.23,10.07,13.43,946.14,21.14,
6521521,-0.01,-0.06,1.24,-5.92,10.01,13.49,946.1,21.13,
6521559,-0.0,-0.06,1.15,-6.23,11.47,13.24,946.14,21.14,
6521609,0.02,-0.07,1.19,-5.37,12.51,12.88,946.0,21.11,
6521647,0.01,-0.09,1.14,-4.82,14.22,12.63,946.05,21.13,
6521685,0.05,-0.06,1.14,-4.21,14.53,12.51,945.96,21.12,
6521724,0.02,-0.08,1.14,-3.66,15.87,12.27,945.97,21.13,
6521762,0.02,-0.07,1.15,-2.99,16.17,12.27,945.92,21.13,
6521800,0.05,-0.08,1.15,-2.75,15.99,12.21,945.91,21.14,
6521838,0.05,-0.07,1.19,-2.5,14.95,11.84,945.86,21.14,
6521877,0.06,-0.08,1.19,-2.32,15.44,11.72,945.87,21.12,
6521915,0.06,-0.08,1.2,-2.08,15.14,11.54,945.87,21.14,
6521965,0.04,-0.08,1.17,-1.16,14.89,11.41,945.89,21.12,
6522003,0.05,-0.07,1.18,-0.55,15.5,11.17,945.83,21.12,
6522041,0.06,-0.09,1.17,-0.18,16.48,10.62,945.89,21.14,
6522080,0.05,-0.09,1.09,0.12,17.88,10.07,945.92,21.15,
6522118,0.06,-0.07,1.15,0.98,19.53,9.52,945.88,21.14,
6522156,0.06,-0.09,1.11,1.04,21.67,9.58,945.85,21.14,
6522194,0.06,-0.09,1.09,1.4,22.16,9.03,945.84,21.13,
6522233,0.05,-0.09,1.05,1.53,23.01,8.79,945.86,21.14,
6522271,0.04,-0.09,0.99,1.46,24.23,8.54,945.93,21.15,
6522309,0.07,-0.09,0.99,1.59,23.93,8.24,945.96,21.15,
6522359,0.07,-0.08,0.94,1.53,24.11,7.63,945.93,21.15,
6522397,0.07,-0.07,0.96,1.22,22.64,7.93,945.89,21.14,
6522436,0.07,-0.08,0.98,0.79,21.61,7.45,945.83,21.12,
6522474,0.05,-0.09,1.0,-0.12,20.63,7.2,945.9,21.13,
6522512,0.06,-0.08,1.02,-0.55,19.29,7.08,945.86,21.14,
6522550,0.04,-0.09,0.98,-1.46,19.17,7.08,945.92,21.13,
6522589,0.06,-0.07,1.02,-1.65,17.64,6.77,945.99,21.15,
6522627,0.05,-0.07,1.02,-1.89,16.3,6.65,945.92,21.15,
6522665,0.03,-0.07,1.03,-1.89,14.28,6.23,945.97,21.15,
6522715,0.04,-0.06,1.07,-2.32,11.66,6.23,946.03,21.14,
6522753,0.03,-0.07,1.09,-2.38,9.77,6.29,946.11,21.15,
6522792,0.03,-0.08,1.06,-2.81,7.02,5.98,946.11,21.15,
6522830,0.02,-0.07,1.09,-2.75,4.82,5.86,946.08,21.14,
6522868,0.02,-0.08,1.09,-2.99,3.42,5.74,946.13,21.15,
6522906,-0.0,-0.07,1.12,-2.93,0.98,5.55,946.05,21.15,
6522945,-0.0,-0.08,1.11,-3.23,0.92,5.49,946.13,21.15,
6522983,-0.01,-0.08,1.13,-3.17,0.0,5.25,946.11,21.15,
6523021,-0.0,-0.07,1.21,-2.81,0.37,4.82,946.12,21.15,
6523059,-0.0,-0.07,1.19,-3.3,0.67,4.7,946.03,21.15,
6523109,-0.01,-0.07,1.32,-3.05,-0.92,4.7,946.07,21.12,
6523148,-0.01,-0.07,1.25,-3.3,-0.24,4.7,946.02,21.15,
6523186,0.0,-0.05,1.41,-3.05,-2.5,4.52,946.01,21.14,
6523224,0.02,-0.07,1.34,-3.54,-2.44,4.58,945.95,21.15,
6523262,-0.04,-0.05,1.35,-3.54,-4.58,4.58,945.89,21.15,
6523301,-0.05,-0.04,1.44,-3.23,-3.97,4.58,945.91,21.15,
6523339,-0.04,-0.06,1.39,-4.33,-6.53,4.58,945.72,21.15,
6523377,-0.08,-0.03,1.48,-4.27,-10.38,4.88,945.59,21.15,
6523415,-0.07,-0.08,1.4,-5.13,-11.9,5.43,945.48,21.15,
6523465,-0.09,-0.08,1.43,-5.74,-15.69,5.62,945.42,21.14,
6523504,-0.12,-0.05,1.38,-6.23,-17.21,6.35,945.41,21.15,
6523542,-0.08,-0.04,1.43,-6.29,-18.49,6.29,945.33,21.14,
6523580,-0.12,-0.06,1.34,-6.96,-18.68,6.65,945.34,21.15,
6523619,-0.14,-0.05,1.4,-7.02,-18.98,7.2,945.31,21.14,
6523657,-0.12,-0.05,1.43,-7.81,-18.01,7.26,945.26,21.14,
6523695,-0.09,-0.04,1.51,-7.63,-18.43,7.51,945.28,21.14,
6523733,-0.12,-0.04,1.56,-8.3,-17.46,7.63,945.24,21.15,
6523772,-0.13,-0.04,1.54,-8.91,-17.76,8.12,945.22,21.15,
6523849,-0.13,-0.01,1.63,-9.64,-18.37,8.67,945.26,21.12,
6523887,-0.11,-0.02,1.64,-10.07,-18.37,8.61,945.18,21.14,
6523925,-0.09,-0.02,1.65,-10.07,-18.86,8.79,945.22,21.14,
6524015,-0.11,-0.0,1.65,-9.95,-18.01,9.34,945.05,21.1,
6524054,-0.12,-0.01,1.63,-10.31,-18.07,9.4,945.17,21.13,
6524092,-0.13,-0.01,1.66,-10.44,-17.7,9.52,945.11,21.13,
6524130,-0.12,-0.03,1.61,-10.44,-17.09,9.58,945.13,21.13,
6524168,-0.14,-0.01,1.6,-10.74,-17.7,9.83,945.11,21.13,
6524207,-0.1,0.0,1.6,-10.86,-17.82,10.31,945.09,21.14,
6524257,-0.12,-0.0,1.55,-11.29,-17.09,10.56,945.04,21.12,
6524295,-0.14,0.01,1.52,-11.72,-16.42,10.99,945.02,21.13,
6524333,-0.14,0.02,1.6,-12.15,-15.62,11.35,945.01,21.13,
6524372,-0.12,0.03,1.67,-12.39,-14.22,11.41,945.0,21.13,
6524410,-0.12,0.03,1.75,-12.39,-11.96,10.99,945.05,21.13,
6524448,-0.13,0.02,1.78,-12.27,-11.66,11.23,945.07,21.13,
6524486,-0.11,-0.02,1.78,-12.15,-9.77,11.47,945.05,21.13,
6524525,-0.09,0.03,1.7,-12.02,-9.58,11.41,945.05,21.14,
6524563,-0.13,0.03,1.7,-11.17,-9.4,11.78,944.98,21.13,
6524613,-0.11,0.01,1.6,-10.62,-8.3,12.02,945.04,21.14,
6524651,-0.11,0.0,1.69,-9.95,-8.12,11.9,945.0,21.13,
6524689,-0.11,-0.04,1.58,-9.89,-7.51,12.63,945.01,21.14,
6524728,-0.11,-0.02,1.58,-9.58,-9.09,13.18,945.0,21.13,
6524766,-0.14,-0.02,1.51,-9.34,-7.57,13.61,944.95,21.13,
6524804,-0.11,-0.04,1.43,-9.4,-7.87,14.22,944.91,21.12,
6524843,-0.12,-0.03,1.43,-9.52,-8.0,14.71,944.9,21.14,
6524881,-0.11,-0.02,1.39,-9.77,-8.24,15.38,944.86,21.14,
6524919,-0.14,-0.02,1.38,-10.07,-8.42,15.69,944.88,21.14,
6524969,-0.11,-0.03,1.39,-10.62,-8.3,16.36,944.82,21.12,
6525007,-0.09,-0.04,1.45,-10.44,-9.09,16.54,944.86,21.14,
6525046,-0.12,-0.04,1.36,-11.11,-8.91,17.09,944.85,21.14,
6525084,-0.09,0.01,1.38,-10.93,-8.85,17.21,944.86,21.13,
6525122,-0.07,-0.02,1.3,-11.9,-7.51,17.46,944.83,21.14,
6525161,-0.09,-0.03,1.25,-11.96,-7.57,17.88,944.87,21.14,
6525199,-0.06,-0.03,1.17,-13.0,-6.9,18.13,944.88,21.13,
6525237,-0.04,-0.0,1.2,-12.76,-7.26,18.07,944.89,21.13,
6525276,-0.02,-0.03,1.17,-12.94,-6.41,17.88,944.86,21.14,
6525326,-0.03,-0.04,1.21,-13.31,-5.92,17.76,944.77,21.13,
6525364,-0.0,-0.02,1.2,-13.79,-4.76,17.82,944.76,21.14,
6525402,-0.03,-0.02,1.21,-14.28,-4.82,17.64,944.74,21.14,
6525441,-0.03,-0.02,1.18,-15.26,-3.48,17.64,944.73,21.14,
6525479,0.0,-0.0,1.21,-15.81,-2.81,17.09,944.59,21.13,
6525517,0.0,-0.01,1.24,-16.05,-1.53,17.03,944.64,21.14,
6525555,0.01,-0.01,1.24,-16.54,-1.4,17.03,944.56,21.13,
6525594,-0.01,0.0,1.3,-16.66,0.12,17.03,944.58,21.14,
6525632,0.0,0.02,1.33,-16.6,0.06,16.91,944.61,21.15,
6525682,0.02,0.0,1.39,-16.72,0.31,16.6,944.48,21.15,
6525720,-0.0,0.01,1.36,-16.66,0.79,16.36,944.54,21.15,
6525758,0.01,0.02,1.41,-16.48,1.46,16.36,944.51,21.15,
6525797,0.02,0.02,1.36,-16.48,1.95,15.93,944.51,21.13,
6525835,0.01,0.04,1.35,-16.54,2.08,15.75,944.43,21.15,
6525873,0.01,0.02,1.39,-16.3,3.48,15.62,944.41,21.14,
6525912,0.02,0.01,1.32,-16.72,4.21,15.32,944.45,21.14,
6525950,0.01,0.05,1.45,-15.93,3.36,15.26,944.39,21.14,
6525988,0.01,0.04,1.42,-16.3,5.43,14.83,944.35,21.14,
6526027,0.02,0.05,1.45,-16.05,5.13,14.47,944.36,21.15,
6526077,0.0,0.02,1.42,-16.11,8.18,13.92,944.29,21.14,
6526115,0.01,0.03,1.41,-15.87,8.24,13.49,944.33,21.14,
6526153,0.01,0.05,1.37,-16.11,8.97,13.79,944.33,21.15,
6526192,0.01,0.05,1.32,-15.69,8.91,13.31,944.31,21.13,
6526230,0.01,0.05,1.33,-15.62,9.64,13.37,944.27,21.15,
6526268,-0.0,0.03,1.33,-15.44,10.19,13.12,944.31,21.14,
6526307,-0.0,0.04,1.39,-14.83,9.95,12.94,944.29,21.15,
6526345,0.0,0.04,1.4,-14.53,10.13,13.12,944.3,21.16,
6526383,0.01,0.05,1.42,-13.61,10.31,13.12,944.28,21.16,
6526433,0.0,0.04,1.37,-13.18,10.74,13.12,944.24,21.13,
6526471,0.0,0.04,1.37,-12.94,10.31,13.0,944.18,21.15,
6526510,-0.0,0.04,1.28,-13.0,10.99,13.12,944.23,21.15,
6526548,-0.0,0.04,1.28,-12.27,11.05,13.06,944.23,21.15,
6526586,0.0,0.04,1.27,-12.33,12.39,13.0,944.27,21.16,
6526625,0.0,0.03,1.32,-11.54,11.54,13.06,944.2,21.15,
6526663,-0.01,0.02,1.32,-11.35,12.02,13.0,944.19,21.15,
6526701,-0.01,0.03,1.28,-11.11,11.47,13.24,944.2,21.15,
6526740,0.01,0.03,1.32,-11.05,12.02,13.06,944.2,21.15,
6526816,-0.02,0.03,1.3,-10.62,12.02,13.31,944.18,21.12,
6526854,-0.0,0.03,1.26,-10.31,12.51,13.31,944.17,21.13,
6526892,0.01,0.03,1.29,-10.07,12.27,13.18,944.24,21.14,
6526982,-0.0,0.03,1.29,-9.64,12.63,13.37,944.25,21.12,
6527020,-0.0,0.03,1.28,-9.64,13.24,13.49,944.14,21.12,
6527059,-0.0,0.03,1.3,-9.46,13.0,13.61,944.17,21.13,
6527097,-0.01,0.02,1.25,-9.64,13.06,13.61,944.2,21.14,
6527135,-0.0,0.02,1.25,-9.7,12.45,13.73,944.22,21.14,
6527174,-0.01,0.02,1.27,-9.64,12.39,13.98,944.22,21.12,
6527212,-0.0,0.02,1.22,-9.64,12.76,14.04,944.15,21.14,
6527262,-0.0,0.03,1.26,-9.46,12.39,13.92,944.14,21.12,
6527300,-0.01,0.02,1.26,-9.58,12.7,14.22,944.14,21.13,
6527338,-0.01,0.02,1.31,-9.34,12.21,14.22,944.15,21.14,
6527377,-0.0,0.03,1.32,-9.7,11.9,14.22,944.19,21.14,
6527415,0.0,0.04,1.36,-9.28,10.62,14.47,944.18,21.16,
6527453,-0.01,0.03,1.37,-9.4,10.07,14.59,944.18,21.15,
6527492,-0.01,0.04,1.43,-9.34,8.36,14.95,944.14,21.14,
6527530,-0.01,0.07,1.46,-9.58,8.12,15.01,944.21,21.14,
6527568,-0.01,0.07,1.44,-9.52,6.71,15.44,944.17,21.15,
6527618,-0.01,0.07,1.5,-9.77,5.13,15.69,944.17,21.13,
6527656,-0.01,0.05,1.45,-9.89,4.46,15.75,944.25,21.14,
6527695,-0.01,0.06,1.43,-10.01,4.46,15.87,944.24,21.15,
6527733,-0.0,0.07,1.42,-9.83,3.91,15.69,944.17,21.15,
6527771,-0.0,0.07,1.38,-9.64,3.36,15.81,944.21,21.15,
6527809,-0.01,0.05,1.39,-9.28,3.11,15.87,944.21,21.14,
6527848,-0.0,0.04,1.34,-9.22,3.11,15.56,944.24,21.15,
6527886,-0.01,0.05,1.39,-8.61,2.87,15.56,944.22,21.15,
6527924,-0.0,0.05,1.35,-8.73,3.66,15.56,944.27,21.16,
6527963,0.0,0.06,1.38,-8.67,2.99,15.44,944.26,21.15,
6528013,-0.01,0.04,1.38,-8.48,4.03,15.44,944.23,21.14,
6528051,0.0,0.05,1.37,-8.61,3.91,15.38,944.24,21.15,
6528089,0.0,0.05,1.38,-8.36,4.33,15.2,944.26,21.15,
6528127,-0.0,0.04,1.3,-8.3,4.33,15.2,944.19,21.15,
6528166,-0.0,0.04,1.33,-8.24,4.39,15.14,944.23,21.14,
6528204,0.0,0.02,1.27,-8.24,5.74,14.71,944.24,21.15,
6528242,0.0,0.03,1.29,-8.06,5.49,14.65,944.19,21.14,
6528281,0.01,0.03,1.26,-7.93,5.92,14.59,944.29,21.16,
6528319,-0.0,0.03,1.24,-7.51,5.74,14.34,944.25,21.15,
6528369,0.01,0.01,1.23,-7.32,7.26,14.16,944.26,21.15,
6528407,0.01,0.0,1.21,-7.32,7.02,13.85,944.27,21.14,
6528445,0.0,0.02,1.2,-7.2,7.26,13.67,944.27,21.15,
6528484,-0.0,0.02,1.19,-7.14,8.0,13.55,944.27,21.15,
6528522,0.02,0.01,1.2,-7.39,8.0,13.37,944.24,21.15,
6528560,0.01,0.0,1.2,-7.26,7.45,13.18,944.27,21.14,
6528598,0.0,0.01,1.2,-7.39,8.24,13.0,944.27,21.16,
6528637,-0.0,0.01,1.2,-7.26,8.24,13.12,944.34,21.14,
6528675,0.01,0.01,1.2,-7.02,8.06,12.88,944.32,21.15,
6528713,0.0,0.01,1.19,-6.84,7.51,12.88,944.35,21.15,
6528763,0.0,0.01,1.2,-6.71,7.81,12.88,944.36,21.14,
6528802,0.01,0.0,1.18,-6.9,7.93,12.63,944.33,21.14,
6528840,-0.0,0.01,1.22,-6.9,7.26,12.45,944.35,21.13,
6528878,-0.02,0.02,1.21,-6.9,7.75,12.39,944.37,21.15,
6528917,-0.0,0.03,1.26,-6.84,7.26,12.39,944.37,21.14,
6528955,-0.0,0.03,1.27,-6.9,7.14,12.57,944.42,21.16,
6528993,-0.02,0.03,1.3,-6.71,6.77,12.63,944.43,21.15,
6529032,-0.01,0.02,1.3,-6.65,6.59,12.51,944.46,21.16,
6529070,-0.0,0.03,1.33,-6.47,5.86,12.51,944.42,21.15,
6529120,-0.01,0.03,1.32,-6.16,5.13,12.57,944.46,21.13,
6529158,-0.02,0.03,1.32,-6.04,5.55,12.51,944.48,21.13,
6529196,-0.0,0.03,1.33,-5.55,4.94,12.33,944.5,21.14,
6529235,-0.01,0.03,1.32,-5.55,4.76,12.21,944.46,21.15,
6529273,-0.01,0.04,1.35,-5.25,4.21,12.27,944.49,21.15,
6529311,-0.02,0.02,1.33,-5.31,4.46,12.39,944.5,21.15,
6529350,-0.01,0.02,1.33,-4.94,3.78,12.15,944.47,21.14,
6529388,-0.03,0.02,1.32,-4.94,3.85,12.39,944.45,21.15,
6529426,-0.02,0.01,1.28,-4.82,3.66,12.39,944.51,21.15,
6529465,-0.02,0.02,1.29,-4.58,3.91,12.15,944.51,21.14,
6529515,-0.02,0.01,1.26,-4.27,3.72,12.45,944.5,21.14,
6529553,-0.02,0.0,1.27,-4.27,4.09,12.63,944.57,21.15,
6529591,-0.02,-0.0,1.25,-4.15,4.39,12.45,944.54,21.15,
6529630,-0.02,0.0,1.27,-4.15,3.78,12.82,944.51,21.14,
6529668,-0.03,-0.0,1.22,-4.09,4.39,12.76,944.55,21.15,
6529706,-0.02,-0.0,1.23,-4.21,4.15,12.7,944.55,21.15,
6529745,-0.01,-0.01,1.23,-4.76,4.88,12.63,944.54,21.14,
6529783,-0.02,-0.01,1.22,-5.13,4.52,12.94,944.61,21.15,
6529821,-0.02,-0.0,1.28,-5.25,4.7,12.88,944.61,21.16,
6529897,-0.01,-0.01,1.28,-5.49,4.94,12.63,944.54,21.11,
6529936,-0.01,-0.0,1.31,-5.74,4.39,12.7,944.62,21.13,
6529974,-0.02,-0.0,1.33,-5.8,4.21,12.76,944.53,21.14,
6530064,-0.02,-0.0,1.34,-5.98,3.11,13.0,944.51,21.1,
6530102,-0.01,-0.0,1.33,-6.35,2.81,12.88,944.56,21.11,
6530140,-0.01,0.0,1.34,-6.53,3.23,12.94,944.49,21.11,
6530179,-0.01,0.01,1.32,-6.84,3.97,12.88,944.58,21.13,
6530217,-0.01,0.01,1.32,-6.96,3.78,12.63,944.55,21.12,
6530255,-0.03,0.01,1.33,-6.71,4.15,12.82,944.55,21.12,
6530294,-0.02,0.0,1.35,-6.84,4.76,12.76,944.58,21.13,
6530343,-0.0,0.01,1.37,-6.47,5.55,12.45,944.6,21.12,
6530382,-0.02,0.01,1.37,-6.1,5.31,12.7,944.61,21.12,
6530420,-0.02,0.01,1.36,-5.74,5.8,12.45,944.64,21.14,
6530458,0.0,-0.0,1.36,-5.43,6.53,12.39,944.6,21.13,
6530497,-0.01,-0.0,1.32,-5.13,6.53,12.27,944.61,21.13,
6530535,-0.02,0.0,1.28,-5.13,7.2,12.27,944.66,21.13,
6530573,-0.01,0.0,1.27,-4.88,7.57,12.08,944.59,21.14,
6530611,0.0,-0.01,1.25,-4.7,8.24,11.9,944.63,21.14,
6530650,0.0,-0.02,1.21,-4.64,8.0,12.02,944.67,21.14,
6530700,-0.01,-0.02,1.19,-4.46,8.3,11.78,944.61,21.13,
6530738,-0.01,-0.01,1.15,-4.52,8.3,11.72,944.63,21.14,
6530776,-0.01,-0.02,1.14,-4.09,7.08,11.66,944.71,21.13,
6530814,-0.01,-0.04,1.13,-4.52,7.08,11.84,944.74,21.15,
6530853,0.0,-0.03,1.1,-4.76,5.98,11.47,944.71,21.14,
6530891,-0.01,-0.02,1.16,-4.82,4.88,11.66,944.7,21.13,
6530929,-0.01,-0.03,1.09,-5.37,4.33,11.72,944.68,21.15,
6530968,-0.01,-0.01,1.18,-5.25,2.62,11.47,944.75,21.14,
6531006,-0.03,-0.02,1.14,-5.37,2.62,11.35,944.68,21.15,
6531056,-0.02,-0.02,1.2,-5.13,1.53,11.29,944.72,21.13,
6531094,-0.01,-0.02,1.21,-5.25,1.34,10.99,944.71,21.15,
6531132,-0.02,-0.02,1.17,-5.25,1.16,11.11,944.74,21.13,
6531171,-0.02,-0.02,1.17,-5.19,1.22,11.29,944.76,21.14,
6531209,-0.02,-0.01,1.15,-4.88,0.85,10.86,944.73,21.14,
6531247,-0.03,-0.01,1.19,-4.52,0.37,10.93,944.74,21.14,
6531286,-0.03,-0.02,1.17,-3.97,-0.24,10.68,944.79,21.16,
6531324,-0.02,-0.02,1.16,-3.85,-1.04,10.68,944.74,21.14,
6531362,-0.02,-0.02,1.22,-3.48,-0.98,10.38,944.74,21.14,
6531400,-0.01,-0.02,1.15,-3.6,-1.04,10.74,944.73,21.15,
6531450,-0.02,-0.02,1.19,-3.05,-2.26,10.68,944.76,21.14,
6531489,-0.03,-0.01,1.19,-3.05,-2.75,10.5,944.75,21.13,
6531527,-0.02,-0.01,1.2,-2.93,-2.62,10.44,944.74,21.14,
6531565,-0.01,-0.01,1.24,-2.93,-3.42,10.25,944.77,21.14,
6531604,-0.02,-0.02,1.25,-2.93,-3.42,10.13,944.77,21.14,
6531642,-0.03,-0.01,1.2,-3.05,-3.48,10.07,944.79,21.16,
6531680,-0.01,-0.01,1.23,-2.99,-3.3,9.83,944.86,21.14,
6531718,-0.03,-0.01,1.22,-2.75,-3.48,9.89,944.79,21.15,
6531757,-0.04,-0.02,1.2,-2.81,-3.72,9.95,944.75,21.14,
6531807,-0.01,-0.01,1.2,-2.93,-4.15,9.64,944.78,21.14,
6531845,-0.04,-0.02,1.16,-3.42,-4.33,9.7,944.79,21.14,
6531883,-0.03,-0.02,1.16,-3.91,-4.64,9.58,944.8,21.15,
6531921,-0.02,-0.01,1.19,-3.85,-4.27,9.58,944.8,21.15,
6531960,-0.0,-0.01,1.15,-4.33,-3.66,9.34,944.83,21.15,
6531998,-0.02,-0.02,1.18,-4.33,-3.66,9.4,944.79,21.13,
6532036,-0.02,-0.02,1.15,-4.27,-2.75,9.46,944.81,21.15,
6532075,-0.02,-0.03,1.15,-3.97,-2.69,9.22,944.84,21.15,
6532113,-0.02,-0.03,1.14,-4.21,-2.26,8.97,944.91,21.15,
6532163,-0.03,-0.03,1.14,-3.78,-2.5,9.22,944.78,21.13,
6532201,-0.02,-0.03,1.15,-3.85,-1.59,9.16,944.86,21.13,
6532239,-0.02,-0.03,1.17,-3.85,-1.53,8.91,944.84,21.14,
6532278,-0.02,-0.03,1.22,-3.78,-1.16,9.28,944.81,21.14,
6532316,-0.03,-0.05,1.18,-3.91,-0.85,9.22,944.81,21.14,
6532354,-0.03,-0.03,1.19,-4.03,-0.12,9.22,944.87,21.14,
6532393,-0.02,-0.03,1.16,-3.91,0.67,9.22,944.85,21.15,
6532431,-0.03,-0.03,1.15,-4.03,0.31,9.46,944.91,21.16,
6532469,-0.04,-0.04,1.14,-4.21,0.37,9.46,944.81,21.14,
6532519,-0.03,-0.04,1.15,-4.09,0.49,9.7,944.89,21.13,
6532557,-0.04,-0.05,1.14,-4.39,0.85,9.89,944.92,21.15,
6532596,-0.04,-0.03,1.15,-4.46,0.55,10.01,944.91,21.15,
6532634,-0.03,-0.03,1.18,-4.64,1.04,10.07,944.91,21.15,
6532672,-0.03,-0.04,1.17,-4.64,1.04,10.44,944.91,21.14,
6532710,-0.02,-0.02,1.18,-4.82,0.55,10.5,944.86,21.14,
6532748,-0.05,-0.03,1.16,-5.0,0.73,10.74,944.93,21.15,
6532787,-0.04,-0.03,1.18,-5.25,1.16,10.99,944.94,21.15,
6532825,-0.04,-0.03,1.19,-5.37,0.49,11.05,944.92,21.14,
6532863,-0.04,-0.02,1.2,-5.43,0.73,11.23,944.9,21.13,
6532939,-0.02,-0.02,1.24,-5.55,1.34,11.84,944.9,21.1,
6532978,-0.02,-0.03,1.2,-5.62,1.59,11.72,944.95,21.13,
6533016,-0.03,-0.02,1.25,-5.55,1.71,11.96,944.94,21.14,
6533106,-0.03,-0.03,1.23,-5.55,1.59,12.21,945.01,21.1,
6533144,-0.02,-0.02,1.24,-5.68,2.2,12.39,945.0,21.11,
6533182,-0.03,-0.03,1.22,-5.68,2.2,12.45,944.98,21.11,
6533221,-0.03,-0.03,1.25,-5.74,1.89,12.57,945.0,21.13,
6533259,-0.03,-0.02,1.24,-5.68,2.38,12.63,945.0,21.12,
6533297,-0.02,-0.03,1.25,-5.74,2.26,12.63,944.97,21.12,
6533347,-0.02,-0.03,1.27,-5.62,2.75,12.82,944.97,21.11,
6533385,-0.02,-0.02,1.26,-5.68,2.08,12.94,944.96,21.12,
6533424,-0.01,-0.01,1.32,-5.74,1.95,13.12,945.02,21.13,
6533462,0.0,-0.02,1.3,-5.8,1.95,13.31,944.98,21.13,
6533500,-0.02,-0.01,1.31,-5.68,1.65,13.31,944.98,21.12,
6533539,-0.01,-0.02,1.32,-5.68,1.04,13.43,945.02,21.14,
6533577,0.0,-0.01,1.33,-5.74,0.67,13.31,945.03,21.13,
6533615,-0.01,-0.01,1.35,-5.55,0.61,13.37,944.93,21.13,
6533653,-0.01,-0.01,1.35,-5.8,1.22,13.37,945.02,21.15,
6533703,-0.0,-0.01,1.39,-5.8,0.73,13.31,944.98,21.13,
6533741,-0.01,-0.01,1.43,-5.8,1.59,13.12,944.98,21.13,
6533780,0.01,-0.01,1.39,-6.04,1.77,13.06,945.06,21.14,
6533818,0.0,-0.0,1.46,-5.86,1.53,12.94,945.01,21.14,
6533856,-0.0,-0.01,1.44,-5.8,1.89,12.76,944.98,21.13,
6533894,0.02,-0.01,1.46,-5.68,1.77,12.82,945.01,21.14,
6533933,0.02,-0.01,1.41,-5.55,2.26,12.7,944.95,21.13,
6533971,0.0,-0.0,1.44,-5.43,1.4,12.82,945.05,21.15,
6534009,0.01,-0.02,1.39,-5.55,2.81,12.63,945.04,21.14,
6534048,0.01,-0.01,1.41,-5.74,2.38,12.21,944.99,21.14,
6534098,0.03,-0.01,1.39,-5.68,4.15,11.9,945.03,21.14,
6534136,0.02,-0.01,1.41,-5.49,2.26,11.9,945.08,21.14,
6534174,0.02,-0.02,1.41,-5.74,3.54,11.66,945.08,21.14,
6534213,0.03,-0.01,1.35,-5.68,2.87,11.54,945.11,21.13,
6534251,0.02,-0.01,1.37,-5.98,2.5,11.47,945.1,21.15,
6534289,0.01,-0.01,1.35,-5.98,1.77,11.41,945.11,21.14,
6534327,0.01,-0.01,1.36,-5.92,1.95,11.29,945.15,21.14,
6534366,0.02,-0.01,1.34,-6.1,2.5,10.93,945.13,21.15,
6534404,0.03,-0.01,1.37,-6.1,2.08,10.86,945.22,21.14,
6534454,0.0,-0.03,1.28,-6.16,2.38,10.68,945.19,21.14,
6534492,-0.01,-0.01,1.31,-6.16,1.95,10.68,945.07,21.13,
6534531,0.0,-0.03,1.29,-5.98,2.69,10.62,945.19,21.15,
6534569,0.01,-0.02,1.28,-6.04,1.28,10.62,945.13,21.15,
6534607,0.01,-0.01,1.35,-5.86,0.79,10.74,945.2,21.15,
6534645,-0.02,-0.02,1.31,-6.16,0.61,10.74,945.14,21.15,
6534684,0.0,-0.01,1.38,-5.98,0.06,10.68,945.2,21.16,
6534722,0.0,-0.01,1.38,-6.1,-0.06,10.68,945.25,21.15,
6534760,0.0,-0.02,1.41,-5.8,-0.49,10.56,945.19,21.15,
6534799,0.02,-0.03,1.31,-5.92,0.24,10.56,945.17,21.16,
6534848,0.01,-0.02,1.37,-5.43,-0.67,10.56,945.2,21.14,
6534887,0.02,-0.02,1.3,-5.43,-0.55,10.44,945.19,21.15,
6534925,-0.01,-0.01,1.33,-4.94,-1.16,10.38,945.19,21.15,
6534963,0.01,-0.02,1.34,-5.13,-0.12,10.38,945.15,21.15,
6535001,0.01,-0.02,1.33,-4.82,-0.73,10.25,945.24,21.16,
6535040,0.0,-0.02,1.34,-4.82,-0.24,9.89,945.18,21.15,
6535078,0.0,-0.02,1.3,-4.76,-0.24,10.07,945.18,21.15,
6535116,-0.0,-0.03,1.3,-4.94,0.31,10.07,945.19,21.16,
6535154,0.0,-0.04,1.24,-5.19,0.79,9.83,945.2,21.15,
6535204,0.01,-0.02,1.24,-5.25,1.04,9.77,945.21,21.15,
6535243,0.01,-0.03,1.22,-5.74,1.34,9.64,945.23,21.16,
6535281,-0.0,-0.03,1.23,-5.62,1.59,9.58,945.23,21.16,
6535319,-0.02,-0.05,1.19,-5.37,2.26,9.64,945.21,21.15,
6535357,-0.0,-0.05,1.18,-5.62,2.08,9.58,945.21,21.15,
6535396,-0.01,-0.03,1.19,-5.49,2.26,9.64,945.31,21.16,
6535434,-0.0,-0.04,1.15,-5.43,2.5,9.64,945.26,21.17,
6535472,0.0,-0.04,1.14,-5.98,2.69,9.58,945.26,21.16,
6535510,-0.01,-0.04,1.15,-5.98,2.75,9.52,945.27,21.16,
6535549,0.0,-0.04,1.15,-6.1,3.23,9.7,945.24,21.16,
6535599,-0.01,-0.03,1.2,-6.29,2.75,9.64,945.26,21.14,
6535637,0.01,-0.04,1.18,-6.71,3.78,9.46,945.28,21.15,
6535675,0.0,-0.03,1.2,-6.59,3.05,9.52,945.3,21.15,
6535714,0.0,-0.03,1.17,-6.71,3.85,9.34,945.31,21.15,
6535752,0.01,-0.04,1.11,-6.41,2.93,9.58,945.41,21.16,
6535790,-0.02,-0.05,1.08,-6.16,3.36,9.46,945.34,21.16,
6535828,-0.01,-0.04,1.04,-6.16,3.72,9.28,945.37,21.15,
6535867,-0.01,-0.05,1.07,-5.74,3.97,9.28,945.33,21.16,
6535905,-0.0,-0.05,1.03,-5.86,4.94,9.28,945.37,21.16,
6535981,-0.02,-0.04,1.08,-5.62,5.19,9.34,945.32,21.13,
6536019,-0.03,-0.04,1.12,-5.86,4.64,9.28,945.41,21.14,
6536057,-0.02,-0.04,1.16,-5.8,5.43,9.4,945.43,21.15,
6536147,-0.01,-0.02,1.24,-5.92,6.71,9.46,945.41,21.11,
6536186,-0.03,-0.02,1.25,-5.92,7.14,9.64,945.41,21.13,
6536224,-0.03,-0.03,1.25,-5.8,7.51,9.77,945.39,21.13,
6536262,-0.02,-0.02,1.28,-5.74,6.84,9.89,945.45,21.15,
6536300,-0.03,-0.03,1.26,-5.86,6.65,10.19,945.47,21.14,
6536339,-0.02,-0.02,1.28,-5.37,5.31,10.25,945.46,21.15,
6536377,-0.03,-0.02,1.31,-5.19,4.94,10.62,945.48,21.16,
6536427,-0.03,-0.03,1.31,-4.82,3.17,10.99,945.43,21.14,
6536465,-0.04,-0.03,1.32,-4.52,2.32,10.99,945.4,21.14,
6536503,-0.04,-0.03,1.31,-4.64,1.28,11.29,945.48,21.15,
6536542,-0.03,-0.03,1.32,-4.27,0.79,11.47,945.42,21.14,
6536580,-0.03,-0.04,1.28,-4.39,0.37,11.41,945.53,21.15,
6536618,-0.04,-0.04,1.27,-4.33,-0.06,11.6,945.45,21.16,
6536657,-0.04,-0.02,1.25,-4.21,0.43,11.6,945.45,21.16,
6536695,-0.03,-0.02,1.28,-4.58,0.79,11.41,945.42,21.16,
6536733,-0.02,-0.03,1.29,-4.76,1.34,11.47,945.5,21.16,
6536783,-0.04,-0.02,1.37,-5.0,1.95,11.54,945.42,21.15,
6536821,-0.04,-0.03,1.41,-5.49,4.15,11.47,945.45,21.15,
6536860,-0.05,-0.01,1.41,-5.62,4.58,11.47,945.42,21.15,
6536898,-0.03,-0.01,1.44,-5.62,5.0,11.78,945.42,21.16,
6536936,-0.02,-0.02,1.39,-6.1,5.68,11.78,945.49,21.16,
6536975,0.0,-0.0,1.44,-5.86,5.68,11.72,945.46,21.14,
6537013,-0.0,-0.0,1.5,-5.37,5.37,11.72,945.51,21.16,
6537051,-0.01,-0.01,1.46,-5.19,4.64,12.15,945.54,21.16,
6537089,-0.01,-0.01,1.5,-5.19,3.48,12.21,945.49,21.15,
6537139,-0.01,-0.01,1.48,-5.19,3.97,11.9,945.46,21.14,
6537177,-0.01,-0.01,1.48,-5.31,2.44,11.66,945.52,21.16,
6537216,-0.01,0.0,1.52,-5.19,2.38,11.78,945.54,21.15,
6537254,0.02,0.0,1.52,-5.49,1.89,11.78,945.51,21.14,
6537292,0.01,-0.0,1.55,-5.55,2.01,11.66,945.5,21.15,
6537330,-0.0,-0.03,1.5,-5.68,1.95,11.6,945.52,21.16,
6537369,-0.0,-0.02,1.45,-5.62,1.4,11.6,945.5,21.16,
6537407,0.0,-0.01,1.44,-5.37,0.67,11.29,945.47,21.16,
6537445,0.01,-0.01,1.45,-5.43,0.92,11.17,945.55,21.16,
6537483,0.03,-0.01,1.47,-5.98,1.83,10.8,945.55,21.15,
6537533,0.02,-0.01,1.61,-5.92,0.55,11.05,945.49,21.15,
6537572,-0.03,-0.05,1.45,-6.23,1.46,10.93,945.48,21.15,
6537610,-0.03,-0.04,1.48,-6.35,2.26,10.5,945.5,21.16,
6537648,0.03,-0.04,1.56,-5.49,3.3,10.31,945.48,21.15,
6537687,-0.0,-0.06,1.32,-5.74,3.17,10.25,945.48,21.16,
6537725,0.0,-0.02,1.37,-5.49,2.38,10.38,945.48,21.16,
6537763,0.03,-0.06,1.26,-5.07,5.92,9.64,945.5,21.16,
6537801,0.02,-0.07,1.15,-4.88,5.0,9.64,945.44,21.16,
6537840,0.02,-0.08,1.16,-4.52,6.23,9.95,945.46,21.17,
6537890,0.04,-0.06,1.11,-4.88,7.32,8.79,945.41,21.15,
6537928,0.02,-0.04,1.18,-5.25,8.12,9.03,945.38,21.15,
6537966,0.05,-0.08,1.08,-6.04,8.0,9.4,945.39,21.14,
6538004,0.08,-0.06,1.22,-5.98,5.13,8.48,945.41,21.16,
6538043,0.01,-0.07,1.27,-6.23,5.49,8.54,945.38,21.16,
6538081,0.05,-0.07,1.25,-5.74,4.82,8.48,945.35,21.16,
6538119,0.06,-0.04,1.3,-5.98,5.37,7.93,945.33,21.16,
6538158,0.02,-0.04,1.21,-5.98,5.62,7.87,945.38,21.16,
6538196,0.0,-0.05,1.29,-5.68,4.94,8.0,945.43,21.16,
6538234,0.04,-0.07,1.27,-5.68,6.35,7.39,945.44,21.16,
6538284,0.01,-0.04,1.33,-5.31,5.31,7.08,945.46,21.15,
6538322,0.03,-0.06,1.27,-5.49,6.96,6.84,945.45,21.16,
6538361,0.01,-0.04,1.28,-5.13,6.35,6.77,945.51,21.18,
6538399,-0.0,-0.04,1.31,-5.25,7.51,6.41,945.47,21.16,
6538437,-0.02,-0.05,1.29,-5.25,7.57,6.84,945.48,21.16,
6538475,0.0,-0.04,1.33,-5.25,8.12,6.41,945.44,21.16,
6538514,-0.01,-0.04,1.29,-5.19,9.03,6.29,945.49,21.17,
6538552,-0.01,-0.03,1.36,-4.82,8.3,6.35,945.47,21.17,
6538590,-0.02,-0.06,1.28,-4.94,7.87,6.23,945.5,21.18,
6538640,-0.03,-0.03,1.33,-4.27,7.51,6.59,945.51,21.16,
6538679,0.01,-0.04,1.35,-4.03,7.26,6.65,945.47,21.16,
6538717,-0.0,-0.03,1.38,-3.48,4.46,6.71,945.49,21.16,
6538755,-0.04,-0.04,1.34,-3.42,4.33,6.9,945.45,21.17,
6538794,-0.01,-0.03,1.4,-2.87,4.27,6.9,945.54,21.16,
6538832,-0.0,-0.05,1.34,-2.87,4.58,6.96,945.48,21.17,
6538870,-0.03,-0.02,1.33,-2.14,2.44,6.96,945.46,21.16,
6538908,-0.04,-0.02,1.34,-2.01,2.44,7.26,945.49,21.18,
6538946,-0.04,-0.03,1.36,-1.71,3.48,7.08,945.43,21.17,
6538985,-0.01,-0.03,1.39,-1.83,3.54,7.02,945.35,21.17,
6539061,-0.04,-0.04,1.4,-1.83,3.54,7.26,945.44,21.15,
6539099,-0.03,-0.07,1.33,-1.77,3.48,7.26,945.4,21.15,
6539137,-0.01,-0.04,1.35,-0.98,2.38,7.32,945.39,21.16,
6539227,-0.02,-0.05,1.14,-0.55,2.69,7.45,945.41,21.12,
6539265,-0.02,-0.06,1.08,-0.79,4.21,7.57,945.37,21.14,
6539304,-0.01,-0.07,1.08,-0.55,4.27,8.0,945.27,21.14,
6539342,-0.01,-0.07,1.06,-0.31,6.1,7.75,945.27,21.15,
6539380,-0.02,-0.06,1.02,0.0,8.73,7.69,945.24,21.15,
6539418,-0.02,-0.06,1.01,0.24,10.07,7.87,945.27,21.15,
6539468,0.0,-0.08,0.9,0.24,13.0,7.63,945.24,21.14,
6539507,0.0,-0.07,0.89,0.67,14.83,7.51,945.2,21.15,
6539545,0.04,-0.07,0.84,0.61,16.85,7.39,945.17,21.15,
6539583,0.04,-0.06,0.84,0.79,16.78,7.39,945.17,21.15,
6539621,0.04,-0.07,0.86,1.04,17.09,7.39,945.1,21.16,
6539660,0.04,-0.09,0.83,0.67,17.64,7.02,945.12,21.17,
6539698,0.05,-0.07,0.87,0.79,16.97,6.77,945.01,21.16,
6539736,0.04,-0.07,0.84,0.73,16.85,6.71,945.07,21.16,
6539774,0.04,-0.07,0.84,0.85,16.42,6.53,945.05,21.16,
6539813,0.04,-0.08,0.82,0.67,16.66,6.41,945.05,21.17,
6539863,0.04,-0.06,0.84,0.73,15.38,6.16,945.05,21.15,
6539901,0.04,-0.06,0.87,0.73,15.14,6.16,945.03,21.16,
6539939,0.04,-0.07,0.89,0.43,14.71,5.92,945.12,21.18,
6539978,0.04,-0.07,0.94,0.49,14.28,5.74,945.08,21.16,
6540016,0.04,-0.06,0.98,0.43,13.12,5.62,945.07,21.17,
6540054,0.04,-0.06,1.0,0.18,11.47,5.49,945.11,21.17,
6540092,0.01,-0.06,1.02,-0.18,9.89,5.49,945.09,21.17,
6540131,-0.01,-0.07,1.1,0.06,8.48,5.13,945.16,21.18,
6540169,0.01,-0.06,1.11,-0.67,6.65,4.76,945.22,21.18,
6540207,0.01,-0.05,1.15,-0.85,4.46,4.88,945.18,21.17,
6540257,-0.01,-0.06,1.12,-0.92,3.05,4.76,945.19,21.16,
6540296,-0.02,-0.05,1.14,-0.85,3.11,4.52,945.17,21.17,
6540334,-0.02,-0.04,1.18,-0.85,2.5,4.64,945.23,21.17,
6540372,-0.05,-0.04,1.2,-0.37,1.65,4.7,945.18,21.17,
6540410,-0.04,-0.06,1.21,-0.24,1.22,4.76,945.16,21.18,
6540449,-0.03,-0.05,1.22,-0.12,0.98,4.7,945.16,21.18,
6540487,-0.04,-0.05,1.2,0.12,0.43,5.0,945.16,21.18,
6540525,-0.04,-0.05,1.14,0.12,0.31,4.82,945.16,21.18,
6540563,-0.03,-0.06,1.13,0.0,0.49,5.07,945.12,21.17,
6540613,-0.04,-0.05,1.06,0.0,-1.28,5.37,945.12,21.18,
6540652,-0.06,-0.06,0.99,-0.24,-1.34,5.43,945.07,21.18,
6540690,-0.04,-0.05,1.03,-0.37,-2.5,5.31,945.07,21.16,
6540728,-0.04,-0.07,1.04,-0.49,-1.89,5.31,945.06,21.17,
6540766,-0.04,-0.06,1.06,-0.73,-2.56,5.37,944.97,21.17,
6540805,-0.06,-0.06,1.06,-0.43,-2.14,5.31,944.97,21.17,
6540843,-0.06,-0.05,1.1,-0.43,-2.14,5.55,945.0,21.18,
6540881,-0.06,-0.06,1.14,-0.12,-2.01,5.49,944.96,21.17,
6540920,-0.07,-0.06,1.13,-0.31,-1.46,5.49,945.0,21.18,
6540958,-0.07,-0.05,1.18,0.18,-1.22,5.49,945.02,21.19,
6541008,-0.08,-0.07,1.09,0.18,-1.1,5.86,944.96,21.17,
6541046,-0.07,-0.06,1.09,0.06,-1.59,5.98,945.0,21.18,
6541084,-0.07,-0.06,1.03,-0.12,-0.61,6.1,944.99,21.17,
6541123,-0.05,-0.06,0.95,-0.31,-0.18,6.23,944.99,21.17,
6541161,-0.07,-0.05,0.95,0.12,-0.31,6.47,945.0,21.18,
6541199,-0.06,-0.08,0.89,-0.24,-0.43,6.53,944.99,21.19,
6541237,-0.06,-0.08,0.85,-0.18,-0.98,6.65,944.96,21.18,
6541276,-0.05,-0.08,0.77,-0.06,-1.04,6.77,944.92,21.18,
6541314,-0.05,-0.07,0.73,-0.73,-1.71,6.96,944.99,21.18,
6541364,-0.06,-0.08,0.59,-0.79,-0.92,7.08,944.99,21.17,
6541402,-0.09,-0.08,0.56,-0.79,-1.95,7.08,944.92,21.16,
6541440,-0.09,-0.07,0.53,-0.73,-1.22,7.32,944.87,21.18,
6541479,-0.06,-0.07,0.55,-1.16,-0.92,7.45,944.91,21.18,
6541517,-0.05,-0.07,0.57,-1.16,-0.55,7.57,944.92,21.18,
6541555,-0.06,-0.08,0.59,-1.22,0.06,7.69,944.91,21.18,
6541593,-0.05,-0.07,0.64,-1.59,0.55,7.45,944.98,21.17,
6541632,-0.05,-0.06,0.75,-1.59,0.31,7.69,944.92,21.18,
6541670,-0.06,-0.07,0.83,-1.83,0.12,8.0,944.93,21.18,
6541720,-0.06,-0.06,1.04,-1.95,-0.85,7.93,944.91,21.17,
6541758,-0.03,-0.06,1.15,-2.62,-1.04,8.06,944.94,21.17,
6541796,-0.03,-0.05,1.23,-2.62,-2.08,8.12,944.91,21.15,
6541835,-0.05,-0.03,1.28,-2.69,-2.62,8.36,944.94,21.17,
6541873,-0.02,-0.03,1.38,-2.75,-2.62,8.36,944.93,21.18,
6541911,-0.03,-0.02,1.42,-3.05,-3.6,8.36,944.89,21.18,
6541950,-0.06,-0.01,1.44,-2.93,-3.48,8.18,944.83,21.18,
6541988,-0.03,0.0,1.49,-3.11,-2.08,7.87,944.92,21.18,
6542026,-0.02,0.01,1.52,-3.3,-1.1,7.26,944.92,21.18,
6542065,-0.04,0.0,1.55,-2.75,-0.79,7.39,944.88,21.17,
6542141,-0.03,-0.0,1.52,-2.32,2.75,6.71,944.9,21.15,
6542179,-0.03,0.0,1.44,-2.14,3.48,6.59,944.9,21.16,
6542217,-0.03,0.01,1.42,-1.65,3.42,6.29,944.9,21.16,
6542307,-0.03,-0.01,1.36,-0.79,4.88,5.98,944.83,21.14,
6542345,-0.03,-0.0,1.38,-0.67,3.66,6.1,944.8,21.15,
6542384,-0.05,-0.0,1.38,-0.73,2.99,6.29,944.84,21.15,
6542422,-0.06,-0.01,1.41,-0.61,2.26,6.23,944.78,21.16,
6542460,-0.05,-0.03,1.41,-0.79,2.2,6.23,944.76,21.15,
6542498,-0.05,-0.01,1.42,-0.55,0.24,6.04,944.73,21.15,
6542548,-0.09,-0.02,1.3,-0.67,1.16,6.59,944.87,21.15,
6542587,-0.06,-0.03,1.26,-0.73,0.85,6.65,944.8,21.16,
6542625,-0.06,-0.04,1.21,-0.55,0.49,6.47,944.8,21.17,
6542663,-0.07,-0.03,1.14,-0.55,-0.18,6.84,944.77,21.16,
6542701,-0.06,-0.03,1.14,-0.43,0.18,6.9,944.72,21.16,
6542740,-0.05,-0.04,1.11,-0.67,-0.31,6.84,944.74,21.17,
6542778,-0.07,-0.05,1.14,-0.24,-1.4,7.02,944.73,21.17,
6542816,-0.07,-0.06,1.07,-0.67,-1.04,7.32,944.73,21.16,
6542855,-0.07,-0.04,1.09,-0.49,-1.89,7.26,944.71,21.18,
6542893,-0.07,-0.04,0.99,-1.04,-0.67,7.45,944.73,21.18,
6542943,-0.08,-0.04,1.0,-0.61,-0.73,7.32,944.77,21.16,
6542981,-0.06,-0.07,0.96,-0.79,0.79,7.45,944.73,21.18,
6543019,-0.07,-0.05,0.99,-0.79,0.31,7.51,944.79,21.17,
6543058,-0.07,-0.05,0.96,-0.73,1.89,7.75,944.73,21.17,
6543096,-0.07,-0.04,0.93,-0.67,1.46,7.63,944.76,21.19,
6543134,-0.06,-0.06,0.94,-0.43,1.95,7.75,944.69,21.16,
6543173,-0.06,-0.06,0.9,-0.92,2.08,8.0,944.69,21.18,
6543211,-0.07,-0.05,0.95,-0.43,1.89,8.06,944.67,21.19,
6543249,-0.05,-0.05,0.92,-0.92,2.62,8.18,944.6,21.18,
6543299,-0.07,-0.04,0.96,-0.85,1.95,8.24,944.65,21.17,
6543337,-0.06,-0.06,0.96,-0.92,2.14,8.42,944.58,21.17,
6543376,-0.07,-0.06,0.98,-0.61,2.2,8.42,944.66,21.19,
6543414,-0.07,-0.05,0.98,-0.92,2.56,8.61,944.58,21.19,
6543452,-0.06,-0.04,1.01,-0.61,2.38,8.61,944.57,21.18,
6543490,-0.07,-0.05,1.0,-0.79,3.11,8.85,944.64,21.19,
6543529,-0.07,-0.05,0.99,-0.79,3.05,8.73,944.61,21.18,
6543567,-0.07,-0.05,0.98,-0.55,3.3,9.22,944.62,21.19,
6543605,-0.07,-0.04,0.94,-0.98,2.2,9.22,944.58,21.18,
6543644,-0.07,-0.04,0.95,-0.79,1.89,9.34,944.56,21.18,
6543694,-0.06,-0.06,0.91,-1.4,1.89,9.4,944.53,21.17,
6543732,-0.06,-0.05,0.93,-1.46,0.92,9.58,944.61,21.18,
6543770,-0.06,-0.05,0.92,-2.08,1.4,9.83,944.59,21.17,
6543808,-0.07,-0.05,0.9,-2.01,1.22,9.77,944.6,21.18,
6543847,-0.06,-0.05,0.91,-2.14,1.77,9.77,944.57,21.18,
6543885,-0.05,-0.06,0.91,-2.2,1.34,9.89,944.53,21.17,
6543923,-0.07,-0.05,0.91,-2.56,2.08,9.77,944.54,21.17,
6543962,-0.06,-0.05,0.9,-2.44,2.56,9.89,944.54,21.17,
6544000,-0.05,-0.05,0.95,-2.08,2.32,9.64,944.51,21.18,
6544050,-0.05,-0.06,0.97,-2.2,1.71,10.07,944.56,21.18,
6544088,-0.06,-0.05,1.01,-2.08,1.53,9.95,944.55,21.17,
6544126,-0.04,-0.06,1.02,-2.56,1.53,10.01,944.55,21.18,
6544165,-0.05,-0.05,1.11,-1.95,0.06,10.19,944.61,21.18,
6544203,-0.05,-0.06,1.13,-2.56,-0.31,10.38,944.54,21.18,
6544241,-0.03,-0.05,1.17,-2.87,-1.89,10.5,944.49,21.18,
6544280,-0.03,-0.04,1.25,-3.05,-2.5,10.38,944.53,21.18,
6544318,-0.04,-0.04,1.27,-3.42,-2.44,10.38,944.5,21.18,
6544356,-0.03,-0.05,1.31,-3.66,-1.4,10.31,944.49,21.18,
6544406,-0.03,-0.03,1.26,-4.39,0.24,9.89,944.48,21.16,
6544445,-0.04,-0.03,1.29,-4.39,0.79,9.77,944.45,21.18,
6544483,-0.04,-0.04,1.25,-4.94,2.14,9.58,944.48,21.17,
6544521,-0.03,-0.02,1.33,-5.07,1.28,9.52,944.53,21.19,
6544559,-0.03,-0.01,1.4,-4.76,0.92,9.52,944.43,21.18,
6544598,-0.04,-0.02,1.4,-4.88,0.24,9.58,944.47,21.18,
6544636,-0.02,-0.02,1.5,-4.64,-0.61,9.58,944.48,21.17,
6544674,-0.03,-0.03,1.49,-4.88,-1.4,9.7,944.44,21.17,
6544713,-0.04,-0.02,1.43,-4.88,-2.69,10.07,944.44,21.18,
6544751,-0.03,-0.01,1.38,-5.55,-2.99,9.77,944.47,21.18,
6544801,-0.01,-0.01,1.37,-5.68,-4.52,9.7,944.44,21.16,
6544839,-0.04,-0.04,1.31,-6.1,-5.49,9.95,944.42,21.16,
6544878,-0.01,-0.04,1.34,-6.29,-5.86,9.83,944.42,21.18,
6544916,-0.02,-0.03,1.39,-6.23,-5.8,9.64,944.39,21.17,
6544954,-0.02,-0.01,1.42,-6.04,-7.14,9.77,944.41,21.18,
6544993,-0.02,-0.0,1.47,-5.25,-7.32,9.58,944.47,21.19,
6545031,-0.02,-0.03,1.43,-4.21,-5.37,9.09,944.43,21.18,
6545069,-0.01,-0.03,1.42,-3.72,-4.94,8.91,944.47,21.19,
6545107,-0.03,-0.02,1.36,-2.87,-3.54,8.73,944.46,21.18,
6545185,-0.02,-0.03,1.27,-1.22,0.49,8.0,944.43,21.16,
6545223,-0.02,-0.03,1.33,-0.61,1.1,7.87,944.39,21.17,
6545261,-0.0,-0.04,1.21,-0.98,3.6,7.75,944.44,21.17,
6545352,-0.02,-0.05,1.05,-1.28,6.47,7.45,944.39,21.14,
6545390,-0.02,-0.07,1.01,-1.46,7.02,7.14,944.42,21.15,
6545428,-0.04,-0.06,1.0,-1.53,7.63,6.96,944.43,21.15,
6545467,-0.01,-0.05,0.96,-2.01,8.36,7.08,944.34,21.15,
6545505,-0.0,-0.06,0.97,-2.32,8.61,6.71,944.37,21.17,
6545543,-0.01,-0.06,1.03,-3.11,7.93,6.65,944.35,21.16,
6545581,-0.01,-0.05,1.07,-3.23,7.69,6.96,944.36,21.17,
6545631,-0.02,-0.06,1.01,-3.6,8.91,6.65,944.38,21.16,
6545670,-0.02,-0.04,1.07,-3.3,8.36,6.65,944.38,21.17,
6545708,-0.03,-0.05,1.06,-2.99,7.63,6.71,944.37,21.16,
6545746,-0.02,-0.06,1.03,-2.81,5.98,6.53,944.32,21.16,
6545784,-0.02,-0.05,1.08,-2.5,5.19,6.71,944.32,21.17,
6545823,0.0,-0.05,1.06,-2.5,4.15,6.84,944.38,21.17,
6545861,-0.03,-0.04,1.07,-2.38,2.75,6.9,944.36,21.16,
6545899,-0.04,-0.05,1.03,-3.11,2.5,7.08,944.32,21.17,
6545938,-0.03,-0.05,1.09,-2.87,1.34,7.08,944.31,21.18,
6545988,-0.03,-0.05,1.01,-3.72,0.43,7.2,944.23,21.15,
6546026,-0.03,-0.03,1.05,-3.23,-0.85,7.32,944.2,21.16,
6546064,-0.02,-0.05,0.99,-3.85,-0.55,7.39,944.24,21.17,
6546102,-0.03,-0.04,1.06,-3.36,-2.08,7.63,944.21,21.17,
6546141,-0.05,-0.05,1.03,-3.05,-3.05,7.87,944.21,21.18,
6546179,-0.06,-0.03,1.03,-3.11,-3.72,8.0,944.14,21.17,
6546217,-0.04,-0.04,1.1,-2.69,-3.91,8.24,944.18,21.18,
6546256,-0.05,-0.05,1.02,-2.93,-3.42,8.24,944.12,21.17,
6546294,-0.06,-0.04,1.1,-2.62,-5.19,8.54,944.09,21.17,
6546344,-0.07,-0.05,1.05,-2.99,-3.6,8.85,944.07,21.16,
6546382,-0.08,-0.02,1.13,-2.44,-5.13,9.09,944.0,21.17,
6546420,-0.08,-0.05,1.06,-2.93,-4.27,9.64,944.03,21.19,
6546459,-0.06,-0.04,1.09,-2.69,-5.92,9.64,943.97,21.18,
6546497,-0.09,-0.05,1.08,-2.87,-4.88,9.89,943.96,21.17,
6546535,-0.06,-0.04,1.07,-2.93,-5.98,10.31,943.93,21.18,
6546574,-0.06,-0.04,1.11,-2.75,-6.41,10.38,943.93,21.17,
6546612,-0.08,-0.05,1.03,-3.36,-5.25,10.86,943.94,21.18,
6546650,-0.08,-0.05,1.06,-2.81,-5.55,11.11,943.96,21.17,
6546688,-0.08,-0.05,1.04,-3.3,-5.25,11.23,943.97,21.2,
6546738,-0.08,-0.04,1.06,-3.42,-6.65,11.41,943.92,21.16,
6546777,-0.09,-0.04,1.07,-3.91,-6.41,11.72,943.94,21.18,
6546815,-0.07,-0.06,1.07,-4.09,-6.23,11.96,943.99,21.18,
6546853,-0.07,-0.05,1.09,-4.7,-6.53,12.21,944.0,21.18,
6546892,-0.08,-0.04,1.11,-4.76,-6.77,12.51,943.94,21.19,
6546930,-0.08,-0.04,1.04,-5.37,-5.86,12.57,943.97,21.18,
6546968,-0.09,-0.04,1.05,-5.0,-5.49,12.7,943.93,21.18,
6547007,-0.07,-0.06,1.0,-5.55,-4.7,12.88,943.91,21.18,
6547045,-0.07,-0.05,0.98,-5.92,-5.19,13.18,943.96,21.18,
6547095,-0.07,-0.05,0.98,-6.35,-3.72,13.43,943.97,21.18,
6547133,-0.06,-0.05,1.01,-6.71,-4.03,13.67,943.89,21.18,
6547171,-0.08,-0.04,1.03,-7.08,-4.46,14.28,943.88,21.17,
6547210,-0.08,-0.05,1.08,-7.45,-5.55,14.47,943.95,21.18,
6547248,-0.07,-0.04,1.1,-8.18,-6.1,14.77,943.94,21.17,
6547286,-0.08,-0.03,1.15,-8.42,-6.53,14.89,943.91,21.18,
6547325,-0.05,-0.03,1.17,-9.22,-5.68,15.08,943.92,21.19,
6547363,-0.05,-0.02,1.22,-9.52,-6.1,15.38,943.92,21.19,
6547401,-0.06,-0.03,1.21,-9.77,-4.88,15.56,943.95,21.19,
6547451,-0.06,-0.01,1.3,-9.28,-5.49,15.87,943.93,21.17,
6547489,-0.06,-0.02,1.27,-9.52,-3.85,15.69,943.93,21.18,
6547528,-0.05,-0.02,1.26,-9.22,-3.42,15.69,943.95,21.18,
6547566,-0.04,-0.01,1.27,-9.28,-1.83,15.75,943.99,21.18,
6547604,-0.03,-0.02,1.23,-9.09,-1.34,15.69,943.97,21.19,
6547643,-0.04,-0.01,1.24,-9.52,-0.61,15.62,943.96,21.18,
6547681,-0.02,-0.02,1.26,-9.58,0.43,15.5,944.0,21.18,
6547719,-0.0,-0.01,1.25,-10.01,0.85,15.2,943.98,21.17,
6547758,-0.01,0.0,1.32,-10.01,0.61,14.89,943.96,21.18,
6547808,0.01,-0.0,1.33,-10.25,1.59,14.59,944.06,21.18,
6547846,0.02,-0.01,1.34,-10.5,1.89,14.22,944.02,21.18,
6547884,0.01,0.0,1.37,-10.5,1.46,14.16,943.99,21.18,
6547923,0.0,-0.0,1.35,-10.5,2.87,13.85,944.02,21.18,
6547961,0.01,0.0,1.33,-10.38,2.38,13.67,944.07,21.18,
6547999,0.01,0.0,1.36,-10.5,2.62,13.24,944.04,21.19,
6548037,0.01,-0.0,1.32,-10.5,2.75,13.12,944.03,21.18,
6548076,0.01,-0.0,1.33,-10.44,3.05,12.82,943.99,21.18,
6548114,0.01,-0.0,1.34,-10.38,2.32,12.57,944.08,21.19,
6548190,-0.0,0.01,1.35,-10.07,2.38,12.45,944.05,21.15,
6548228,0.0,-0.0,1.36,-10.01,2.32,12.27,944.04,21.16,
6548266,0.01,-0.0,1.38,-10.01,1.77,12.02,944.1,21.18,
6548356,0.01,0.02,1.37,-9.83,2.14,11.72,944.06,21.14,
6548395,0.01,0.0,1.35,-9.89,2.01,11.47,944.12,21.16,
6548433,-0.01,-0.0,1.35,-10.13,2.08,11.35,944.06,21.15,
6548471,-0.01,0.01,1.37,-9.95,2.14,11.23,944.05,21.17,
6548510,-0.01,0.02,1.37,-9.83,2.56,11.23,944.07,21.17,
6548548,-0.01,0.02,1.38,-9.52,2.56,10.99,944.09,21.17,
6548586,-0.02,0.01,1.37,-9.34,3.23,11.05,944.0,21.17,
6548636,-0.02,0.01,1.36,-9.16,4.33,10.8,944.07,21.16,
6548675,-0.02,0.02,1.38,-8.97,4.7,10.74,944.11,21.17,
6548713,-0.02,0.01,1.35,-8.73,4.88,10.86,944.09,21.17,
6548751,-0.01,0.01,1.36,-8.42,5.13,10.86,944.09,21.17,
6548789,-0.01,0.01,1.35,-8.3,5.62,10.86,944.12,21.18,
6548828,-0.02,0.01,1.35,-7.93,5.49,10.8,944.11,21.17,
6548866,-0.02,0.01,1.33,-7.81,5.74,10.99,944.07,21.18,
6548904,-0.02,0.01,1.32,-7.69,5.43,10.93,944.12,21.18,
6548943,-0.02,0.0,1.34,-7.51,5.55,10.99,944.14,21.19,
6548993,-0.02,0.0,1.3,-7.51,5.55,11.29,944.12,21.16,
6549031,-0.02,0.01,1.33,-7.45,5.55,11.23,944.09,21.17,
6549069,-0.01,0.0,1.31,-7.26,5.68,11.29,944.19,21.18,
6549108,-0.03,0.0,1.34,-7.2,5.92,11.29,944.09,21.18,
6549146,-0.03,0.01,1.34,-7.26,6.23,11.29,944.13,21.17,
6549184,-0.03,0.01,1.36,-7.26,6.23,11.35,944.09,21.19,
6549222,-0.03,0.01,1.34,-7.45,6.53,11.6,944.1,21.19,
6549261,-0.03,0.01,1.36,-7.45,6.16,11.6,944.13,21.19,
6549299,-0.03,0.0,1.31,-7.57,6.71,11.66,944.1,21.18,
6549337,-0.02,0.01,1.33,-7.39,6.1,11.78,944.15,21.18,
6549388,-0.03,0.01,1.33,-7.51,7.14,11.96,944.11,21.18,
6549426,-0.03,0.01,1.33,-7.45,6.71,11.96,944.16,21.19,
6549464,-0.02,0.0,1.37,-7.63,6.96,11.96,944.14,21.19,
6549502,-0.02,0.01,1.36,-7.81,6.53,12.21,944.17,21.18,
6549541,-0.03,0.01,1.36,-7.93,6.47,12.33,944.1,21.18,
6549579,-0.03,0.01,1.37,-7.81,6.59,12.27,944.21,21.2,
6549617,-0.0,0.01,1.41,-8.0,6.59,12.27,944.16,21.18,
6549656,-0.01,0.01,1.41,-8.0,6.35,12.27,944.2,21.19,
6549694,-0.03,0.02,1.4,-8.06,5.92,12.57,944.23,21.19,
6549744,-0.01,0.02,1.41,-8.0,5.68,12.7,944.18,21.17,
6549782,-0.02,0.01,1.42,-7.75,5.25,12.76,944.21,21.18,
6549820,-0.01,0.0,1.39,-7.81,4.94,12.63,944.22,21.18,
6549859,-0.01,0.01,1.39,-7.51,5.07,12.63,944.22,21.18,
6549897,-0.01,0.02,1.39,-7.63,4.88,12.88,944.25,21.2,
6549935,-0.02,0.01,1.38,-7.57,4.94,12.76,944.2,21.18,
6549974,-0.02,0.01,1.36,-7.57,5.25,12.7,944.27,21.19,
6550012,-0.01,0.01,1.38,-7.51,5.31,12.63,944.28,21.19,
6550050,-0.01,0.0,1.34,-7.45,5.37,12.63,944.31,21.19,
6550089,-0.01,0.01,1.35,-7.39,5.25,12.63,944.3,21.19,
6550139,-0.02,0.0,1.36,-7.02,5.68,12.7,944.3,21.17,
6550177,-0.0,0.0,1.36,-7.02,5.55,12.45,944.34,21.19,
6550215,-0.01,0.0,1.33,-7.14,5.86,12.39,944.31,21.18,
6550253,-0.02,0.0,1.36,-6.9,5.92,12.33,944.36,21.18,
6550292,-0.01,-0.0,1.33,-7.08,5.98,12.39,944.35,21.19,
6550330,-0.02,0.01,1.36,-6.9,5.0,12.27,944.36,21.19,
6550368,-0.0,-0.0,1.34,-6.96,5.74,12.15,944.33,21.19,
6550407,-0.02,-0.0,1.33,-7.08,5.43,12.27,944.38,21.19,
6550445,-0.02,0.0,1.33,-7.14,5.68,12.39,944.4,21.18,
6550495,-0.02,0.0,1.31,-7.02,6.04,11.9,944.39,21.18,
6550533,-0.01,-0.0,1.32,-7.2,6.29,11.96,944.44,21.19,
6550572,-0.01,0.0,1.32,-7.14,6.35,11.78,944.4,21.19,
6550610,-0.01,-0.0,1.33,-7.08,6.41,11.78,944.44,21.18,
6550648,-0.03,-0.0,1.3,-6.9,6.84,11.72,944.39,21.19,
6550687,-0.04,0.01,1.34,-6.77,6.47,11.84,944.44,21.2,
6550725,-0.01,-0.01,1.31,-6.65,7.14,11.9,944.41,21.19,
6550763,-0.02,0.0,1.31,-6.41,6.77,11.72,944.45,21.19,
6550802,-0.03,0.0,1.3,-6.53,7.57,11.9,944.46,21.18,
6550840,-0.02,-0.0,1.28,-6.41,7.45,11.84,944.44,21.2,
6550890,-0.03,0.0,1.31,-6.23,7.32,11.78,944.46,21.18,
6550928,-0.04,-0.01,1.26,-6.41,7.2,12.21,944.51,21.19,
6550966,-0.03,-0.0,1.28,-6.23,6.77,12.21,944.49,21.19,
6551005,-0.04,-0.0,1.27,-6.41,6.59,12.51,944.46,21.19,
6551043,-0.05,0.01,1.25,-6.53,5.25,12.76,944.48,21.19,
6551081,-0.04,0.0,1.3,-6.29,4.33,13.0,944.45,21.19,
6551120,-0.03,-0.0,1.27,-6.53,4.64,13.31,944.48,21.18,
6551158,-0.04,0.01,1.29,-6.41,3.85,13.55,944.53,21.19,
6551196,-0.05,0.01,1.31,-6.41,3.85,13.55,944.51,21.19,
6551272,-0.03,0.01,1.35,-6.35,3.66,13.92,944.51,21.16,
6551311,-0.03,0.02,1.34,-5.98,3.36,14.16,944.57,21.16,
6551349,-0.05,0.02,1.33,-5.86,3.91,14.16,944.52,21.17,
6551439,-0.03,0.0,1.34,-5.68,3.48,14.47,944.54,21.14,
6551477,-0.03,0.0,1.31,-5.68,3.66,14.4,944.56,21.15,
6551516,-0.03,0.02,1.32,-5.62,3.85,14.22,944.59,21.16,
6551554,-0.02,0.01,1.27,-5.55,4.58,14.28,944.53,21.15,
6551592,-0.02,-0.01,1.25,-5.13,4.94,14.16,944.53,21.16,
6551631,-0.03,-0.01,1.22,-5.19,5.62,14.1,944.58,21.16,
6551681,-0.04,0.01,1.26,-4.88,6.16,13.73,944.55,21.15,
6551719,-0.02,0.01,1.28,-4.88,6.65,13.92,944.56,21.15,
6551757,-0.02,0.01,1.34,-4.64,5.8,13.85,944.56,21.17,
6551796,-0.04,-0.0,1.35,-4.39,6.59,13.79,944.59,21.16,
6551834,-0.02,-0.01,1.32,-4.27,6.9,13.85,944.64,21.17,
6551872,-0.01,0.01,1.34,-4.09,6.16,13.67,944.63,21.17,
6551911,-0.04,0.0,1.27,-3.97,6.29,13.92,944.64,21.16,
6551949,-0.03,0.0,1.27,-3.54,6.04,13.92,944.63,21.18,
6551987,-0.02,-0.0,1.25,-3.66,6.41,13.79,944.62,21.17,
6552026,-0.0,-0.0,1.26,-3.48,5.55,13.73,944.64,21.17,
6552075,-0.02,-0.01,1.24,-3.23,5.55,13.85,944.65,21.17,
6552114,-0.01,-0.01,1.25,-3.48,5.43,13.73,944.66,21.16,
6552152,-0.01,-0.01,1.24,-3.48,5.49,13.49,944.73,21.16,
6552190,-0.02,-0.01,1.22,-3.3,5.07,13.43,944.65,21.17,
6552229,-0.01,-0.01,1.23,-3.66,4.82,13.24,944.65,21.17,
6552267,-0.01,-0.01,1.2,-3.54,4.64,13.06,944.64,21.16,
6552305,0.0,-0.01,1.21,-3.78,4.21,13.0,944.67,21.18,
6552344,-0.0,-0.02,1.19,-4.15,3.97,12.88,944.69,21.19,
6552382,-0.01,-0.01,1.2,-4.15,3.78,12.82,944.66,21.17,
6552432,-0.01,-0.01,1.19,-4.46,3.48,12.39,944.69,21.17,
6552471,-0.02,-0.01,1.23,-4.33,3.11,12.57,944.69,21.17,
6552509,-0.02,-0.02,1.2,-4.33,3.48,12.45,944.71,21.18,
6552547,-0.0,-0.02,1.21,-4.39,3.48,12.27,944.74,21.18,
6552585,-0.01,-0.01,1.23,-4.46,3.36,12.02,944.67,21.18,
6552624,-0.01,-0.02,1.22,-4.39,3.54,11.96,944.72,21.17,
6552662,-0.0,-0.01,1.21,-4.64,3.54,11.6,944.71,21.17,
6552700,-0.0,-0.01,1.2,-4.82,3.48,11.66,944.7,21.18,
6552739,-0.01,-0.01,1.19,-5.13,3.85,11.6,944.75,21.19,
6552789,0.0,-0.01,1.23,-5.07,3.72,11.29,944.69,21.17,
6552827,-0.02,-0.01,1.23,-5.25,4.27,11.17,944.75,21.18,
6552865,-0.02,-0.01,1.25,-5.25,4.39,11.17,944.78,21.18,
6552904,-0.01,-0.01,1.25,-5.07,4.03,11.05,944.72,21.17,
6552942,-0.02,-0.0,1.23,-5.37,4.46,10.93,944.76,21.18,
6552980,-0.02,-0.0,1.26,-5.31,4.39,11.11,944.73,21.18,
6553019,-0.01,-0.0,1.28,-5.37,4.88,10.99,944.75,21.18,
6553057,-0.0,-0.0,1.28,-5.37,4.64,10.93,944.69,21.17,
6553095,-0.02,0.0,1.3,-5.31,4.94,10.93,944.72,21.18,
6553133,-0.01,-0.0,1.29,-5.43,5.07,10.86,944.76,21.19,
6553183,-0.01,0.01,1.32,-5.07,5.19,10.68,944.73,21.17,
6553222,-0.03,0.0,1.32,-5.0,5.37,10.74,944.73,21.18,
6553260,-0.02,0.0,1.35,-5.0,5.62,10.62,944.7,21.18,
6553298,-0.02,0.01,1.36,-4.94,5.74,10.5,944.71,21.18,
6553337,-0.03,0.01,1.35,-4.94,5.98,10.5,944.74,21.17,
6553375,-0.03,0.01,1.34,-4.88,6.41,10.56,944.69,21.18,
6553413,-0.02,0.02,1.37,-4.58,6.71,10.44,944.7,21.19,
6553452,-0.01,0.01,1.36,-4.46,6.47,10.44,944.71,21.18,
6553490,-0.03,0.02,1.37,-4.21,5.49,10.44,944.72,21.18,
6553540,-0.03,-0.01,1.34,-4.15,5.8,10.62,944.68,21.18,
6553578,-0.02,0.0,1.35,-3.78,5.25,10.62,944.68,21.17,
6553616,-0.03,0.01,1.34,-3.6,4.88,10.74,944.73,21.18,
6553655,-0.03,0.01,1.33,-3.23,4.94,10.5,944.79,21.18,
6553693,-0.02,-0.01,1.34,-3.23,4.94,10.8,944.71,21.18,
6553731,-0.03,-0.02,1.31,-3.17,4.33,10.56,944.69,21.19,
6553770,-0.04,-0.01,1.34,-2.81,4.7,10.68,944.69,21.19,
6553808,-0.02,0.0,1.26,-2.81,5.0,10.74,944.73,21.2,
6553846,-0.02,0.02,1.3,-2.32,4.39,10.5,944.66,21.18,
6553884,-0.03,-0.0,1.3,-2.26,5.19,10.62,944.62,21.18,
6553934,-0.02,-0.01,1.33,-2.75,5.8,10.56,944.66,21.18,
6553973,-0.03,0.01,1.4,-2.56,4.76,10.44,944.68,21.18,
6554011,-0.04,0.01,1.38,-2.81,5.19,10.68,944.65,21.19,
6554049,-0.03,0.01,1.39,-2.99,3.97,10.68,944.67,21.19,
6554087,-0.03,-0.01,1.4,-3.17,3.85,10.74,944.61,21.19,
6554126,-0.02,-0.01,1.37,-3.72,2.99,10.86,944.61,21.19,
6554164,-0.03,-0.0,1.37,-4.03,2.38,10.74,944.63,21.18,
6554202,-0.03,0.02,1.39,-4.27,1.28,10.8,944.64,21.19,
6554240,-0.02,0.01,1.39,-4.58,0.55,11.05,944.58,21.18,
6554316,-0.04,-0.0,1.38,-5.13,-1.34,10.99,944.62,21.16,
6554355,-0.04,-0.0,1.36,-5.55,-1.4,10.74,944.5,21.17,
6554393,-0.03,-0.01,1.38,-5.74,-1.71,10.68,944.48,21.17,
6554483,-0.03,-0.01,1.32,-6.04,-1.59,10.44,944.59,21.14,
6554521,-0.04,-0.01,1.29,-6.23,-1.77,10.44,944.52,21.14,
6554559,-0.04,-0.02,1.32,-6.47,-1.83,10.25,944.5,21.15,
6554598,-0.02,-0.02,1.31,-6.59,-1.59,10.25,944.49,21.16,
6554636,-0.05,-0.02,1.28,-6.65,-1.4,10.07,944.51,21.16,
6554674,-0.04,-0.01,1.29,-6.53,-0.92,10.31,944.43,21.15,
6554724,-0.03,-0.01,1.28,-6.84,-0.37,10.07,944.31,21.14,
6554763,-0.02,-0.01,1.36,-7.26,0.55,9.83,944.33,21.15,
6554801,-0.04,-0.01,1.32,-7.51,1.65,9.95,944.33,21.15,
6554839,-0.04,0.0,1.36,-7.63,2.08,9.77,944.25,21.16,
6554877,-0.01,0.01,1.38,-8.0,2.5,9.58,944.27,21.15,
6554915,-0.04,-0.0,1.39,-7.93,3.23,9.64,944.32,21.16,
6554954,-0.03,-0.01,1.41,-8.06,3.97,9.58,944.3,21.16,
6554992,0.0,0.02,1.52,-7.14,3.36,9.46,944.29,21.16,
6555030,0.0,0.01,1.51,-6.41,3.6,9.16,944.26,21.17,
6555068,-0.0,0.03,1.43,-6.16,3.78,9.28,944.28,21.17,
6555118,0.0,0.02,1.47,-6.16,2.99,9.22,944.19,21.16,
6555157,-0.01,-0.01,1.37,-6.59,2.2,9.16,944.29,21.18,
6555195,-0.03,0.02,1.41,-6.71,0.79,8.97,944.23,21.16,
6555233,0.01,0.02,1.42,-6.59,1.28,8.85,944.22,21.17,
6555272,0.01,0.01,1.35,-6.65,0.49,8.91,944.21,21.17,
6555310,-0.02,0.01,1.39,-6.47,-0.12,9.03,944.24,21.17,
6555348,-0.01,0.0,1.34,-6.47,0.06,8.91,944.23,21.18,
6555386,-0.02,0.0,1.34,-6.29,-0.79,8.85,944.15,21.16,
6555425,-0.02,0.0,1.31,-5.86,-0.92,8.79,944.18,21.17,
6555475,-0.03,-0.02,1.3,-5.43,-1.83,8.73,944.19,21.15,
6555513,-0.02,-0.01,1.29,-4.94,-2.2,8.73,944.15,21.16,
6555551,-0.02,-0.0,1.28,-4.39,-3.48,8.61,944.16,21.17,
6555589,-0.02,-0.01,1.25,-4.09,-3.42,8.79,944.15,21.16,
6555628,-0.03,-0.02,1.21,-3.36,-4.52,8.79,944.11,21.18,
6555666,-0.04,-0.02,1.23,-2.81,-5.25,8.61,944.09,21.18,
6555704,-0.04,-0.03,1.13,-3.05,-5.43,8.67,944.11,21.18,
6555743,-0.03,-0.01,1.17,-2.81,-6.65,8.54,944.07,21.17,
6555781,-0.04,-0.03,1.07,-2.99,-5.86,8.73,944.05,21.18,
6555819,-0.05,-0.02,1.11,-2.56,-7.39,8.61,943.99,21.18,
6555869,-0.06,-0.04,1.1,-2.87,-6.1,8.67,944.04,21.16,
6555908,-0.05,-0.03,1.12,-2.99,-5.86,8.67,944.0,21.16,
6555946,-0.05,-0.02,1.15,-3.85,-4.27,8.36,943.97,21.18,
6555984,-0.05,-0.02,1.12,-4.39,-3.72,8.36,943.89,21.17,
6556023,-0.05,-0.01,1.19,-5.25,-2.93,8.3,943.9,21.17,
6556061,-0.07,-0.02,1.21,-5.31,-2.32,8.24,943.85,21.16,
6556099,-0.06,-0.01,1.25,-5.55,-2.26,8.42,943.79,21.18,
6556138,-0.07,0.0,1.29,-5.74,-2.38,8.54,943.84,21.17,
6556176,-0.06,0.0,1.3,-6.1,-2.2,8.67,943.8,21.18,
6556226,-0.06,0.01,1.38,-6.16,-1.83,8.97,943.8,21.16,
6556264,-0.05,0.01,1.34,-6.35,-1.89,8.97,943.85,21.17,
6556303,-0.07,0.02,1.43,-6.04,-2.44,9.28,943.8,21.18,
6556341,-0.07,0.0,1.35,-6.47,-1.16,9.58,943.78,21.18,
6556379,-0.06,0.03,1.41,-6.23,-2.01,9.4,943.78,21.18,
6556417,-0.08,0.02,1.39,-6.47,-0.61,9.7,943.73,21.17,
6556456,-0.05,0.01,1.38,-6.59,-0.67,9.89,943.75,21.19,
6556494,-0.06,0.02,1.39,-6.84,0.0,9.89,943.73,21.18,
6556532,-0.06,0.02,1.41,-6.77,-0.31,10.31,943.72,21.18,
6556571,-0.07,0.02,1.41,-6.65,-0.43,10.44,943.7,21.18,
6556621,-0.07,0.02,1.38,-6.59,-0.24,10.74,943.63,21.17,
6556659,-0.07,0.01,1.39,-6.53,-0.06,11.05,943.73,21.18,
6556697,-0.07,0.02,1.35,-6.29,-1.04,11.23,943.65,21.17,
6556736,-0.06,0.01,1.31,-6.65,-0.67,11.35,943.66,21.17,
6556774,-0.05,0.01,1.32,-6.59,-1.16,11.6,943.63,21.18,
6556812,-0.07,0.01,1.29,-6.71,-1.1,11.78,943.63,21.17,
6556851,-0.06,0.02,1.29,-6.84,-1.28,11.96,943.64,21.17,
6556889,-0.05,0.01,1.28,-6.77,-1.28,12.08,943.62,21.17,
6556927,-0.05,0.0,1.27,-6.84,-1.4,12.08,943.57,21.18,
6556977,-0.04,-0.0,1.24,-6.96,-1.22,12.39,943.61,21.17,
6557016,-0.03,0.01,1.19,-7.2,-1.04,12.21,943.61,21.17,
6557054,-0.02,0.01,1.19,-7.2,-0.43,12.27,943.61,21.17,
6557092,-0.03,-0.0,1.13,-7.2,-0.61,12.33,943.58,21.18,
6557131,-0.02,-0.01,1.15,-7.08,-0.43,12.02,943.58,21.17,
6557169,-0.03,-0.01,1.09,-7.26,0.55,11.78,943.56,21.17,
6557207,-0.02,-0.0,1.17,-7.02,0.06,11.66,943.55,21.17,
6557246,-0.01,-0.01,1.17,-6.96,0.12,11.35,943.51,21.18,
6557284,-0.04,-0.01,1.11,-7.08,0.43,11.11,943.54,21.18,
6557360,-0.01,0.0,1.13,-7.32,1.65,10.86,943.51,21.16,
6557398,-0.01,0.01,1.19,-7.02,0.18,10.44,943.47,21.17,
6557436,-0.04,-0.0,1.2,-7.87,2.62,10.5,943.44,21.16,
6557526,-0.04,0.03,1.21,-8.18,3.23,10.19,943.36,21.13,
6557564,-0.07,0.03,1.19,-8.48,3.17,10.31,943.37,21.15,
6557603,-0.03,0.0,1.2,-8.3,3.6,10.25,943.35,21.15,
6557641,-0.03,-0.0,1.16,-8.12,2.93,10.01,943.36,21.15,
6557679,-0.04,0.0,1.16,-7.39,3.36,10.38,943.33,21.14,
6557718,-0.04,-0.01,1.1,-7.14,3.54,10.07,943.35,21.15,
6557756,-0.04,-0.01,1.11,-6.65,3.78,10.07,943.32,21.15,
6557806,-0.04,-0.02,1.08,-6.96,2.99,10.5,943.29,21.15,
6557844,-0.05,-0.01,1.1,-6.65,2.81,10.44,943.31,21.16,
6557882,-0.04,-0.02,1.09,-6.77,2.93,10.5,943.38,21.16,
6557921,-0.03,-0.03,1.1,-6.84,2.56,10.74,943.28,21.17,
6557959,-0.03,-0.02,1.11,-6.71,2.14,10.68,943.31,21.18,
6557997,-0.06,-0.02,1.12,-6.47,1.89,10.86,943.27,21.17,
6558036,-0.04,-0.02,1.12,-6.59,1.65,11.11,943.26,21.18,
6558074,-0.04,-0.02,1.13,-6.59,1.53,10.99,943.22,21.17,
6558112,-0.06,-0.02,1.11,-6.59,2.01,10.99,943.28,21.18,
6558162,-0.02,-0.03,1.1,-6.9,1.65,11.17,943.19,21.16,
6558200,-0.02,-0.01,1.18,-6.84,0.31,11.35,943.17,21.16,
6558239,-0.03,-0.01,1.15,-7.32,1.1,11.41,943.17,21.17,
6558277,-0.04,0.01,1.19,-7.26,0.67,11.41,943.17,21.17,
6558315,-0.03,-0.01,1.23,-7.81,0.79,11.47,943.15,21.18,
6558354,-0.04,-0.03,1.25,-8.0,0.06,11.29,943.12,21.18,
6558392,-0.03,-0.02,1.27,-7.81,1.04,11.29,943.12,21.17,
6558430,-0.02,-0.01,1.23,-7.81,1.22,11.17,943.11,21.17,
6558468,-0.03,0.0,1.26,-7.87,1.16,11.11,943.07,21.17,
6558518,-0.03,-0.02,1.15,-8.06,2.38,10.99,943.16,21.17,
6558557,-0.05,-0.01,1.2,-7.93,2.62,10.8,943.1,21.17,
6558595,-0.03,-0.02,1.18,-8.61,3.6,10.62,943.08,21.18,
6558633,-0.04,-0.01,1.22,-8.61,2.93,10.62,943.08,21.18,
6558671,-0.03,-0.02,1.23,-8.79,4.27,10.56,943.04,21.17,
6558710,-0.03,-0.02,1.22,-9.09,4.09,10.56,943.1,21.18,
6558748,-0.05,-0.01,1.23,-9.16,3.97,10.8,943.09,21.19,
6558786,-0.05,-0.01,1.19,-9.4,3.23,10.86,943.01,21.18,
6558825,-0.04,-0.02,1.23,-9.58,3.36,10.99,943.04,21.19,
6558863,-0.04,-0.01,1.19,-9.83,3.11,11.17,943.0,21.18,
6558913,-0.05,-0.0,1.26,-9.77,1.71,11.47,942.95,21.16,
6558951,-0.05,-0.01,1.24,-9.95,0.61,11.54,943.0,21.17,
6558990,-0.05,-0.01,1.27,-10.01,0.06,11.72,942.96,21.16,
6559028,-0.04,-0.0,1.27,-10.07,-0.79,11.6,942.9,21.18,
6559066,-0.06,0.0,1.28,-10.31,-1.89,11.78,942.94,21.16,
6559105,-0.05,0.01,1.27,-10.44,-2.56,11.84,942.97,21.17,
6559143,-0.04,0.01,1.31,-10.5,-3.11,11.9,942.91,21.18,
6559181,-0.06,0.01,1.29,-10.44,-3.05,11.96,942.95,21.17,
6559219,-0.06,0.02,1.32,-10.56,-3.48,11.96,942.97,21.18,
6559269,-0.07,0.03,1.33,-10.68,-2.56,11.9,942.93,21.17,
6559308,-0.06,0.03,1.35,-10.8,-2.75,11.84,942.88,21.16,
6559346,-0.06,0.02,1.34,-10.86,-1.77,11.84,942.87,21.16,
6559384,-0.08,0.02,1.34,-10.86,-1.22,11.72,942.88,21.18,
6559423,-0.08,0.03,1.32,-10.99,0.18,11.9,942.82,21.18,
6559461,-0.07,0.04,1.34,-10.93,0.61,11.96,942.84,21.18,
6559499,-0.08,0.03,1.33,-10.86,1.16,12.15,942.85,21.19,
6559537,-0.08,0.03,1.35,-10.74,1.46,12.27,942.8,21.18,
6559576,-0.07,0.03,1.38,-10.56,1.95,12.51,942.81,21.18,
6559626,-0.08,0.04,1.36,-10.5,1.65,12.82,942.81,21.17,
6559664,-0.08,0.04,1.35,-10.44,2.01,13.06,942.86,21.18,
6559702,-0.07,0.03,1.36,-10.38,2.08,13.31,942.87,21.17,
6559741,-0.06,0.03,1.35,-10.19,2.08,13.55,942.85,21.18,
6559779,-0.07,0.03,1.36,-10.13,2.38,13.73,942.89,21.18,
6559817,-0.05,0.03,1.32,-10.19,3.05,13.61,942.88,21.18,
6559856,-0.05,0.04,1.34,-10.31,2.62,13.98,942.79,21.17,
6559894,-0.06,0.03,1.33,-10.62,2.69,14.22,942.86,21.18,
6559932,-0.07,0.03,1.32,-10.5,2.26,14.47,942.85,21.18,
6559982,-0.06,0.02,1.32,-10.8,2.2,14.4,942.87,21.16,
6560020,-0.06,0.02,1.33,-10.93,1.71,14.65,942.87,21.18,
6560059,-0.05,0.02,1.31,-11.11,1.95,14.77,942.82,21.17,
6560097,-0.05,0.03,1.32,-11.05,2.14,14.59,942.87,21.18,
6560135,-0.06,0.02,1.3,-11.29,2.69,14.83,942.86,21.18,
6560174,-0.05,0.02,1.31,-11.41,2.2,14.89,942.85,21.18,
6560212,-0.06,0.04,1.34,-11.72,2.44,14.59,942.78,21.18,
6560250,-0.04,0.03,1.35,-12.08,3.3,14.95,942.75,21.17,
6560289,-0.04,0.04,1.37,-12.21,3.11,14.95,942.83,21.18,
6560327,-0.05,0.05,1.41,-12.15,3.3,14.77,942.85,21.18,
6560403,-0.04,0.04,1.45,-11.96,4.39,15.01,942.82,21.15,
6560441,-0.05,0.05,1.46,-11.9,4.52,14.71,942.81,21.16,
6560479,-0.05,0.04,1.41,-12.21,4.7,14.71,942.81,21.16,
6560569,-0.03,0.06,1.5,-12.63,4.52,14.95,942.78,21.13,
6560608,-0.04,0.07,1.51,-12.94,4.27,15.08,942.73,21.14,
6560646,-0.05,0.07,1.59,-12.82,4.09,15.2,942.82,21.15,
6560684,-0.04,0.07,1.62,-12.76,3.17,15.32,942.75,21.16,
6560722,-0.05,0.08,1.64,-12.82,2.14,15.62,942.82,21.16,
6560761,-0.05,0.08,1.7,-12.76,1.71,15.75,942.79,21.15,
6560811,-0.03,0.08,1.65,-12.63,1.22,15.93,942.87,21.14,
6560849,-0.04,0.09,1.68,-12.57,0.61,15.62,942.86,21.15,
6560887,-0.05,0.09,1.63,-12.02,0.67,15.75,942.89,21.16,
6560926,-0.02,0.09,1.67,-11.84,-0.06,15.56,942.9,21.17,
6560964,-0.02,0.06,1.66,-11.78,-0.61,15.56,942.88,21.16,
6561002,-0.03,0.05,1.61,-11.96,-2.01,15.5,942.89,21.15,
6561041,-0.04,0.06,1.63,-12.08,-2.38,15.81,942.84,21.15,
6561079,-0.03,0.05,1.52,-12.39,-2.5,15.56,942.89,21.15,
6561117,-0.05,0.06,1.53,-12.33,-4.7,15.69,942.93,21.16,
6561167,-0.06,0.03,1.44,-12.63,-4.27,15.81,942.91,21.15,
6561205,-0.05,0.03,1.48,-12.76,-5.07,15.56,942.96,21.16,
6561244,-0.05,0.03,1.47,-13.43,-4.15,15.5,942.92,21.16,
6561282,-0.04,0.03,1.42,-13.98,-4.33,15.2,942.88,21.17,
6561321,-0.05,0.04,1.45,-14.71,-3.42,14.95,942.88,21.17,
6561359,-0.03,0.03,1.41,-15.5,-1.89,14.47,942.86,21.17,
6561397,-0.03,0.04,1.42,-16.05,-1.04,13.98,942.9,21.16,
6561436,-0.04,0.06,1.44,-16.24,-0.06,14.04,942.91,21.17,
6561474,-0.05,0.05,1.46,-16.05,0.37,13.73,942.96,21.18,
6561524,-0.04,0.05,1.45,-15.69,1.65,13.49,942.93,21.15,
6561562,-0.03,0.05,1.5,-15.01,2.5,13.12,942.99,21.17,
6561600,-0.04,0.04,1.43,-14.53,2.99,13.18,943.0,21.17,
6561639,-0.06,0.06,1.43,-14.28,3.3,12.82,942.96,21.16,
6561677,-0.02,0.06,1.43,-13.92,4.27,12.51,942.95,21.17,
6561715,-0.02,0.05,1.44,-13.73,4.15,12.51,942.95,21.16,
6561754,-0.06,0.05,1.38,-13.61,4.88,12.7,943.01,21.18,
6561792,-0.07,0.05,1.46,-12.33,4.82,12.39,943.02,21.18,
6561830,-0.04,0.01,1.34,-12.39,6.16,12.27,943.04,21.18,
6561869,-0.05,0.04,1.44,-11.54,4.33,12.27,943.05,21.18,
6561919,-0.04,0.02,1.31,-11.41,6.9,12.33,943.02,21.16,
6561957,-0.08,0.05,1.36,-11.17,5.68,12.02,942.98,21.17,
6561995,-0.04,0.04,1.39,-11.29,4.94,12.27,943.0,21.18,
6562033,-0.05,0.04,1.42,-10.99,2.87,12.76,942.96,21.16,
6562072,-0.07,0.04,1.47,-11.23,2.69,13.0,943.04,21.17,
6562110,-0.07,0.03,1.42,-10.93,1.4,13.18,942.99,21.18,
6562148,-0.07,0.04,1.4,-10.74,1.04,13.24,943.01,21.18,
6562187,-0.08,0.04,1.32,-10.68,0.43,13.43,942.94,21.18,
6562225,-0.09,0.01,1.27,-10.62,0.0,13.67,942.99,21.17,
6562275,-0.1,-0.0,1.15,-11.29,0.49,13.79,943.04,21.16,
6562313,-0.09,-0.01,1.15,-11.6,0.12,13.92,942.97,21.18,
6562351,-0.09,-0.01,1.12,-11.84,0.73,14.16,942.98,21.17,
6562390,-0.12,-0.01,1.06,-12.33,1.59,14.28,943.03,21.16,
6562428,-0.1,-0.01,1.1,-12.51,2.81,14.53,943.07,21.17,
6562466,-0.1,-0.02,1.11,-12.88,2.99,14.95,943.04,21.17,
6562505,-0.08,-0.01,1.14,-13.37,3.48,15.2,943.11,21.18,
6562543,-0.09,-0.0,1.2,-13.55,2.93,15.2,943.06,21.17,
6562581,-0.09,-0.0,1.2,-14.4,3.72,15.81,943.1,21.17,
6562631,-0.07,0.0,1.26,-14.77,2.99,15.99,943.16,21.17,
6562670,-0.08,0.01,1.25,-15.5,3.48,15.87,943.19,21.18,
6562708,-0.07,0.02,1.31,-15.5,2.75,16.6,943.16,21.18,
6562746,-0.04,0.02,1.3,-16.11,2.32,16.6,943.17,21.16,
6562784,-0.06,0.04,1.39,-16.3,1.77,16.72,943.18,21.18,
6562823,-0.06,0.05,1.5,-16.54,0.67,17.15,943.23,21.17,
6562861,-0.06,0.05,1.51,-16.66,0.18,17.58,943.23,21.18,
6562899,-0.05,0.06,1.54,-17.03,-0.49,17.58,943.26,21.17,
6562938,-0.04,0.05,1.55,-17.52,-1.22,17.82,943.25,21.16,
6562988,-0.04,0.08,1.58,-17.88,-2.32,17.82,943.29,21.17,
6563026,-0.05,0.08,1.57,-17.76,-2.01,17.94,943.32,21.17,
6563064,-0.03,0.08,1.56,-17.7,-1.95,17.88,943.35,21.18,
6563103,-0.05,0.09,1.59,-17.7,-2.38,17.7,943.35,21.18,
6563141,-0.05,0.08,1.59,-17.52,-2.14,17.64,943.41,21.17,
6563179,-0.04,0.07,1.58,-17.52,-1.65,17.64,943.4,21.17,
6563218,-0.02,0.08,1.59,-17.4,-1.28,17.09,943.46,21.18,
6563256,-0.04,0.08,1.6,-17.03,-1.4,17.09,943.39,21.17,
6563294,-0.03,0.07,1.54,-16.66,-0.18,17.03,943.36,21.18,
6563371,-0.01,0.08,1.55,-16.42,1.22,16.6,943.4,21.15,
6563410,-0.03,0.08,1.53,-15.87,1.53,16.17,943.45,21.15,
6563448,-0.02,0.07,1.47,-15.99,2.5,15.87,943.44,21.16,
6563538,-0.02,0.06,1.49,-15.56,4.88,15.14,943.43,21.13,
6563576,-0.03,0.06,1.49,-15.32,5.43,14.95,943.46,21.14,
6563615,-0.03,0.07,1.48,-15.01,6.84,14.53,943.54,21.15,
6563653,-0.02,0.06,1.46,-14.83,7.14,14.34,943.51,21.15,
6563691,-0.02,0.06,1.48,-14.77,7.75,14.22,943.54,21.16,
6563730,-0.02,0.05,1.48,-14.53,8.79,14.22,943.53,21.16,
6563768,-0.02,0.06,1.5,-14.53,9.58,13.79,943.56,21.16,
6563818,-0.02,0.07,1.53,-14.59,10.19,14.04,943.6,21.15,
6563856,-0.03,0.07,1.54,-14.28,10.62,13.67,943.61,21.14,
6563895,-0.03,0.05,1.53,-14.34,11.29,13.79,943.69,21.17,
6563933,-0.03,0.06,1.54,-14.1,11.05,13.85,943.68,21.15,
6563971,-0.02,0.07,1.53,-14.16,10.44,13.85,943.73,21.16,
6564010,-0.02,0.06,1.52,-13.98,10.74,13.73,943.75,21.15,
6564048,-0.03,0.07,1.52,-13.85,10.44,13.79,943.73,21.17,
6564086,-0.02,0.06,1.56,-13.92,10.31,14.16,943.8,21.16,
6564125,-0.02,0.06,1.57,-13.73,10.07,13.85,943.87,21.17,
6564175,-0.02,0.07,1.6,-13.73,9.64,13.85,943.89,21.16,
6564213,-0.02,0.06,1.6,-13.79,9.58,14.04,943.86,21.16,
6564251,-0.02,0.06,1.59,-13.67,9.34,14.04,943.94,21.17,
6564290,-0.04,0.08,1.63,-13.18,9.09,13.92,943.98,21.17,
6564328,-0.03,0.07,1.58,-13.43,8.73,14.04,943.98,21.17,
6564366,-0.03,0.07,1.63,-13.12,7.14,13.85,944.01,21.17,
6564405,-0.04,0.06,1.58,-13.12,7.63,13.85,944.04,21.19,
6564443,-0.01,0.06,1.59,-13.18,6.71,13.73,944.09,21.17,
6564481,-0.02,0.06,1.63,-12.88,6.59,13.67,944.12,21.17,
6564531,-0.04,0.06,1.61,-12.7,5.86,13.85,944.18,21.17,
6564570,-0.04,0.06,1.61,-12.51,6.16,13.61,944.16,21.16,
