timestamp,acc_x,acc_y,acc_z,rot_x,rot_y,rot_z,qfe,temp,Unnamed: 10
5063507,-0.02,-0.08,0.92,1.22,3.91,0.61,918.5,21.8,
5063545,-0.01,-0.08,0.91,0.55,4.58,0.49,918.53,21.79,
5063584,-0.02,-0.08,0.93,-0.06,4.15,0.43,918.48,21.8,
5063622,-0.01,-0.08,0.99,-0.49,4.52,0.61,918.47,21.8,
5063660,-0.02,-0.08,1.02,-0.49,4.09,0.55,918.5,21.8,
5063699,-0.04,-0.08,1.05,-0.79,3.66,0.61,918.41,21.81,
5063737,-0.03,-0.08,1.06,-0.79,2.99,0.55,918.44,21.81,
5063775,-0.02,-0.08,1.1,-1.1,3.3,0.61,918.47,21.8,
5063825,-0.01,-0.07,1.13,-1.28,3.36,0.67,918.48,21.8,
5063864,-0.03,-0.08,1.15,-1.22,3.48,0.79,918.47,21.81,
5063902,-0.03,-0.07,1.18,-1.28,4.03,0.61,918.41,21.8,
5063940,-0.03,-0.08,1.17,-0.92,4.27,0.73,918.45,21.8,
5063979,-0.02,-0.07,1.15,-0.98,4.46,0.85,918.42,21.81,
5064017,-0.02,-0.06,1.15,-0.67,4.21,0.73,918.42,21.81,
5064055,-0.01,-0.07,1.15,-0.55,4.27,0.85,918.39,21.81,
5064093,0.0,-0.07,1.18,-0.18,3.42,0.85,918.42,21.8,
5064132,-0.02,-0.08,1.15,-0.12,3.78,0.85,918.4,21.81,
5064182,-0.03,-0.07,1.14,0.06,3.17,0.98,918.37,21.79,
5064220,-0.01,-0.07,1.15,0.31,2.69,0.79,918.4,21.81,
5064258,-0.0,-0.08,1.1,0.12,2.56,0.79,918.38,21.81,
5064297,-0.02,-0.07,1.06,0.18,1.83,0.92,918.34,21.8,
5064335,-0.02,-0.07,1.09,0.49,2.08,1.1,918.31,21.81,
5064373,-0.01,-0.08,1.0,0.49,1.4,0.85,918.29,21.81,
5064412,-0.03,-0.08,1.04,0.79,0.67,0.98,918.29,21.81,
5064450,-0.03,-0.08,1.0,0.31,1.89,0.79,918.33,21.81,
5064488,-0.03,-0.08,1.01,0.43,2.2,0.79,918.26,21.81,
5064527,-0.01,-0.08,1.02,-0.06,2.5,0.79,918.23,21.82,
5064577,-0.03,-0.08,1.04,-0.37,2.56,0.79,918.19,21.8,
5064615,-0.03,-0.07,1.08,-0.49,3.23,0.67,918.21,21.81,
5064653,-0.02,-0.08,1.1,-0.43,3.54,0.67,918.23,21.81,
5064692,-0.03,-0.08,1.15,-0.31,3.23,0.67,918.19,21.8,
5064730,-0.01,-0.07,1.13,0.0,2.93,0.61,918.2,21.81,
5064768,-0.04,-0.07,1.09,0.31,2.75,0.67,918.21,21.82,
5064807,-0.02,-0.06,1.13,1.1,2.32,0.67,918.2,21.81,
5064845,-0.01,-0.09,1.05,1.1,3.54,0.73,918.14,21.81,
5064883,-0.02,-0.07,1.05,1.22,2.44,0.67,918.15,21.81,
5064933,-0.02,-0.08,1.01,1.53,3.05,0.92,918.17,21.81,
5064971,-0.02,-0.08,0.96,1.53,3.11,0.67,918.12,21.79,
5065010,-0.03,-0.08,1.0,2.2,3.36,0.61,918.08,21.79,
5065048,-0.02,-0.08,0.94,1.89,3.36,0.73,918.12,21.81,
5065086,-0.03,-0.07,0.96,2.38,2.08,0.61,918.07,21.81,
5065125,-0.02,-0.07,0.93,2.2,2.14,0.73,918.03,21.8,
5065163,-0.02,-0.08,0.95,2.38,1.53,0.79,918.08,21.81,
5065201,-0.01,-0.09,0.94,2.56,1.28,0.79,918.06,21.81,
5065240,-0.03,-0.07,0.94,2.99,0.67,0.79,917.98,21.81,
5065278,-0.03,-0.08,0.88,2.87,1.46,0.79,917.98,21.8,
5065328,-0.03,-0.07,0.88,3.05,1.22,0.67,918.03,21.8,
5065366,-0.04,-0.08,0.86,2.99,2.26,0.85,917.96,21.8,
5065404,-0.03,-0.08,0.81,2.69,2.56,0.85,917.93,21.81,
5065443,-0.03,-0.06,0.86,2.81,3.48,0.73,917.87,21.81,
5065481,-0.02,-0.08,0.82,2.2,3.72,0.92,917.9,21.81,
5065519,-0.02,-0.07,0.86,2.14,3.54,0.92,917.9,21.81,
5065558,-0.03,-0.08,0.82,2.01,4.58,0.85,917.89,21.81,
5065596,-0.03,-0.07,0.86,1.83,4.27,0.85,917.93,21.82,
5065634,-0.02,-0.07,0.88,1.83,5.07,0.85,917.8,21.81,
5065673,-0.01,-0.08,0.92,1.65,5.43,0.79,917.9,21.81,
5065723,-0.02,-0.08,0.96,1.1,6.65,0.79,917.82,21.79,
5065761,-0.02,-0.06,1.08,0.92,5.43,0.92,917.82,21.81,
5065799,-0.04,-0.06,1.17,1.28,6.04,0.85,917.82,21.82,
5065837,-0.03,-0.06,1.21,1.53,6.65,0.92,917.78,21.81,
5065876,-0.03,-0.05,1.31,1.95,6.29,0.92,917.79,21.82,
5065914,-0.05,-0.06,1.3,1.95,7.08,0.85,917.72,21.81,
5065952,-0.04,-0.05,1.29,2.14,6.96,0.98,917.76,21.82,
5065991,-0.03,-0.05,1.26,2.44,7.39,1.28,917.75,21.81,
5066029,-0.03,-0.06,1.16,2.26,7.14,1.34,917.72,21.81,
5066106,-0.02,-0.06,1.12,2.14,5.62,1.65,917.62,21.79,
5066145,-0.04,-0.07,1.12,2.08,4.64,1.71,917.65,21.8,
5066183,-0.04,-0.07,1.06,1.34,4.46,1.71,917.63,21.81,
5066273,-0.02,-0.07,1.09,1.1,3.42,2.01,917.65,21.78,
5066311,-0.02,-0.07,1.13,0.98,3.23,1.89,917.59,21.78,
5066350,-0.04,-0.07,1.13,0.55,3.23,1.83,917.54,21.78,
5066388,-0.01,-0.06,1.17,0.49,2.56,1.83,917.55,21.79,
5066426,-0.03,-0.06,1.13,0.31,2.69,1.77,917.59,21.8,
5066464,-0.02,-0.06,1.16,0.49,1.65,1.71,917.56,21.81,
5066503,-0.01,-0.06,1.14,0.49,1.46,1.59,917.44,21.8,
5066553,-0.02,-0.06,1.11,0.24,1.04,1.71,917.48,21.8,
5066591,-0.0,-0.05,1.14,-0.06,1.59,1.4,917.53,21.79,
5066629,-0.03,-0.06,1.13,-0.06,2.08,1.65,917.46,21.8,
5066668,-0.02,-0.07,1.17,-0.06,2.26,1.46,917.46,21.79,
5066706,-0.01,-0.07,1.16,-0.06,3.05,1.34,917.49,21.81,
5066744,-0.01,-0.06,1.18,0.37,2.38,1.28,917.44,21.79,
5066783,0.0,-0.06,1.17,0.49,2.81,1.16,917.41,21.8,
5066821,-0.02,-0.06,1.13,1.04,2.62,1.04,917.4,21.79,
5066859,-0.0,-0.06,1.15,1.4,2.01,0.98,917.39,21.79,
5066898,-0.0,-0.06,1.16,1.89,1.65,0.79,917.35,21.8,
5066948,-0.02,-0.06,1.15,2.08,1.28,0.73,917.35,21.78,
5066986,-0.02,-0.06,1.16,2.01,0.92,0.73,917.31,21.8,
5067024,-0.02,-0.06,1.14,2.14,0.73,0.79,917.35,21.8,
5067062,-0.02,-0.07,1.09,2.2,0.18,0.79,917.3,21.79,
5067101,-0.02,-0.07,1.08,2.2,-0.24,0.61,917.27,21.79,
5067139,-0.02,-0.06,1.03,2.32,-0.24,0.73,917.25,21.8,
5067177,0.0,-0.07,1.0,2.56,-0.85,0.61,917.22,21.8,
5067216,-0.01,-0.08,0.91,2.44,-0.49,0.43,917.22,21.79,
5067254,-0.03,-0.06,0.96,2.56,-1.77,0.55,917.23,21.79,
5067304,-0.02,-0.08,0.89,2.2,-0.79,0.43,917.16,21.78,
5067342,-0.02,-0.06,0.95,2.81,-1.77,0.43,917.16,21.79,
5067381,-0.01,-0.08,0.91,2.62,-0.49,0.37,917.1,21.8,
5067419,-0.02,-0.08,0.87,2.62,-0.31,0.31,917.1,21.8,
5067457,-0.02,-0.07,0.88,2.87,1.04,0.31,917.1,21.79,
5067496,-0.02,-0.07,0.83,2.26,1.65,0.31,917.1,21.79,
5067534,-0.02,-0.07,0.86,2.38,1.77,0.31,917.06,21.79,
5067572,-0.02,-0.08,0.86,2.14,2.75,0.12,917.0,21.79,
5067611,-0.03,-0.07,0.91,2.38,2.93,0.12,917.0,21.8,
5067649,-0.02,-0.08,0.92,2.26,3.23,0.24,916.97,21.81,
5067699,-0.02,-0.07,0.91,2.44,3.05,0.18,916.97,21.8,
5067737,-0.02,-0.08,0.9,2.14,3.72,0.24,916.96,21.81,
5067776,-0.02,-0.08,0.89,2.14,4.21,0.18,916.88,21.81,
5067814,-0.02,-0.07,0.88,2.14,4.46,0.12,916.93,21.81,
5067852,-0.02,-0.07,0.87,2.26,4.39,0.06,916.84,21.8,
5067890,-0.02,-0.07,0.88,2.38,3.91,0.0,916.87,21.8,
5067929,-0.02,-0.07,0.86,2.26,3.97,0.24,916.89,21.81,
5067967,-0.02,-0.07,0.85,2.32,3.3,0.31,916.82,21.8,
5068005,-0.02,-0.07,0.85,2.38,3.36,0.24,916.8,21.81,
5068055,-0.03,-0.07,0.84,2.38,3.17,0.37,916.76,21.78,
5068094,-0.02,-0.07,0.85,2.44,3.3,0.31,916.76,21.8,
5068132,-0.01,-0.07,0.86,2.38,3.11,0.31,916.74,21.8,
5068170,-0.03,-0.07,0.86,2.62,3.23,0.37,916.75,21.8,
5068209,-0.03,-0.07,0.85,2.62,3.48,0.49,916.79,21.81,
5068247,-0.01,-0.07,0.87,2.81,2.99,0.43,916.74,21.81,
5068285,-0.01,-0.07,0.84,2.81,2.44,0.49,916.67,21.8,
5068323,-0.02,-0.07,0.82,2.87,1.4,0.67,916.63,21.81,
5068361,-0.03,-0.07,0.8,2.93,1.77,0.61,916.66,21.8,
5068400,-0.02,-0.07,0.79,2.69,2.14,0.49,916.65,21.82,
5068450,-0.02,-0.07,0.78,2.69,2.01,0.67,916.62,21.81,
5068488,-0.04,-0.06,0.81,2.87,1.53,0.79,916.65,21.81,
5068526,-0.04,-0.07,0.85,2.75,3.23,0.67,916.6,21.81,
5068565,-0.02,-0.06,0.89,2.38,3.85,0.67,916.57,21.81,
5068603,-0.04,-0.06,0.97,2.5,5.07,0.61,916.58,21.82,
5068641,-0.05,-0.06,0.99,2.01,6.96,0.55,916.54,21.8,
5068679,-0.02,-0.06,1.09,2.08,7.02,0.61,916.58,21.82,
5068718,-0.02,-0.05,1.12,1.77,7.39,0.67,916.52,21.81,
5068756,-0.03,-0.05,1.12,1.89,8.42,0.85,916.51,21.82,
5068794,-0.03,-0.04,1.18,2.32,8.06,0.79,916.53,21.8,
5068844,-0.02,-0.06,1.12,2.69,7.45,0.92,916.5,21.8,
5068882,-0.03,-0.05,1.12,3.48,6.16,0.73,916.51,21.82,
5068921,-0.03,-0.06,1.05,3.72,6.65,0.98,916.54,21.82,
5068959,-0.01,-0.05,1.02,3.78,5.68,0.98,916.54,21.82,
5068997,-0.03,-0.06,1.0,3.85,5.62,1.04,916.44,21.81,
5069036,-0.02,-0.07,1.0,3.66,5.62,0.98,916.46,21.82,
5069074,-0.01,-0.07,1.02,3.85,5.98,0.92,916.46,21.82,
5069112,-0.0,-0.06,1.03,4.03,5.49,0.98,916.4,21.81,
5069151,-0.0,-0.06,0.98,4.03,6.1,0.98,916.43,21.82,
5069227,0.0,-0.07,0.95,4.09,5.68,0.73,916.38,21.79,
5069265,-0.01,-0.07,0.88,4.09,5.55,0.85,916.35,21.78,
5069303,-0.01,-0.07,0.89,4.58,5.37,0.67,916.28,21.8,
5069393,-0.0,-0.08,0.83,4.94,5.86,0.61,916.26,21.76,
5069432,0.02,-0.07,0.84,4.88,7.02,0.31,916.24,21.78,
5069470,-0.01,-0.07,0.79,4.58,8.61,0.55,916.18,21.79,
5069508,0.02,-0.07,0.8,4.7,10.07,0.31,916.19,21.8,
5069547,-0.0,-0.09,0.77,4.64,11.84,0.18,916.21,21.79,
5069585,-0.01,-0.08,0.79,4.46,13.43,0.06,916.11,21.79,
5069623,0.01,-0.07,0.78,4.27,15.75,-0.12,916.11,21.79,
5069673,0.03,-0.06,0.84,4.27,17.09,-0.12,916.12,21.79,
5069712,0.03,-0.07,0.88,4.03,17.09,-0.18,916.02,21.8,
5069750,0.01,-0.08,0.92,4.03,16.91,-0.18,916.02,21.8,
5069788,0.04,-0.06,0.99,3.91,16.54,-0.18,916.06,21.79,
5069827,0.03,-0.06,0.99,3.85,15.44,-0.12,916.0,21.79,
5069865,0.01,-0.07,0.95,3.85,14.04,0.0,916.04,21.81,
5069903,0.03,-0.07,0.94,3.78,13.73,-0.06,916.02,21.8,
5069941,0.04,-0.06,0.93,3.91,13.0,-0.06,916.1,21.81,
5069980,0.03,-0.06,0.86,4.09,12.21,0.0,916.1,21.81,
5070018,0.02,-0.07,0.86,4.33,12.02,-0.31,916.05,21.81,
5070068,0.04,-0.08,0.86,4.27,12.82,-0.55,916.0,21.79,
5070106,0.04,-0.08,0.86,3.91,12.57,-0.98,915.94,21.8,
5070145,0.05,-0.07,0.85,3.36,13.24,-1.16,915.96,21.81,
5070183,0.04,-0.07,0.84,2.93,13.73,-1.22,915.98,21.81,
5070221,0.05,-0.08,0.78,2.2,13.55,-1.59,915.95,21.81,
5070260,0.04,-0.07,0.78,2.01,12.51,-1.83,915.85,21.8,
5070298,0.02,-0.08,0.75,1.77,12.7,-1.65,915.95,21.81,
5070336,0.04,-0.07,0.74,1.22,12.08,-2.14,915.9,21.81,
5070375,0.03,-0.07,0.78,1.4,11.78,-2.26,915.82,21.81,
5070425,0.05,-0.08,0.77,0.85,12.02,-2.44,915.78,21.79,
5070463,0.04,-0.07,0.77,0.55,12.08,-2.69,915.84,21.8,
5070501,0.05,-0.07,0.74,-0.12,11.6,-2.87,915.87,21.81,
5070540,0.02,-0.08,0.77,0.0,11.17,-3.05,915.83,21.79,
5070578,0.05,-0.08,0.78,-0.24,11.6,-3.17,915.79,21.79,
5070616,0.04,-0.08,0.78,0.18,10.68,-3.66,915.84,21.79,
5070654,0.01,-0.07,0.73,-0.06,11.54,-3.72,915.88,21.79,
5070693,0.03,-0.06,0.78,-0.24,10.74,-3.78,915.82,21.79,
5070731,0.02,-0.07,0.78,-0.24,10.99,-3.97,915.85,21.8,
5070781,0.02,-0.06,0.81,-0.85,9.77,-3.85,915.85,21.78,
5070820,0.03,-0.07,0.84,-0.79,10.31,-4.09,915.83,21.79,
5070858,0.03,-0.07,0.84,-1.4,9.64,-4.27,915.87,21.78,
5070896,0.02,-0.05,0.9,-1.04,8.73,-4.21,915.82,21.79,
5070934,0.02,-0.07,0.85,-1.77,9.03,-4.21,915.81,21.78,
5070973,0.02,-0.06,0.92,-1.46,8.48,-4.33,915.79,21.79,
5071011,0.01,-0.06,0.92,-1.83,8.91,-4.39,915.78,21.77,
5071049,0.01,-0.06,0.95,-1.34,8.0,-4.33,915.81,21.78,
5071088,0.01,-0.06,0.98,-1.28,8.36,-4.52,915.82,21.78,
5071126,0.03,-0.06,1.01,-1.28,7.87,-4.46,915.83,21.78,
5071176,0.02,-0.05,1.01,-1.1,7.87,-4.46,915.82,21.78,
5071214,0.01,-0.06,1.0,-1.28,8.0,-4.39,915.85,21.79,
5071253,0.03,-0.06,1.03,-1.4,8.12,-4.52,915.75,21.78,
5071291,0.02,-0.05,1.04,-1.59,8.12,-4.58,915.84,21.78,
5071329,0.03,-0.05,1.07,-2.5,6.9,-4.46,915.73,21.78,
5071368,0.03,-0.04,1.12,-2.93,6.65,-4.82,915.75,21.79,
5071406,0.03,-0.04,1.14,-4.09,5.98,-4.88,915.76,21.79,
5071444,0.03,-0.04,1.12,-4.94,5.98,-4.82,915.74,21.79,
5071483,0.02,-0.03,1.13,-6.1,4.88,-4.94,915.71,21.8,
5071533,0.02,-0.05,1.19,-6.65,5.92,-5.37,915.75,21.8,
5071571,0.02,-0.04,1.22,-7.81,6.65,-5.55,915.71,21.8,
5071609,0.01,-0.02,1.27,-7.93,7.69,-5.55,915.78,21.81,
5071648,0.02,-0.05,1.21,-8.3,8.36,-5.86,915.71,21.79,
5071686,0.01,-0.04,1.23,-8.36,8.67,-6.16,915.72,21.79,
5071724,0.01,-0.01,1.29,-8.42,8.91,-6.16,915.65,21.8,
5071763,0.02,-0.02,1.36,-8.61,8.42,-6.16,915.69,21.79,
5071801,0.01,-0.01,1.39,-8.61,8.79,-6.16,915.7,21.8,
5071839,0.01,-0.01,1.52,-8.12,9.58,-6.35,915.64,21.81,
5071877,0.04,-0.03,1.51,-8.48,10.86,-6.65,915.63,21.8,
5071928,0.01,0.03,1.73,-7.32,9.52,-6.84,915.64,21.79,
5071966,0.0,0.01,1.6,-7.81,12.7,-6.65,915.68,21.78,
5072004,0.01,0.04,1.73,-6.16,10.07,-6.84,915.7,21.8,
5072042,-0.0,0.01,1.61,-6.1,12.57,-6.77,915.64,21.79,
5072081,0.02,0.01,1.6,-4.58,11.05,-6.71,915.71,21.8,
5072119,0.0,-0.0,1.51,-4.15,12.63,-6.65,915.67,21.8,
5072157,0.01,0.0,1.49,-2.62,11.23,-6.77,915.63,21.8,
5072196,0.02,-0.01,1.45,-2.32,11.41,-6.84,915.66,21.8,
5072234,0.0,-0.05,1.32,-2.5,12.27,-6.84,915.53,21.79,
5072310,0.02,-0.03,1.27,-3.23,13.85,-7.08,915.55,21.77,
5072349,0.03,-0.03,1.25,-3.48,13.98,-7.14,915.59,21.78,
5072387,0.01,-0.04,1.22,-3.85,15.32,-7.39,915.59,21.8,
5072477,0.03,-0.04,1.21,-3.72,15.08,-7.45,915.56,21.76,
5072515,0.02,-0.03,1.27,-3.54,14.4,-7.45,915.52,21.78,
5072554,0.03,-0.04,1.21,-3.54,15.38,-7.57,915.54,21.78,
5072592,0.03,-0.02,1.27,-3.17,12.57,-7.57,915.47,21.78,
5072630,0.01,-0.04,1.24,-3.05,12.33,-7.51,915.48,21.77,
5072669,0.02,-0.04,1.19,-2.81,11.05,-7.63,915.46,21.79,
5072707,0.03,-0.03,1.22,-2.5,10.62,-7.75,915.49,21.79,
5072757,0.03,-0.03,1.23,-2.14,8.67,-7.93,915.42,21.78,
5072795,0.01,-0.02,1.24,-2.01,8.0,-8.24,915.39,21.78,
5072834,0.02,-0.02,1.25,-1.65,7.2,-8.24,915.4,21.78,
5072872,0.02,-0.02,1.28,-2.08,6.96,-8.42,915.34,21.78,
5072910,0.01,-0.03,1.24,-2.44,6.77,-8.67,915.35,21.78,
5072949,-0.0,-0.02,1.28,-3.6,7.81,-8.79,915.28,21.78,
5072987,0.01,-0.03,1.24,-4.03,7.75,-9.03,915.26,21.78,
5073025,0.02,-0.01,1.26,-4.7,7.14,-9.22,915.29,21.79,
5073063,0.01,-0.02,1.24,-5.62,8.12,-9.16,915.28,21.79,
5073114,0.0,-0.01,1.32,-5.8,7.87,-9.52,915.26,21.79,
5073152,0.03,-0.02,1.32,-5.98,7.57,-9.52,915.28,21.79,
5073190,0.02,-0.02,1.33,-5.98,7.08,-9.89,915.23,21.8,
5073228,0.01,-0.01,1.33,-6.47,6.23,-9.95,915.21,21.79,
5073267,0.01,-0.03,1.33,-6.59,6.29,-9.95,915.27,21.8,
5073305,0.02,-0.02,1.31,-6.9,5.25,-10.38,915.19,21.78,
5073343,-0.01,-0.01,1.34,-6.84,4.76,-10.5,915.16,21.79,
5073382,0.01,-0.02,1.29,-7.14,4.58,-10.62,915.18,21.79,
5073420,-0.0,-0.01,1.33,-7.08,3.66,-11.05,915.15,21.81,
5073470,-0.02,-0.02,1.31,-7.26,3.66,-10.8,915.08,21.79,
5073508,-0.01,-0.01,1.35,-7.02,3.05,-11.05,915.18,21.79,
5073546,-0.01,-0.01,1.36,-6.84,3.48,-11.05,915.14,21.8,
5073585,-0.02,-0.0,1.36,-6.71,2.75,-10.99,915.19,21.81,
5073623,-0.02,-0.01,1.37,-6.59,3.6,-11.17,915.09,21.79,
5073661,-0.01,-0.01,1.35,-6.65,3.91,-11.41,915.09,21.8,
5073700,-0.03,-0.0,1.35,-6.29,4.21,-11.29,915.11,21.8,
5073738,-0.03,-0.02,1.31,-6.04,4.82,-11.47,915.07,21.8,
5073776,-0.01,-0.01,1.31,-5.86,5.19,-11.6,915.09,21.8,
5073815,-0.02,-0.01,1.26,-5.74,5.86,-11.72,915.09,21.8,
5073865,-0.03,-0.02,1.21,-5.13,6.16,-11.54,915.08,21.78,
5073903,-0.02,-0.02,1.17,-4.88,6.71,-11.78,915.05,21.79,
5073941,-0.02,-0.02,1.16,-4.52,6.47,-11.6,915.04,21.79,
5073980,-0.03,-0.03,1.11,-4.09,6.84,-11.35,915.04,21.8,
5074018,-0.05,-0.04,1.06,-3.85,6.59,-11.6,915.0,21.8,
5074056,-0.04,-0.04,1.08,-3.72,6.29,-11.29,915.05,21.81,
5074094,-0.03,-0.05,1.03,-4.21,5.49,-10.99,914.9,21.8,
5074133,-0.04,-0.04,0.99,-4.46,4.39,-10.93,914.9,21.8,
5074171,-0.02,-0.04,0.99,-5.19,4.03,-11.11,914.86,21.81,
5074221,-0.03,-0.03,1.03,-5.86,3.11,-10.74,914.86,21.78,
5074259,-0.03,-0.03,1.07,-5.92,2.75,-10.74,914.86,21.8,
5074298,-0.03,-0.05,1.1,-6.16,2.93,-10.62,914.82,21.78,
5074336,-0.03,-0.03,1.14,-6.23,2.44,-10.68,914.84,21.78,
5074374,-0.04,-0.03,1.15,-6.41,2.75,-10.56,914.88,21.8,
5074412,-0.04,-0.02,1.14,-6.23,2.75,-10.44,914.85,21.8,
5074451,-0.02,-0.03,1.14,-6.23,3.42,-10.38,914.82,21.8,
5074489,-0.04,-0.03,1.13,-6.47,3.6,-10.56,914.8,21.8,
5074527,-0.04,-0.01,1.2,-6.53,3.72,-10.25,914.72,21.79,
5074578,-0.04,-0.01,1.23,-6.9,4.58,-9.89,914.75,21.79,
5074616,-0.04,-0.01,1.3,-7.39,4.09,-9.95,914.72,21.79,
5074654,-0.05,-0.01,1.35,-7.75,4.33,-9.7,914.7,21.79,
5074692,-0.04,-0.02,1.37,-8.0,4.15,-9.64,914.72,21.79,
5074731,-0.05,-0.0,1.42,-7.93,4.58,-9.46,914.69,21.79,
5074769,-0.03,0.01,1.41,-8.42,4.33,-8.97,914.67,21.79,
5074807,-0.05,0.01,1.45,-8.3,4.21,-8.91,914.76,21.8,
5074846,-0.05,-0.0,1.4,-8.3,4.64,-8.85,914.64,21.79,
5074884,-0.04,0.01,1.46,-8.3,4.21,-8.79,914.63,21.79,
5074934,-0.05,0.01,1.43,-8.18,3.48,-8.24,914.64,21.79,
5074972,-0.04,0.02,1.45,-8.12,2.87,-7.87,914.64,21.8,
5075011,-0.04,-0.0,1.43,-8.3,3.11,-7.87,914.58,21.8,
5075049,-0.05,0.0,1.4,-8.42,2.87,-7.69,914.58,21.8,
5075087,-0.06,0.01,1.36,-8.36,3.54,-7.45,914.62,21.81,
5075126,-0.03,0.01,1.37,-8.73,3.17,-7.32,914.54,21.8,
5075164,-0.05,0.01,1.39,-8.73,2.87,-6.96,914.59,21.81,
5075202,-0.06,-0.0,1.37,-8.91,2.56,-6.84,914.54,21.81,
5075240,-0.06,-0.01,1.39,-9.09,2.93,-6.84,914.6,21.81,
5075279,-0.04,0.0,1.31,-9.4,3.85,-6.65,914.58,21.81,
5075355,-0.04,-0.01,1.32,-9.7,4.76,-6.47,914.54,21.79,
5075393,-0.05,0.0,1.35,-9.7,4.94,-6.41,914.53,21.79,
5075431,-0.06,0.01,1.34,-9.95,5.86,-6.53,914.53,21.8,
5075521,-0.04,-0.01,1.42,-9.77,5.55,-6.04,914.49,21.77,
5075560,-0.04,0.01,1.45,-9.7,5.31,-6.16,914.47,21.78,
5075598,-0.04,0.01,1.41,-9.58,6.29,-5.8,914.46,21.8,
5075636,-0.03,0.01,1.4,-9.52,5.49,-5.92,914.51,21.8,
5075675,-0.06,0.0,1.39,-9.4,5.37,-5.55,914.46,21.79,
5075713,-0.04,-0.0,1.36,-9.22,5.0,-5.55,914.48,21.8,
5075763,-0.04,0.01,1.37,-9.58,5.0,-5.07,914.45,21.79,
5075802,-0.04,0.0,1.39,-9.52,4.33,-5.13,914.43,21.79,
5075840,-0.04,0.01,1.4,-9.89,4.7,-5.13,914.42,21.8,
5075878,-0.03,0.01,1.41,-9.89,4.21,-4.82,914.38,21.79,
5075916,-0.01,0.02,1.45,-9.95,3.54,-4.7,914.41,21.81,
5075955,-0.03,0.02,1.44,-9.4,3.05,-4.76,914.45,21.8,
5075993,-0.03,0.01,1.42,-9.4,2.81,-4.82,914.49,21.8,
5076031,-0.01,0.01,1.41,-9.16,2.56,-4.76,914.42,21.8,
5076070,-0.02,0.01,1.37,-8.85,1.83,-4.52,914.41,21.8,
5076108,-0.02,0.01,1.39,-8.42,1.53,-4.58,914.5,21.82,
5076158,-0.02,-0.01,1.35,-7.69,1.46,-4.58,914.42,21.8,
5076196,-0.01,-0.0,1.35,-7.45,1.04,-4.58,914.41,21.81,
5076235,-0.01,-0.0,1.33,-6.96,0.85,-4.58,914.42,21.81,
5076273,-0.01,-0.0,1.28,-6.65,0.85,-4.58,914.41,21.81,
5076311,-0.01,0.0,1.31,-6.16,0.24,-4.33,914.44,21.82,
5076350,-0.01,-0.02,1.26,-5.92,0.31,-4.58,914.38,21.81,
5076388,-0.02,-0.02,1.24,-5.55,0.12,-4.58,914.37,21.81,
5076426,-0.01,-0.01,1.23,-5.25,0.49,-4.64,914.38,21.81,
5076465,-0.0,-0.02,1.19,-5.31,0.85,-4.52,914.38,21.81,
5076515,-0.01,-0.02,1.21,-4.82,0.67,-4.7,914.35,21.79,
5076553,-0.01,-0.03,1.17,-4.64,1.16,-4.82,914.32,21.8,
5076591,-0.01,-0.01,1.16,-4.09,1.53,-4.82,914.33,21.81,
5076630,0.01,-0.02,1.14,-4.03,1.71,-5.31,914.32,21.81,
5076668,0.0,-0.02,1.14,-3.78,1.77,-5.25,914.35,21.81,
5076706,-0.0,-0.03,1.12,-3.72,2.01,-5.49,914.36,21.82,
5076744,0.01,-0.04,1.13,-3.66,2.2,-5.68,914.25,21.81,
5076783,-0.0,-0.03,1.09,-3.85,3.17,-5.68,914.29,21.82,
5076821,0.0,-0.02,1.14,-3.66,2.44,-5.86,914.25,21.8,
5076871,0.01,-0.03,1.08,-4.15,3.23,-6.04,914.26,21.8,
5076909,0.01,-0.03,1.16,-3.91,2.44,-6.23,914.28,21.81,
5076948,0.02,-0.04,1.1,-4.09,3.6,-6.23,914.27,21.81,
5076986,0.01,-0.01,1.14,-3.78,2.2,-6.23,914.24,21.81,
5077024,0.0,-0.03,1.15,-3.78,2.93,-6.29,914.26,21.81,
5077063,0.0,-0.03,1.11,-3.78,2.69,-6.53,914.19,21.81,
5077101,0.01,-0.04,1.17,-3.48,3.05,-6.65,914.24,21.81,
5077139,0.02,-0.04,1.1,-3.97,3.42,-6.77,914.2,21.81,
5077177,0.01,-0.02,1.15,-3.85,2.87,-6.84,914.18,21.79,
5077216,0.01,-0.04,1.09,-4.33,3.78,-6.77,914.26,21.81,
5077266,0.01,-0.03,1.14,-4.03,3.36,-7.02,914.18,21.79,
5077304,0.01,-0.03,1.08,-4.58,3.6,-7.08,914.23,21.8,
5077342,0.01,-0.03,1.11,-4.21,1.95,-7.2,914.18,21.8,
5077381,0.01,-0.03,1.06,-4.7,2.56,-7.14,914.26,21.81,
5077419,0.03,-0.04,1.07,-4.33,1.22,-7.39,914.18,21.81,
5077457,0.0,-0.07,1.02,-3.97,1.46,-7.39,914.23,21.82,
5077496,0.01,-0.06,0.92,-4.46,1.65,-7.69,914.23,21.81,
5077534,0.01,-0.03,0.96,-3.91,1.77,-7.75,914.18,21.81,
5077572,0.02,-0.05,0.91,-4.52,2.62,-7.81,914.16,21.81,
5077622,-0.01,-0.06,0.96,-4.58,1.83,-8.06,914.15,21.79,
5077661,0.01,-0.06,1.0,-5.55,2.99,-8.18,914.11,21.81,
5077699,0.02,-0.04,1.08,-5.62,1.83,-8.36,914.12,21.81,
5077737,0.01,-0.04,1.07,-6.59,1.71,-8.42,914.09,21.81,
5077775,0.01,-0.04,1.12,-6.84,1.65,-8.73,914.01,21.81,
5077814,0.01,-0.04,1.15,-7.63,2.44,-8.67,914.08,21.79,
5077852,0.03,-0.04,1.19,-7.93,1.4,-8.85,914.09,21.8,
5077890,0.01,-0.02,1.23,-8.42,1.16,-9.03,914.07,21.8,
5077929,-0.01,-0.02,1.25,-8.54,1.28,-9.22,914.09,21.81,
5077967,0.0,-0.03,1.28,-8.91,1.28,-9.09,914.07,21.81,
5078017,0.01,-0.02,1.3,-9.16,0.73,-9.34,914.06,21.79,
5078055,-0.01,-0.02,1.33,-9.16,0.37,-9.46,914.04,21.8,
5078094,0.0,-0.01,1.33,-9.28,1.16,-9.52,914.06,21.8,
5078132,0.01,-0.0,1.38,-9.09,0.98,-9.7,913.99,21.8,
5078170,0.02,-0.01,1.38,-9.16,1.28,-9.95,914.01,21.8,
5078209,-0.01,-0.0,1.39,-9.16,0.49,-9.89,914.0,21.81,
5078247,0.0,0.0,1.43,-8.97,0.61,-9.83,913.99,21.8,
5078285,0.01,-0.01,1.42,-9.03,0.18,-10.01,914.04,21.81,
5078324,-0.0,0.0,1.45,-9.16,-0.18,-10.01,914.06,21.81,
5078400,0.0,0.0,1.46,-8.91,-0.31,-10.01,914.02,21.77,
5078438,-0.01,0.01,1.47,-8.67,-0.37,-10.01,913.98,21.79,
5078476,-0.01,0.0,1.45,-8.48,-0.37,-10.19,913.99,21.78,
5078566,-0.02,0.0,1.45,-8.3,-0.31,-10.25,913.96,21.76,
5078605,0.0,0.0,1.46,-8.3,-0.37,-10.38,913.94,21.77,
5078643,-0.01,0.0,1.47,-8.06,-0.24,-10.44,913.95,21.77,
5078681,-0.02,0.0,1.42,-7.81,0.0,-10.5,914.01,21.77,
5078719,-0.02,0.01,1.45,-7.69,-0.43,-10.62,914.03,21.79,
5078758,-0.02,0.01,1.43,-7.51,-0.49,-10.62,913.96,21.79,
5078808,-0.03,0.0,1.41,-7.45,-0.06,-10.5,913.95,21.78,
5078846,-0.01,0.0,1.42,-7.2,0.12,-10.62,913.97,21.8,
5078884,-0.01,0.0,1.38,-6.96,-0.37,-10.74,913.96,21.78,
5078923,-0.03,0.01,1.37,-7.26,-0.73,-10.56,913.94,21.79,
5078961,-0.02,-0.0,1.38,-7.08,-0.67,-10.5,913.91,21.79,
5078999,-0.02,-0.0,1.4,-7.14,-1.22,-10.62,913.94,21.79,
5079038,-0.03,0.01,1.4,-7.02,-1.71,-10.38,913.98,21.79,
5079076,-0.02,0.0,1.4,-6.9,-1.83,-10.31,913.98,21.8,
5079114,-0.03,0.01,1.41,-7.14,-1.89,-10.5,913.97,21.79,
5079164,-0.02,0.02,1.43,-7.45,-2.08,-10.13,913.98,21.79,
5079203,-0.03,0.01,1.42,-7.45,-1.95,-10.13,913.89,21.78,
5079241,-0.04,0.02,1.46,-7.39,-1.83,-9.95,913.92,21.8,
5079279,-0.04,0.02,1.46,-7.26,-0.49,-10.19,913.9,21.79,
5079318,-0.02,0.02,1.47,-7.39,-0.67,-9.95,913.87,21.79,
5079356,-0.03,0.03,1.51,-7.14,-0.12,-9.89,913.9,21.8,
5079394,-0.04,0.02,1.47,-7.2,0.67,-9.7,913.94,21.8,
5079433,-0.03,0.02,1.5,-7.08,0.73,-9.95,913.95,21.81,
5079471,-0.02,0.02,1.43,-7.26,2.44,-9.89,913.91,21.8,
5079509,-0.02,0.01,1.42,-6.9,2.5,-9.89,913.85,21.79,
5079559,-0.02,-0.01,1.36,-6.84,3.36,-9.7,913.86,21.79,
5079597,-0.02,0.01,1.36,-6.77,3.11,-9.7,913.85,21.79,
5079636,-0.03,0.01,1.38,-6.47,3.78,-9.52,913.87,21.8,
5079674,-0.02,-0.01,1.37,-6.16,3.23,-9.64,913.8,21.8,
5079712,-0.02,-0.0,1.47,-5.86,2.26,-9.58,913.87,21.8,
5079751,-0.02,-0.01,1.39,-5.92,2.75,-9.28,913.85,21.8,
5079789,-0.03,-0.0,1.39,-5.8,1.59,-9.22,913.81,21.79,
5079827,-0.01,-0.02,1.32,-5.74,2.26,-9.09,913.86,21.81,
5079865,-0.02,-0.02,1.26,-5.62,1.71,-9.09,913.86,21.8,
5079915,-0.02,-0.04,1.26,-5.55,0.92,-8.85,913.82,21.79,
5079954,-0.02,-0.03,1.23,-5.13,0.43,-8.91,913.76,21.79,
5079992,-0.03,-0.0,1.28,-5.31,1.1,-8.85,913.77,21.81,
5080030,-0.02,-0.02,1.26,-5.31,1.4,-8.73,913.77,21.82,
5080069,-0.03,-0.04,1.3,-5.37,0.98,-8.73,913.78,21.8,
5080107,-0.03,-0.05,1.32,-5.43,1.28,-8.91,913.76,21.81,
5080145,-0.03,-0.04,1.31,-5.37,1.46,-8.61,913.75,21.81,
5080183,-0.01,-0.02,1.29,-5.37,1.16,-8.54,913.72,21.82,
5080221,-0.03,-0.03,1.24,-5.49,1.04,-8.54,913.69,21.8,
5080271,-0.02,-0.04,1.22,-5.68,0.85,-8.36,913.63,21.8,
5080310,-0.01,-0.03,1.25,-5.98,1.28,-8.48,913.71,21.81,
5080348,-0.02,-0.03,1.24,-6.35,1.34,-8.3,913.69,21.81,
5080386,-0.02,-0.03,1.28,-6.35,1.16,-8.24,913.63,21.81,
5080424,-0.01,-0.04,1.29,-6.47,1.22,-8.18,913.63,21.8,
5080463,-0.01,-0.05,1.25,-6.77,0.61,-8.06,913.68,21.82,
5080501,-0.02,-0.03,1.21,-7.14,0.06,-8.06,913.65,21.8,
5080539,-0.0,-0.03,1.2,-7.2,-0.06,-8.12,913.62,21.81,
5080577,-0.01,-0.04,1.19,-7.51,0.37,-8.24,913.58,21.81,
5080616,-0.02,-0.04,1.21,-7.69,0.12,-8.18,913.55,21.81,
5080666,-0.01,-0.04,1.26,-7.75,0.85,-8.24,913.54,21.79,
5080704,-0.0,-0.02,1.35,-7.81,0.24,-8.42,913.52,21.81,
5080742,-0.01,-0.02,1.37,-8.18,0.61,-8.36,913.48,21.8,
5080781,-0.02,-0.02,1.4,-8.18,0.49,-8.48,913.53,21.81,
5080819,-0.0,-0.02,1.41,-8.18,1.16,-8.67,913.49,21.82,
5080857,-0.01,-0.01,1.39,-8.12,0.92,-8.61,913.49,21.82,
5080895,-0.01,0.0,1.41,-8.12,1.53,-8.67,913.48,21.82,
5080934,-0.01,-0.0,1.41,-7.93,2.08,-8.79,913.5,21.81,
5080972,0.0,-0.01,1.43,-7.69,2.08,-8.73,913.51,21.81,
5081022,-0.01,-0.02,1.39,-7.32,2.01,-8.61,913.46,21.81,
5081060,-0.0,-0.02,1.38,-7.08,2.26,-9.09,913.43,21.8,
5081098,-0.0,-0.02,1.36,-6.96,1.71,-9.03,913.47,21.82,
5081137,0.0,-0.02,1.35,-6.59,1.1,-8.85,913.48,21.82,
5081175,-0.0,-0.03,1.31,-6.71,1.04,-8.85,913.46,21.82,
5081213,-0.01,-0.02,1.31,-6.84,0.49,-8.85,913.41,21.82,
5081252,-0.01,-0.02,1.3,-6.77,0.31,-8.79,913.42,21.82,
5081290,-0.01,-0.02,1.3,-6.77,-0.24,-8.85,913.38,21.81,
5081328,-0.01,-0.02,1.31,-6.9,-0.37,-8.91,913.4,21.82,
5081404,-0.01,-0.02,1.3,-6.47,-0.24,-9.03,913.35,21.79,
5081443,-0.02,-0.01,1.29,-6.23,-0.37,-8.91,913.34,21.8,
5081481,-0.02,-0.02,1.28,-6.04,-0.06,-8.91,913.3,21.8,
5081571,-0.03,-0.02,1.26,-5.86,0.37,-8.97,913.36,21.78,
5081609,-0.02,-0.01,1.27,-5.62,1.22,-8.85,913.31,21.77,
5081648,0.0,-0.01,1.26,-5.49,1.34,-9.09,913.22,21.79,
5081686,-0.02,-0.02,1.24,-5.37,2.32,-9.03,913.3,21.79,
5081724,-0.03,-0.02,1.22,-5.37,3.78,-9.03,913.26,21.79,
5081763,-0.02,-0.0,1.26,-5.19,3.72,-9.03,913.27,21.78,
5081801,-0.02,-0.01,1.26,-4.7,4.76,-8.97,913.27,21.8,
5081851,-0.02,-0.01,1.29,-4.03,5.0,-8.79,913.21,21.79,
5081889,-0.01,-0.01,1.3,-3.48,5.74,-8.79,913.15,21.79,
5081927,-0.01,-0.01,1.3,-2.69,4.88,-8.54,913.21,21.8,
5081966,-0.02,-0.01,1.27,-2.2,4.82,-8.24,913.21,21.81,
5082004,0.0,-0.02,1.19,-1.53,4.52,-8.48,913.18,21.8,
5082042,0.0,-0.02,1.19,-0.92,4.15,-8.36,913.16,21.79,
5082080,-0.0,-0.03,1.12,-0.67,2.87,-7.93,913.12,21.8,
5082119,-0.0,-0.02,1.12,0.12,1.89,-8.18,913.1,21.81,
5082157,-0.01,-0.03,1.07,0.24,2.26,-8.12,913.1,21.79,
5082207,-0.0,-0.03,1.06,0.55,1.46,-8.06,913.05,21.79,
5082245,-0.01,-0.04,1.01,0.18,2.08,-8.42,913.02,21.79,
5082284,0.01,-0.04,1.0,0.06,2.14,-8.48,912.98,21.8,
5082322,0.0,-0.03,0.98,-0.24,2.14,-8.3,913.01,21.8,
5082360,-0.01,-0.03,0.97,-0.49,1.77,-8.36,913.0,21.8,
5082398,-0.01,-0.05,0.93,-0.55,2.62,-8.54,912.96,21.8,
5082437,0.01,-0.05,0.89,-0.79,2.44,-8.73,913.0,21.82,
5082475,-0.01,-0.04,0.9,-0.73,2.2,-8.79,913.03,21.81,
5082513,-0.0,-0.04,0.9,-0.67,2.99,-8.91,913.01,21.81,
5082563,0.01,-0.05,0.9,-0.85,4.15,-8.97,912.98,21.79,
5082601,-0.0,-0.05,0.85,-1.53,3.66,-8.85,912.94,21.8,
5082640,-0.02,-0.05,0.84,-1.77,3.72,-8.97,912.93,21.81,
5082678,-0.0,-0.04,0.85,-2.44,3.97,-9.03,912.93,21.81,
5082716,-0.0,-0.04,0.87,-2.44,3.42,-8.97,912.93,21.81,
5082754,0.01,-0.05,0.85,-2.99,3.3,-8.91,912.92,21.79,
5082793,-0.0,-0.04,0.92,-2.81,2.87,-8.91,912.9,21.8,
5082831,0.01,-0.04,0.95,-3.23,3.36,-9.09,912.91,21.81,
5082869,0.01,-0.03,1.03,-2.99,1.83,-8.97,912.89,21.82,
5082907,0.01,-0.03,1.03,-3.6,2.01,-9.03,912.9,21.81,
5082957,-0.01,-0.03,1.06,-3.3,1.65,-9.28,912.86,21.79,
5082996,-0.0,-0.04,1.08,-3.42,2.44,-9.22,912.86,21.81,
5083034,0.01,-0.02,1.09,-3.17,1.59,-9.52,912.85,21.81,
5083072,-0.01,-0.02,1.08,-3.17,1.89,-9.4,912.87,21.81,
5083110,0.0,-0.02,1.06,-3.3,2.5,-9.58,912.82,21.8,
5083149,-0.02,-0.02,1.09,-3.05,2.5,-9.64,912.86,21.81,
5083187,-0.0,-0.03,1.06,-3.42,2.44,-9.77,912.81,21.81,
5083225,-0.02,-0.02,1.08,-3.3,2.14,-9.64,912.83,21.81,
5083263,-0.02,-0.03,1.03,-3.66,2.99,-9.58,912.75,21.8,
5083313,0.0,-0.02,1.05,-3.97,1.53,-9.77,912.79,21.81,
5083352,-0.01,-0.02,1.03,-4.58,1.83,-9.7,912.76,21.8,
5083390,-0.02,-0.03,1.02,-4.7,1.65,-9.58,912.66,21.8,
5083428,-0.0,-0.03,1.0,-5.43,1.4,-9.7,912.66,21.8,
5083467,-0.02,-0.01,1.06,-5.43,0.85,-9.7,912.7,21.79,
5083505,-0.02,-0.03,1.06,-5.62,1.4,-9.64,912.73,21.81,
5083543,-0.01,-0.03,1.02,-5.74,1.89,-9.46,912.77,21.81,
5083581,-0.01,-0.02,1.05,-5.37,1.65,-9.7,912.74,21.81,
5083620,-0.02,-0.03,1.04,-5.43,1.34,-9.7,912.7,21.81,
5083670,-0.02,-0.03,1.06,-5.68,1.89,-9.77,912.68,21.78,
5083708,-0.01,-0.01,1.13,-5.86,1.77,-9.7,912.7,21.82,
5083746,-0.02,-0.01,1.16,-5.8,1.53,-9.7,912.66,21.8,
5083785,-0.02,-0.02,1.17,-6.47,2.08,-9.64,912.66,21.8,
5083823,-0.01,-0.01,1.22,-6.59,2.32,-9.58,912.66,21.8,
5083861,-0.02,0.01,1.25,-6.65,2.08,-9.64,912.6,21.8,
5083900,-0.04,0.02,1.28,-6.59,2.75,-9.4,912.61,21.79,
5083938,-0.03,0.03,1.33,-6.71,2.81,-9.4,912.61,21.81,
5083976,-0.02,0.02,1.37,-6.59,3.54,-9.34,912.6,21.81,
5084015,-0.03,0.02,1.37,-6.35,4.27,-9.09,912.58,21.8,
5084065,-0.02,0.03,1.4,-5.98,5.49,-9.34,912.63,21.8,
5084103,-0.02,0.03,1.37,-5.43,6.16,-9.16,912.59,21.79,
5084141,-0.03,0.03,1.38,-5.31,6.29,-9.22,912.59,21.79,
5084179,-0.03,0.02,1.35,-4.94,6.77,-9.09,912.66,21.81,
5084218,-0.03,0.02,1.3,-4.64,6.84,-8.97,912.65,21.8,
5084256,-0.02,0.02,1.29,-4.46,6.9,-8.79,912.58,21.8,
5084294,-0.02,0.01,1.26,-4.46,7.02,-8.73,912.54,21.8,
5084333,-0.02,0.01,1.26,-4.52,7.2,-8.42,912.53,21.79,
5084371,-0.02,0.01,1.25,-4.46,7.32,-8.36,912.54,21.81,
5084531,-0.02,0.01,1.25,-4.88,6.77,-8.18,912.51,21.74,
5084569,-0.02,0.0,1.21,-4.94,6.96,-8.06,912.5,21.75,
5084608,-0.01,0.01,1.22,-5.19,6.65,-8.0,912.51,21.76,
5084698,-0.03,0.01,1.21,-5.37,6.47,-7.93,912.46,21.73,
5084736,-0.02,0.01,1.22,-5.43,6.53,-7.87,912.54,21.75,
5084774,-0.01,0.0,1.23,-5.31,6.23,-7.69,912.45,21.75,
5084813,-0.01,0.01,1.22,-5.68,5.92,-7.75,912.46,21.76,
5084851,-0.03,0.01,1.22,-5.74,6.47,-7.63,912.46,21.76,
5084889,-0.01,0.0,1.21,-5.62,6.71,-7.75,912.49,21.78,
5084928,-0.01,0.01,1.22,-5.55,6.53,-8.0,912.5,21.77,
5084978,-0.02,0.01,1.21,-5.49,6.77,-7.81,912.49,21.77,
5085016,-0.01,0.01,1.22,-5.43,7.2,-7.87,912.48,21.78,
5085054,-0.01,0.01,1.21,-5.55,6.9,-8.18,912.47,21.78,
5085093,-0.01,0.01,1.22,-5.37,6.23,-8.12,912.47,21.78,
5085131,-0.01,0.01,1.22,-5.49,6.47,-7.93,912.43,21.78,
5085169,-0.01,0.01,1.24,-5.25,6.1,-8.12,912.44,21.78,
5085208,-0.01,0.01,1.24,-5.19,5.92,-8.18,912.43,21.79,
5085246,-0.02,0.01,1.25,-5.25,5.55,-8.0,912.42,21.8,
5085284,-0.01,0.01,1.24,-5.31,5.8,-8.06,912.36,21.8,
5085334,-0.01,0.02,1.26,-5.07,5.37,-7.87,912.38,21.78,
5085372,-0.01,0.01,1.21,-5.25,5.25,-8.0,912.41,21.79,
5085411,-0.02,0.02,1.24,-5.13,4.46,-7.93,912.38,21.8,
5085449,-0.01,0.01,1.21,-5.13,4.82,-8.06,912.36,21.8,
5085487,-0.01,0.01,1.23,-4.94,3.85,-8.3,912.31,21.81,
5085526,-0.01,0.01,1.21,-4.88,4.27,-8.12,912.32,21.81,
5085564,-0.0,0.0,1.19,-4.88,3.91,-8.24,912.33,21.8,
5085602,-0.0,0.01,1.21,-4.88,3.66,-8.48,912.33,21.79,
5085640,-0.01,-0.0,1.18,-4.94,3.36,-8.42,912.32,21.8,
5085679,-0.01,-0.0,1.18,-4.76,2.99,-8.61,912.27,21.81,
5085729,-0.01,-0.0,1.15,-4.94,2.81,-8.42,912.31,21.79,
5085767,-0.01,0.0,1.16,-5.07,1.65,-8.42,912.22,21.8,
5085805,-0.02,-0.0,1.14,-5.07,1.1,-8.42,912.27,21.81,
5085844,-0.01,-0.0,1.17,-5.37,1.16,-8.54,912.25,21.8,
5085882,-0.0,-0.0,1.17,-5.8,1.22,-8.61,912.27,21.81,
5085920,-0.01,0.01,1.2,-5.55,0.92,-8.54,912.29,21.81,
5085958,-0.01,0.0,1.19,-5.92,1.46,-8.73,912.27,21.81,
5085997,-0.01,0.01,1.23,-6.04,1.4,-8.91,912.23,21.8,
5086035,-0.02,0.0,1.22,-6.29,2.01,-8.85,912.24,21.81,
5086085,-0.02,0.02,1.24,-6.41,1.65,-9.09,912.25,21.8,
5086123,-0.02,0.03,1.26,-6.53,2.14,-8.97,912.26,21.81,
5086162,0.0,0.02,1.26,-6.41,2.08,-9.09,912.24,21.81,
5086200,-0.03,0.03,1.26,-6.47,1.53,-8.97,912.25,21.82,
5086238,-0.02,0.02,1.24,-6.41,1.83,-8.91,912.18,21.8,
5086276,-0.02,0.02,1.24,-6.59,2.38,-9.03,912.15,21.8,
5086315,-0.0,0.03,1.26,-6.41,2.01,-9.16,912.2,21.81,
5086353,-0.03,0.03,1.26,-6.65,2.08,-9.03,912.19,21.82,
5086391,-0.02,0.02,1.28,-6.65,2.44,-9.16,912.19,21.81,
5086430,-0.02,0.03,1.3,-6.77,2.62,-9.34,912.18,21.82,
5086480,-0.02,0.04,1.32,-6.9,3.36,-9.4,912.2,21.8,
5086518,-0.02,0.04,1.33,-6.71,4.21,-9.52,912.2,21.82,
5086556,-0.02,0.03,1.32,-6.84,4.7,-9.34,912.21,21.81,
5086594,-0.02,0.03,1.34,-6.65,4.64,-9.52,912.15,21.82,
5086633,-0.03,0.03,1.31,-6.65,5.37,-9.46,912.16,21.81,
5086671,-0.02,0.03,1.32,-6.41,5.68,-9.7,912.15,21.82,
5086709,-0.02,0.03,1.31,-6.41,6.04,-9.64,912.17,21.82,
5086748,-0.02,0.02,1.29,-6.1,5.98,-9.52,912.14,21.81,
5086786,-0.03,0.02,1.28,-6.16,6.29,-9.64,912.18,21.82,
5086836,-0.02,0.02,1.26,-5.86,6.59,-9.46,912.16,21.81,
5086874,-0.02,0.01,1.23,-5.86,6.41,-9.52,912.18,21.82,
5086913,-0.02,0.01,1.22,-5.8,6.1,-9.46,912.16,21.81,
5086951,-0.02,0.0,1.19,-5.68,5.86,-9.28,912.11,21.8,
5086989,-0.02,0.0,1.17,-5.62,5.13,-9.22,912.13,21.82,
5087028,-0.02,-0.01,1.14,-5.68,4.7,-9.28,912.15,21.83,
5087066,-0.01,-0.0,1.13,-5.86,4.09,-9.03,912.17,21.82,
5087104,-0.01,0.0,1.14,-6.16,3.91,-8.97,912.12,21.82,
5087142,-0.02,-0.01,1.11,-5.92,3.42,-8.85,912.07,21.81,
5087181,-0.02,-0.01,1.16,-6.1,3.54,-9.09,912.08,21.82,
5087231,-0.01,-0.01,1.16,-6.1,3.36,-9.03,912.08,21.8,
5087269,-0.02,-0.01,1.14,-6.23,3.42,-9.09,912.16,21.82,
5087307,-0.02,-0.01,1.15,-6.41,3.3,-9.16,912.11,21.82,
5087346,-0.01,-0.02,1.11,-6.41,3.66,-9.09,912.12,21.82,
5087384,-0.01,-0.01,1.1,-6.47,3.17,-9.22,912.07,21.81,
5087422,-0.02,-0.01,1.09,-6.47,3.54,-9.16,912.09,21.82,
5087460,-0.02,-0.01,1.09,-6.65,3.23,-9.09,912.08,21.83,
5087499,-0.01,-0.01,1.12,-6.53,3.23,-9.22,912.11,21.81,
5087537,-0.01,-0.01,1.12,-6.65,3.23,-9.34,912.06,21.81,
5087613,-0.01,-0.01,1.13,-6.59,3.3,-9.28,912.07,21.79,
5087651,-0.02,-0.01,1.12,-6.59,3.17,-9.28,912.02,21.79,
5087690,-0.03,-0.01,1.08,-6.65,2.99,-9.4,912.06,21.81,
5087780,-0.01,-0.01,1.1,-6.9,2.69,-9.22,912.05,21.78,
5087818,-0.02,-0.01,1.12,-7.08,2.2,-9.46,912.08,21.79,
5087856,-0.02,-0.01,1.12,-7.2,2.56,-9.34,912.06,21.79,
5087895,-0.01,-0.0,1.15,-7.08,2.44,-9.4,912.1,21.79,
5087933,-0.02,-0.0,1.14,-7.26,2.69,-9.28,912.08,21.8,
5087971,-0.02,0.0,1.17,-7.63,2.56,-9.46,912.1,21.8,
5088021,-0.01,-0.0,1.18,-7.57,2.62,-9.4,912.12,21.79,
5088059,-0.02,0.0,1.2,-7.69,2.14,-9.58,912.08,21.79,
5088098,-0.02,0.01,1.22,-7.57,1.83,-9.4,912.1,21.81,
5088136,-0.02,0.0,1.19,-7.69,2.26,-9.09,912.02,21.8,
5088174,-0.02,0.01,1.22,-8.06,1.4,-9.16,912.03,21.81,
5088212,-0.03,0.01,1.22,-8.12,1.71,-8.97,912.03,21.8,
5088251,-0.02,0.02,1.24,-8.12,1.22,-9.16,912.03,21.81,
5088289,-0.03,0.02,1.27,-8.18,2.01,-9.09,912.11,21.81,
5088327,-0.01,0.01,1.3,-8.0,1.71,-9.09,912.0,21.81,
5088366,-0.03,0.02,1.3,-8.06,2.08,-9.16,912.1,21.82,
5088416,-0.04,0.02,1.3,-8.06,3.05,-9.03,912.06,21.79,
5088454,-0.02,0.02,1.31,-8.12,3.42,-9.46,912.03,21.8,
5088492,-0.02,0.03,1.33,-8.3,3.72,-9.64,912.13,21.81,
5088531,-0.02,0.03,1.33,-8.3,3.91,-9.4,912.12,21.81,
5088569,-0.03,0.03,1.34,-8.42,4.09,-9.28,912.09,21.81,
5088607,-0.02,0.03,1.32,-8.3,3.85,-9.22,912.06,21.81,
5088646,-0.02,0.03,1.32,-8.42,3.48,-9.16,912.08,21.81,
5088684,-0.02,0.02,1.3,-8.36,3.3,-9.03,912.13,21.82,
5088723,-0.01,0.03,1.33,-8.24,3.05,-9.16,912.1,21.82,
5088773,-0.02,0.04,1.31,-8.18,2.56,-8.85,912.09,21.8,
5088811,-0.02,0.03,1.34,-8.06,1.89,-8.85,912.11,21.82,
5088849,-0.02,0.03,1.34,-8.0,2.26,-8.61,912.09,21.81,
5088888,-0.02,0.04,1.38,-7.81,1.28,-8.67,912.09,21.8,
5088926,-0.02,0.03,1.37,-7.75,0.92,-8.48,912.04,21.8,
5088964,-0.01,0.03,1.37,-7.75,0.92,-8.54,912.06,21.81,
5089003,-0.01,0.03,1.38,-7.57,1.28,-8.61,912.1,21.83,
5089041,-0.02,0.04,1.39,-7.57,1.4,-8.61,912.05,21.81,
5089079,-0.02,0.05,1.43,-7.81,1.83,-8.73,912.05,21.81,
5089118,-0.01,0.06,1.46,-7.87,2.14,-8.91,912.07,21.82,
5089168,-0.03,0.07,1.5,-7.75,2.44,-8.79,912.04,21.8,
5089206,-0.02,0.05,1.47,-8.12,2.81,-8.61,912.02,21.81,
5089244,-0.01,0.06,1.5,-7.93,2.75,-8.85,912.08,21.82,
5089282,-0.03,0.05,1.46,-7.87,3.23,-8.91,912.11,21.81,
5089321,-0.03,0.05,1.43,-7.93,3.85,-8.73,912.12,21.81,
5089359,-0.01,0.05,1.4,-7.26,3.85,-8.73,912.15,21.83,
5089398,-0.02,0.03,1.36,-7.2,3.85,-8.61,912.07,21.82,
5089436,-0.02,0.03,1.36,-6.96,3.36,-8.61,912.08,21.82,
5089474,-0.01,0.02,1.33,-6.96,3.85,-8.54,912.04,21.81,
5089524,-0.01,0.03,1.35,-6.96,2.87,-8.36,912.09,21.81,
5089563,-0.02,0.02,1.33,-7.2,2.99,-8.18,912.06,21.81,
5089601,-0.02,0.02,1.33,-7.2,2.14,-8.3,912.02,21.8,
5089639,-0.02,0.02,1.34,-7.2,2.2,-8.12,912.07,21.82,
5089677,-0.0,0.02,1.34,-7.51,1.65,-8.3,912.05,21.82,
5089716,-0.01,0.03,1.38,-7.45,1.59,-8.0,912.07,21.82,
5089754,-0.01,0.02,1.37,-7.81,1.89,-8.12,912.05,21.82,
5089792,-0.02,0.03,1.42,-7.51,1.71,-8.18,912.02,21.81,
5089831,-0.02,0.03,1.42,-7.57,2.08,-8.24,912.04,21.82,
5089869,-0.01,0.04,1.42,-7.32,1.46,-8.3,912.05,21.82,
5089919,-0.02,0.04,1.41,-7.26,2.14,-8.3,912.09,21.8,
5089957,-0.02,0.03,1.4,-7.26,2.69,-8.54,911.99,21.81,
5089996,-0.01,0.04,1.44,-7.26,3.3,-8.61,912.05,21.82,
5090034,-0.01,0.03,1.4,-7.26,4.27,-8.48,911.97,21.82,
5090072,-0.02,0.04,1.42,-6.96,4.03,-8.67,912.01,21.81,
5090110,-0.02,0.03,1.4,-7.2,4.39,-8.73,912.05,21.82,
5090149,-0.02,0.03,1.36,-7.02,4.15,-8.79,911.98,21.82,
5090187,-0.02,0.02,1.33,-7.2,4.52,-8.67,912.03,21.82,
5090225,-0.01,0.03,1.33,-7.45,4.46,-8.67,911.98,21.83,
5090276,-0.01,0.02,1.34,-7.57,3.6,-8.48,912.05,21.81,
5090314,-0.01,0.02,1.35,-7.69,3.17,-8.48,912.07,21.82,
5090352,-0.01,0.02,1.35,-7.75,3.11,-8.24,911.94,21.82,
5090390,-0.0,0.02,1.39,-7.51,2.08,-8.36,911.96,21.82,
5090429,-0.01,0.02,1.35,-7.81,2.08,-8.42,911.99,21.83,
5090467,-0.02,0.03,1.35,-7.69,1.46,-8.42,911.98,21.82,
5090505,-0.0,0.03,1.36,-7.81,1.77,-8.42,911.94,21.81,
5090544,-0.01,0.03,1.35,-7.75,0.92,-8.3,911.98,21.82,
5090582,-0.01,0.02,1.38,-7.69,1.53,-8.36,911.92,21.81,
5090620,-0.0,0.03,1.36,-7.69,2.08,-8.67,911.9,21.81,
5090696,-0.01,0.02,1.38,-7.75,1.71,-8.48,911.95,21.78,
5090734,-0.01,0.02,1.38,-7.45,1.4,-8.67,911.94,21.79,
5090773,-0.0,0.01,1.31,-7.69,1.46,-8.48,911.91,21.8,
5090863,-0.01,0.01,1.25,-7.93,-0.67,-8.24,911.9,21.76,
5090901,-0.02,0.0,1.25,-7.93,-0.43,-8.36,911.9,21.77,
5090939,-0.01,-0.0,1.27,-7.75,-0.24,-8.42,911.89,21.78,
5090978,0.0,0.0,1.27,-7.51,-0.37,-8.67,911.87,21.79,
5091016,-0.02,0.01,1.28,-7.45,-0.55,-8.85,911.96,21.8,
5091054,-0.0,0.01,1.29,-7.32,0.43,-8.85,911.89,21.79,
5091104,-0.0,0.01,1.3,-7.08,0.24,-9.09,911.9,21.79,
5091143,-0.02,0.0,1.29,-7.32,0.43,-9.09,911.89,21.78,
5091181,-0.01,0.01,1.3,-7.32,0.67,-9.22,911.87,21.78,
5091219,-0.01,0.02,1.33,-7.2,0.73,-9.52,911.94,21.8,
5091258,-0.01,0.02,1.35,-7.14,0.67,-9.28,911.85,21.79,
5091296,-0.02,0.02,1.37,-7.26,0.92,-9.28,911.89,21.79,
5091334,-0.01,0.02,1.37,-7.26,0.98,-9.4,911.87,21.78,
5091373,-0.01,0.02,1.36,-7.26,0.98,-9.4,911.87,21.79,
5091411,-0.02,0.02,1.35,-7.2,0.92,-9.22,911.9,21.79,
5091461,-0.01,0.02,1.33,-7.2,1.22,-9.46,911.89,21.79,
5091499,-0.0,0.02,1.32,-7.02,1.1,-9.34,911.88,21.79,
5091537,-0.01,0.02,1.31,-7.02,1.59,-9.4,911.82,21.79,
5091576,-0.01,0.02,1.3,-6.96,1.71,-9.34,911.84,21.8,
5091614,-0.01,0.02,1.31,-6.9,1.95,-9.28,911.87,21.79,
5091652,-0.01,0.01,1.31,-6.96,2.01,-9.4,911.85,21.8,
5091691,-0.01,0.02,1.31,-6.71,1.59,-9.52,911.79,21.79,
5091729,-0.01,0.03,1.34,-6.9,1.53,-9.34,911.79,21.79,
5091767,-0.01,0.02,1.34,-6.77,1.83,-9.28,911.75,21.79,
5091805,-0.01,0.03,1.36,-6.84,1.77,-9.28,911.81,21.8,
5091856,-0.02,0.03,1.35,-6.65,2.26,-9.4,911.75,21.78,
5091894,-0.01,0.03,1.37,-6.71,2.75,-9.34,911.82,21.79,
5091932,-0.0,0.03,1.4,-6.65,2.75,-9.28,911.76,21.78,
5091970,-0.01,0.03,1.39,-6.41,2.93,-9.34,911.79,21.79,
5092009,-0.01,0.03,1.39,-6.41,2.81,-9.28,911.74,21.79,
5092047,-0.01,0.03,1.36,-6.23,3.05,-9.28,911.75,21.8,
5092085,-0.02,0.03,1.33,-6.1,2.93,-9.09,911.78,21.8,
5092124,-0.02,0.02,1.33,-5.92,2.75,-9.09,911.7,21.79,
5092162,-0.01,0.02,1.31,-5.8,3.17,-9.16,911.69,21.78,
5092212,-0.01,0.01,1.3,-5.68,3.05,-9.16,911.78,21.8,
5092250,-0.01,0.01,1.26,-5.8,2.75,-9.22,911.76,21.79,
5092289,-0.01,0.02,1.28,-5.55,3.05,-9.28,911.7,21.79,
5092327,-0.01,0.01,1.26,-5.92,3.11,-9.22,911.69,21.79,
5092365,-0.02,0.01,1.29,-5.55,2.87,-9.03,911.67,21.79,
5092403,-0.03,0.01,1.27,-5.55,3.36,-9.16,911.71,21.79,
5092442,-0.01,0.01,1.25,-5.8,3.23,-9.03,911.69,21.79,
5092480,-0.02,0.02,1.26,-5.8,3.42,-9.16,911.68,21.79,
5092518,-0.03,0.01,1.26,-5.62,3.66,-8.97,911.64,21.79,
5092557,-0.01,0.01,1.27,-5.62,3.54,-8.91,911.62,21.81,
5092607,-0.02,0.02,1.25,-5.68,3.66,-8.79,911.63,21.79,
5092645,-0.02,0.02,1.26,-5.86,3.6,-8.85,911.6,21.78,
5092683,-0.01,0.01,1.25,-6.1,3.3,-8.73,911.61,21.79,
5092721,-0.02,0.01,1.28,-6.1,2.99,-8.48,911.61,21.8,
5092760,-0.02,0.02,1.27,-5.98,3.23,-8.42,911.62,21.81,
5092798,-0.02,0.02,1.29,-5.86,3.3,-8.36,911.6,21.8,
5092836,-0.01,0.01,1.28,-5.92,3.42,-8.73,911.56,21.81,
5092875,-0.01,0.02,1.3,-5.92,3.36,-8.48,911.57,21.8,
5092913,-0.01,0.02,1.3,-5.86,3.6,-8.06,911.53,21.81,
5092963,0.0,0.02,1.32,-5.86,3.3,-8.18,911.49,21.78,
5093001,-0.01,0.02,1.32,-5.92,3.36,-8.06,911.49,21.8,
5093040,-0.01,0.02,1.33,-5.86,2.99,-8.06,911.49,21.79,
5093078,-0.02,0.02,1.32,-6.04,3.54,-8.0,911.48,21.78,
5093116,-0.0,0.02,1.32,-5.8,2.93,-8.3,911.57,21.81,
5093155,-0.0,0.02,1.32,-5.86,2.69,-7.93,911.53,21.81,
5093193,-0.0,0.02,1.31,-5.74,2.44,-7.93,911.45,21.81,
5093231,-0.01,0.02,1.3,-5.8,2.08,-7.75,911.38,21.79,
5093269,-0.01,0.03,1.29,-5.62,1.89,-7.81,911.43,21.81,
5093308,-0.01,0.02,1.28,-5.49,1.16,-7.57,911.39,21.79,
5093358,0.0,0.0,1.27,-5.31,0.85,-7.63,911.4,21.79,
5093396,-0.0,0.02,1.26,-5.07,-0.43,-7.69,911.43,21.8,
5093434,-0.01,0.01,1.26,-4.82,-0.18,-7.57,911.38,21.8,
5093473,0.0,0.0,1.2,-4.88,-0.18,-7.57,911.42,21.79,
5093511,0.0,0.01,1.24,-4.52,-0.61,-7.45,911.43,21.8,
5093549,0.0,-0.02,1.15,-4.58,-0.12,-7.51,911.34,21.79,
5093588,-0.01,-0.01,1.17,-4.52,-0.55,-7.81,911.35,21.78,
5093626,-0.0,-0.0,1.16,-4.82,0.61,-7.75,911.34,21.79,
5093664,0.0,-0.02,1.15,-4.7,0.49,-7.93,911.37,21.8,
5093740,-0.01,-0.01,1.2,-5.19,0.31,-7.93,911.3,21.77,
5093779,0.01,0.02,1.24,-5.49,-0.43,-8.0,911.27,21.78,
5093817,0.01,0.01,1.26,-5.62,-0.61,-8.12,911.29,21.78,
5093907,-0.03,-0.02,1.17,-5.92,-0.67,-8.0,911.28,21.75,
5093945,0.0,-0.0,1.14,-5.68,-1.4,-8.0,911.3,21.76,
5093984,-0.01,-0.0,1.14,-5.31,-1.22,-8.0,911.29,21.77,
5094022,0.0,-0.02,1.08,-5.13,-0.92,-8.12,911.28,21.77,
5094060,0.0,-0.01,1.14,-4.58,-1.46,-8.42,911.27,21.78,
5094098,-0.0,-0.02,1.07,-4.58,-0.43,-8.36,911.34,21.79,
5094137,-0.01,-0.02,1.07,-4.21,-1.04,-8.42,911.32,21.78,
5094187,0.0,-0.01,1.08,-4.15,0.0,-8.73,911.26,21.77,
5094225,-0.01,-0.02,1.08,-3.97,0.12,-8.61,911.2,21.78,
5094263,-0.01,-0.02,1.1,-4.33,0.37,-8.67,911.23,21.78,
5094302,-0.0,-0.01,1.12,-4.09,0.61,-8.73,911.19,21.78,
5094340,-0.01,-0.01,1.12,-4.46,0.79,-8.91,911.24,21.77,
5094378,-0.0,-0.01,1.16,-4.52,0.79,-8.91,911.26,21.79,
5094417,-0.0,-0.01,1.16,-4.46,0.85,-8.91,911.23,21.79,
5094455,-0.01,-0.01,1.15,-4.82,0.67,-8.73,911.13,21.78,
5094493,-0.01,-0.0,1.13,-4.76,0.92,-8.79,911.19,21.78,
5094543,-0.0,-0.0,1.14,-4.88,0.61,-8.85,911.18,21.77,
5094582,-0.01,-0.0,1.15,-5.25,0.92,-8.91,911.11,21.78,
5094620,-0.01,-0.0,1.17,-5.25,0.61,-8.85,911.15,21.79,
5094658,-0.01,0.01,1.21,-5.25,0.79,-8.79,911.11,21.79,
5094696,-0.0,-0.0,1.19,-5.19,1.04,-8.79,911.12,21.79,
5094734,-0.01,0.0,1.22,-5.0,1.22,-8.67,911.12,21.79,
5094773,-0.0,-0.0,1.2,-4.88,1.71,-8.91,911.13,21.78,
5094811,-0.01,0.01,1.2,-4.64,2.08,-8.97,911.11,21.78,
5094849,-0.01,0.01,1.18,-4.58,2.26,-8.97,911.06,21.79,
5094899,-0.01,0.0,1.18,-4.52,2.08,-9.03,911.06,21.78,
5094938,-0.02,0.0,1.16,-4.52,2.2,-8.79,911.08,21.78,
5094976,-0.01,0.01,1.19,-4.52,2.44,-8.85,911.07,21.79,
5095014,-0.01,0.0,1.17,-4.33,2.75,-8.97,911.05,21.8,
5095052,-0.01,0.01,1.19,-4.39,2.56,-9.03,911.02,21.79,
5095091,-0.01,0.01,1.2,-4.39,2.69,-8.97,911.03,21.8,
5095129,-0.01,0.0,1.18,-4.52,3.36,-8.61,911.02,21.79,
5095167,-0.01,0.01,1.19,-4.27,3.54,-8.97,911.04,21.8,
5095205,-0.01,0.01,1.18,-4.27,3.72,-8.97,910.99,21.79,
5095244,-0.01,0.01,1.19,-4.21,3.6,-8.73,911.0,21.81,
5095294,-0.01,0.0,1.19,-4.33,4.58,-8.97,910.99,21.8,
5095332,-0.0,0.02,1.23,-4.33,4.33,-8.91,910.92,21.79,
5095370,-0.01,0.01,1.23,-4.58,5.07,-8.85,910.96,21.8,
5095408,0.01,0.01,1.23,-4.52,4.46,-9.03,910.96,21.81,
5095447,-0.0,0.01,1.23,-4.46,4.88,-9.03,910.95,21.81,
5095485,-0.01,0.02,1.23,-4.46,3.97,-8.85,910.91,21.8,
5095523,-0.0,0.01,1.25,-4.33,3.91,-8.73,910.95,21.81,
5095561,-0.01,0.0,1.21,-4.27,3.66,-8.73,910.91,21.8,
5095600,-0.01,0.0,1.24,-4.15,3.11,-8.61,910.93,21.81,
5095650,-0.01,0.0,1.19,-4.15,2.87,-8.73,910.86,21.79,
5095688,-0.01,0.01,1.19,-3.91,2.38,-8.73,910.95,21.8,
5095726,-0.01,-0.0,1.18,-3.66,2.69,-8.67,910.85,21.79,
5095764,-0.01,-0.0,1.19,-3.72,2.32,-8.73,910.87,21.8,
5095803,-0.02,-0.01,1.16,-3.72,2.32,-8.61,910.89,21.82,
5095841,-0.01,-0.0,1.16,-3.66,2.2,-8.67,910.86,21.82,
5095879,-0.01,-0.0,1.15,-3.85,2.32,-8.67,910.83,21.8,
5095917,-0.0,-0.01,1.13,-3.97,2.75,-8.79,910.84,21.81,
5095956,-0.01,-0.0,1.13,-3.97,2.56,-8.73,910.85,21.81,
5095994,-0.02,-0.0,1.13,-3.97,3.05,-8.73,910.84,21.82,
5096044,0.0,-0.0,1.18,-4.09,2.75,-8.73,910.8,21.8,
5096082,-0.01,-0.0,1.17,-3.91,2.32,-8.79,910.82,21.82,
5096121,-0.02,-0.01,1.17,-3.91,2.32,-8.73,910.86,21.82,
5096159,-0.0,-0.01,1.17,-4.15,2.87,-8.97,910.78,21.81,
5096197,0.0,-0.0,1.18,-4.15,2.62,-8.91,910.8,21.81,
5096236,-0.01,-0.01,1.16,-4.33,3.17,-9.03,910.78,21.82,
5096274,-0.01,0.0,1.15,-4.27,3.23,-9.09,910.79,21.81,
5096312,-0.0,-0.0,1.2,-4.33,3.54,-9.16,910.79,21.82,
5096351,-0.01,-0.0,1.2,-4.52,3.11,-9.34,910.79,21.83,
5096401,-0.02,-0.02,1.25,-3.91,3.6,-9.03,910.78,21.81,
5096439,-0.0,-0.02,1.21,-3.91,3.6,-9.28,910.72,21.81,
5096477,-0.01,-0.0,1.2,-4.03,2.81,-9.22,910.78,21.82,
5096515,-0.01,0.01,1.18,-4.21,2.99,-9.03,910.74,21.82,
5096554,-0.01,-0.01,1.15,-4.58,2.75,-9.16,910.73,21.82,
5096592,0.0,-0.01,1.16,-5.0,1.95,-9.16,910.72,21.82,
5096630,-0.03,-0.0,1.2,-4.82,1.04,-8.97,910.65,21.82,
5096669,-0.02,-0.01,1.18,-5.07,0.67,-8.79,910.65,21.81,
5096707,-0.01,0.0,1.21,-4.94,0.55,-8.97,910.69,21.82,
5096783,-0.03,-0.01,1.2,-4.82,-0.06,-8.61,910.6,21.78,
5096821,-0.02,0.01,1.28,-4.52,0.49,-8.85,910.67,21.81,
5096859,-0.02,0.03,1.3,-4.7,-0.12,-8.67,910.6,21.81,
5096950,-0.03,0.01,1.36,-4.76,1.89,-9.09,910.61,21.78,
5096988,-0.03,0.02,1.37,-5.0,2.62,-8.79,910.57,21.78,
5097026,-0.04,0.02,1.3,-5.0,2.01,-8.79,910.62,21.79,
5097064,-0.05,0.04,1.3,-4.94,2.38,-8.54,910.57,21.79,
5097103,-0.02,0.02,1.28,-4.82,3.23,-8.42,910.58,21.8,
5097141,-0.03,0.01,1.27,-4.88,2.87,-8.3,910.51,21.8,
5097179,-0.03,0.02,1.3,-4.58,2.44,-8.0,910.54,21.8,
5097229,-0.03,0.03,1.28,-4.58,2.69,-7.93,910.59,21.8,
5097268,-0.02,0.02,1.29,-4.64,2.75,-7.81,910.53,21.79,
5097306,-0.02,0.01,1.26,-4.7,2.44,-7.57,910.51,21.8,
5097344,-0.02,0.03,1.31,-4.39,1.53,-7.39,910.54,21.81,
5097383,-0.03,0.02,1.27,-4.64,2.14,-7.08,910.51,21.81,
5097421,-0.02,0.03,1.26,-4.94,1.1,-7.02,910.5,21.81,
5097459,-0.02,0.02,1.26,-5.19,1.28,-7.08,910.47,21.81,
5097497,-0.01,0.02,1.3,-5.07,1.46,-7.02,910.48,21.81,
5097536,-0.01,0.01,1.27,-5.13,2.56,-7.39,910.46,21.8,
5097586,-0.02,0.01,1.29,-4.88,2.87,-7.39,910.44,21.8,
5097624,-0.01,-0.01,1.23,-4.64,3.3,-7.51,910.48,21.8,
5097662,-0.01,0.0,1.24,-4.39,3.05,-7.63,910.47,21.81,
5097700,-0.01,0.01,1.21,-4.27,3.23,-7.75,910.45,21.81,
5097739,-0.01,0.01,1.2,-4.03,2.5,-7.69,910.4,21.81,
5097777,-0.0,0.0,1.24,-4.09,2.14,-7.69,910.48,21.81,
5097815,-0.01,-0.01,1.22,-4.27,1.59,-7.57,910.39,21.8,
5097854,-0.02,0.0,1.28,-4.27,1.53,-7.75,910.47,21.81,
5097892,-0.01,-0.01,1.21,-4.46,1.59,-7.63,910.45,21.8,
5097930,-0.02,-0.01,1.21,-4.09,1.1,-7.69,910.49,21.81,
5097980,-0.0,-0.04,1.1,-4.03,1.1,-7.93,910.43,21.79,
5098018,-0.0,-0.03,1.12,-3.78,0.85,-7.93,910.44,21.81,
5098057,-0.03,-0.03,0.99,-3.72,1.53,-7.87,910.43,21.81,
5098095,-0.02,-0.03,0.98,-3.48,1.34,-8.0,910.38,21.81,
5098133,-0.01,-0.05,0.91,-4.27,2.5,-8.06,910.29,21.81,
5098171,-0.02,-0.04,0.91,-4.64,1.71,-8.24,910.33,21.82,
5098210,-0.02,-0.03,0.98,-4.7,1.28,-8.06,910.32,21.82,
5098248,-0.02,-0.03,1.04,-5.37,1.4,-8.0,910.3,21.82,
5098286,-0.02,-0.02,1.08,-5.62,1.34,-8.06,910.22,21.81,
5098336,-0.04,-0.02,1.17,-5.74,1.16,-7.57,910.27,21.79,
5098374,-0.03,-0.0,1.18,-6.23,1.71,-7.63,910.29,21.79,
5098413,-0.03,0.02,1.3,-5.74,0.73,-7.63,910.25,21.81,
5098451,-0.01,0.01,1.28,-6.29,2.38,-7.45,910.22,21.8,
5098489,-0.02,0.04,1.39,-6.16,1.4,-7.51,910.21,21.82,
5098527,-0.03,0.03,1.43,-6.47,2.87,-7.2,910.25,21.83,
5098566,-0.02,0.04,1.45,-6.59,1.4,-7.08,910.2,21.8,
5098604,-0.04,0.05,1.52,-6.53,1.53,-6.77,910.2,21.81,
5098642,-0.01,0.02,1.43,-6.59,1.83,-6.84,910.18,21.81,
5098692,-0.01,0.03,1.46,-5.98,0.12,-6.65,910.19,21.81,
5098730,-0.01,0.02,1.32,-5.92,1.1,-6.71,910.17,21.81,
5098769,-0.02,0.02,1.32,-4.76,0.98,-7.02,910.17,21.8,
5098807,-0.03,-0.0,1.21,-4.76,2.69,-6.77,910.2,21.8,
5098845,-0.03,-0.02,1.21,-3.85,1.22,-7.02,910.19,21.81,
5098883,-0.03,-0.03,1.11,-3.3,2.38,-7.32,910.18,21.81,
5098922,-0.02,-0.03,1.01,-3.17,2.32,-7.2,910.16,21.8,
5098960,-0.02,-0.02,1.04,-1.89,2.14,-7.14,910.14,21.82,
5098998,-0.04,-0.02,0.89,-2.5,2.38,-7.14,910.12,21.8,
5099037,-0.04,-0.01,0.95,-2.26,2.01,-6.96,910.12,21.82,
5099087,-0.03,-0.02,0.93,-3.85,3.11,-7.2,910.11,21.8,
5099125,-0.02,-0.02,1.06,-3.54,2.14,-7.2,910.04,21.81,
5099163,-0.04,-0.03,1.02,-4.46,3.66,-6.96,910.07,21.79,
5099202,-0.02,-0.02,1.08,-3.91,3.36,-7.08,910.13,21.82,
5099240,-0.02,-0.02,1.03,-4.09,4.33,-6.77,910.05,21.81,
5099278,-0.02,-0.02,1.03,-3.72,3.6,-6.9,910.03,21.81,
5099316,-0.03,-0.02,1.0,-3.85,4.33,-6.96,910.04,21.81,
5099355,-0.02,-0.02,1.02,-3.91,3.48,-6.84,910.03,21.82,
5099393,-0.01,-0.01,1.07,-3.78,3.3,-6.84,910.03,21.81,
5099443,-0.03,-0.01,1.09,-3.72,2.5,-6.65,909.99,21.79,
5099481,-0.01,-0.02,1.11,-3.6,3.05,-6.59,910.04,21.81,
5099520,-0.01,-0.02,1.09,-3.54,2.62,-6.65,910.03,21.82,
5099558,-0.02,-0.02,1.09,-3.36,2.81,-6.59,910.02,21.81,
5099596,-0.02,-0.02,1.02,-3.23,3.11,-6.53,910.05,21.82,
5099635,-0.01,-0.01,1.07,-2.87,2.44,-6.71,909.97,21.82,
5099673,-0.02,-0.02,1.03,-2.93,2.56,-6.59,909.98,21.81,
5099711,-0.01,-0.02,1.1,-2.81,2.14,-6.65,909.96,21.81,
5099749,-0.02,-0.02,1.09,-3.23,3.17,-6.65,909.99,21.82,
5099825,-0.01,-0.0,1.12,-3.11,4.09,-6.96,910.0,21.79,
5099864,-0.03,-0.01,1.09,-2.99,4.27,-6.9,909.96,21.79,
5099902,-0.01,-0.01,1.13,-3.17,4.64,-6.96,909.94,21.79,
5099992,-0.01,0.01,1.16,-3.42,5.19,-6.9,909.89,21.77,
5100030,-0.01,0.01,1.15,-3.91,5.49,-6.96,909.8,21.78,
5100069,-0.02,0.01,1.21,-3.66,5.13,-6.96,909.85,21.79,
5100107,-0.01,0.0,1.22,-3.54,5.31,-6.96,909.89,21.8,
5100145,-0.0,0.0,1.25,-3.42,5.37,-7.02,909.9,21.8,
5100184,-0.01,0.01,1.24,-2.93,5.19,-6.9,909.89,21.81,
5100222,-0.0,0.01,1.25,-2.5,5.19,-7.08,909.87,21.79,
5100272,-0.0,0.0,1.21,-2.56,4.94,-7.26,909.84,21.79,
5100310,-0.01,0.0,1.21,-2.14,4.7,-7.14,909.84,21.8,
5100348,-0.01,-0.0,1.19,-2.14,4.7,-7.08,909.87,21.81,
5100387,-0.01,0.01,1.2,-1.89,3.78,-7.26,909.83,21.81,
5100425,-0.0,-0.0,1.18,-1.89,3.54,-7.2,909.89,21.81,
5100463,-0.01,-0.0,1.16,-1.71,3.11,-7.26,909.86,21.81,
5100502,-0.01,-0.01,1.14,-1.71,3.17,-7.14,909.86,21.81,
5100540,-0.01,-0.02,1.12,-1.89,2.69,-7.39,909.86,21.82,
5100578,-0.0,-0.01,1.09,-1.83,2.69,-7.32,909.81,21.82,
5100628,-0.01,-0.01,1.1,-1.89,2.38,-7.51,909.76,21.81,
5100666,-0.0,-0.02,1.07,-2.08,3.05,-7.69,909.78,21.81,
5100705,-0.01,-0.01,1.1,-1.95,2.87,-7.63,909.84,21.82,
5100743,-0.0,-0.02,1.1,-2.01,3.42,-7.81,909.82,21.81,
5100781,-0.01,-0.02,1.09,-1.95,3.05,-7.93,909.77,21.81,
5100819,-0.01,-0.01,1.12,-2.2,2.87,-8.06,909.82,21.82,
5100858,-0.01,-0.01,1.08,-2.14,2.87,-8.0,909.78,21.82,
5100896,-0.0,-0.03,1.0,-2.5,3.72,-8.24,909.81,21.83,
5100934,-0.0,-0.03,1.01,-2.38,3.17,-8.36,909.77,21.82,
5100984,-0.01,-0.04,0.96,-2.62,3.48,-8.61,909.74,21.81,
5101022,-0.02,-0.02,0.99,-2.32,2.75,-8.61,909.77,21.81,
5101061,-0.01,-0.04,0.94,-2.38,3.36,-8.61,909.74,21.82,
5101099,-0.01,-0.04,0.95,-2.26,2.14,-8.85,909.71,21.82,
5101137,-0.01,-0.04,0.96,-2.32,2.38,-8.79,909.73,21.82,
5101176,-0.01,-0.03,0.93,-2.44,2.08,-8.79,909.74,21.83,
5101214,-0.01,-0.03,0.95,-2.38,1.53,-9.03,909.75,21.82,
5101252,-0.01,-0.04,0.93,-2.56,1.65,-8.97,909.74,21.83,
5101290,-0.01,-0.03,0.97,-2.62,0.92,-8.97,909.7,21.81,
5101329,-0.02,-0.04,0.97,-2.87,0.79,-9.03,909.69,21.82,
5101379,-0.01,-0.03,1.0,-3.05,-0.61,-9.03,909.67,21.81,
5101417,-0.0,-0.02,1.06,-3.17,-1.1,-8.85,909.67,21.82,
5101455,-0.02,-0.03,1.06,-3.72,-1.4,-8.85,909.7,21.83,
5101494,-0.01,-0.02,1.1,-3.66,-2.01,-8.67,909.67,21.82,
5101532,-0.01,-0.04,1.06,-3.85,-0.92,-8.97,909.6,21.82,
5101570,-0.02,-0.02,1.08,-3.91,-1.53,-9.16,909.64,21.82,
5101608,-0.01,-0.01,1.12,-3.66,-1.22,-9.03,909.64,21.82,
5101647,-0.01,-0.02,1.07,-3.85,-0.37,-9.28,909.75,21.83,
5101685,-0.01,-0.01,1.14,-3.48,-0.06,-9.46,909.66,21.82,
5101735,0.0,-0.02,1.14,-3.3,0.61,-9.58,909.69,21.81,
5101773,-0.01,-0.01,1.16,-3.3,0.55,-9.83,909.68,21.82,
5101812,-0.01,-0.01,1.16,-3.23,0.92,-9.7,909.65,21.82,
5101850,-0.01,-0.01,1.19,-3.42,-0.12,-9.7,909.68,21.83,
5101888,-0.02,-0.01,1.16,-3.91,-0.18,-9.4,909.66,21.81,
5101926,-0.02,-0.0,1.19,-3.85,-0.73,-9.4,909.64,21.81,
5101965,-0.01,0.0,1.19,-4.39,-0.43,-9.22,909.64,21.81,
5102003,-0.02,-0.0,1.21,-4.46,-0.67,-9.16,909.66,21.82,
5102041,-0.01,0.01,1.28,-4.46,-0.85,-9.16,909.62,21.82,
5102091,-0.02,-0.0,1.28,-4.64,0.24,-9.09,909.65,21.82,
5102130,-0.01,0.01,1.33,-4.46,0.43,-8.97,909.64,21.82,
5102168,-0.02,-0.0,1.31,-4.39,1.4,-9.03,909.64,21.81,
5102206,-0.02,0.0,1.29,-4.21,0.73,-8.97,909.68,21.82,
5102244,-0.03,-0.0,1.27,-4.21,1.1,-8.73,909.65,21.83,
5102283,-0.01,0.01,1.29,-4.09,1.22,-8.97,909.64,21.82,
5102321,-0.01,0.03,1.32,-4.09,1.34,-8.73,909.64,21.83,
5102359,-0.03,0.02,1.33,-3.78,1.04,-8.54,909.59,21.82,
5102398,-0.03,0.0,1.39,-3.72,1.53,-8.61,909.67,21.82,
5102436,-0.01,-0.0,1.35,-4.09,1.34,-8.48,909.67,21.82,
5102486,-0.04,-0.0,1.2,-3.91,1.4,-8.3,909.65,21.81,
5102524,-0.01,-0.02,1.17,-3.42,1.83,-8.36,909.66,21.82,
5102563,-0.01,-0.05,1.05,-3.23,3.11,-8.54,909.71,21.83,
5102601,-0.03,-0.02,1.04,-2.38,2.01,-8.48,909.7,21.83,
5102639,-0.01,-0.05,0.96,-2.32,4.33,-8.42,909.65,21.82,
5102678,-0.01,-0.04,0.95,-2.44,3.17,-8.67,909.63,21.81,
5102716,-0.03,-0.03,1.09,-1.83,1.65,-8.36,909.72,21.82,
5102754,-0.01,-0.07,1.01,-2.87,3.3,-8.24,909.64,21.82,
5102792,0.0,-0.04,1.05,-2.56,2.44,-8.48,909.68,21.81,
5102869,-0.01,-0.04,1.04,-3.05,2.01,-7.93,909.71,21.79,
5102907,-0.02,-0.04,1.05,-3.54,2.5,-8.0,909.63,21.79,
5102945,-0.03,-0.04,1.08,-3.48,1.46,-8.12,909.62,21.8,
5103109,-0.01,-0.03,1.13,-3.66,1.83,-7.87,909.64,21.75,
5103147,-0.02,-0.05,1.11,-3.78,2.75,-8.0,909.64,21.77,
5103186,-0.01,-0.03,1.15,-3.54,1.4,-8.06,909.6,21.77,
5103224,-0.02,-0.04,1.11,-3.6,1.53,-7.69,909.64,21.78,
5103262,-0.02,-0.03,1.11,-4.03,0.61,-7.81,909.62,21.78,
5103300,-0.02,-0.03,1.17,-4.03,0.18,-7.75,909.6,21.77,
5103350,-0.03,-0.04,1.12,-4.46,0.73,-7.51,909.59,21.76,
5103389,-0.01,-0.02,1.21,-4.39,0.49,-7.57,909.6,21.78,
5103427,-0.02,-0.03,1.18,-4.39,0.85,-7.57,909.58,21.78,
5103465,-0.03,-0.02,1.18,-4.46,0.18,-7.2,909.56,21.78,
5103504,-0.01,-0.02,1.27,-4.21,0.0,-7.32,909.52,21.78,
5103542,-0.01,-0.03,1.21,-4.58,-0.37,-7.02,909.62,21.79,
5103580,-0.01,-0.01,1.28,-4.15,-1.28,-7.02,909.57,21.79,
5103619,-0.03,-0.02,1.24,-3.97,-0.49,-6.84,909.6,21.8,
5103657,-0.02,-0.02,1.25,-3.78,-0.73,-6.77,909.58,21.79,
5103707,-0.01,-0.03,1.22,-3.66,-1.16,-6.9,909.57,21.78,
5103745,-0.01,-0.02,1.23,-3.42,-1.71,-6.77,909.56,21.78,
5103783,-0.01,-0.03,1.23,-3.42,-1.22,-6.71,909.6,21.79,
5103822,-0.01,-0.02,1.21,-3.36,-2.62,-6.71,909.57,21.79,
5103860,-0.02,-0.02,1.24,-3.17,-3.05,-6.9,909.62,21.8,
5103898,-0.02,-0.05,1.11,-3.17,-3.11,-6.84,909.54,21.8,
5103937,-0.01,-0.04,1.16,-3.11,-4.27,-6.9,909.59,21.81,
5103975,-0.01,-0.04,1.11,-3.3,-3.42,-6.84,909.55,21.79,
5104013,-0.02,-0.03,1.12,-3.17,-3.78,-6.84,909.55,21.8,
5104052,-0.02,-0.03,1.14,-3.05,-2.81,-6.9,909.52,21.8,
5104101,-0.06,-0.03,1.17,-2.44,-1.83,-6.77,909.53,21.79,
5104140,-0.05,-0.04,1.13,-2.69,-0.73,-6.59,909.58,21.82,
5104178,-0.02,-0.02,1.19,-2.08,-0.92,-7.02,909.58,21.79,
5104216,-0.04,-0.02,1.12,-2.08,0.92,-6.77,909.58,21.81,
5104255,-0.03,-0.02,1.09,-1.83,1.53,-6.47,909.54,21.8,
5104293,-0.04,-0.03,1.13,-1.71,3.48,-6.47,909.49,21.8,
5104331,-0.05,-0.04,1.06,-1.95,3.05,-6.16,909.48,21.8,
5104369,-0.05,-0.03,1.16,-1.46,3.23,-6.04,909.48,21.81,
5104407,-0.03,-0.04,1.09,-2.08,5.37,-6.16,909.5,21.81,
5104457,-0.01,-0.01,1.25,-1.59,4.03,-5.92,909.47,21.8,
5104496,-0.04,-0.03,1.15,-1.77,5.19,-5.8,909.51,21.8,
5104534,-0.04,-0.01,1.21,-1.77,5.25,-5.92,909.48,21.81,
5104572,-0.05,-0.01,1.2,-2.44,6.77,-5.55,909.48,21.81,
5104610,-0.04,-0.01,1.25,-2.01,5.13,-5.49,909.44,21.81,
5104649,-0.04,-0.03,1.18,-2.44,6.77,-5.19,909.4,21.81,
5104687,-0.03,-0.01,1.13,-2.38,6.1,-5.13,909.45,21.81,
5104725,-0.04,-0.01,1.17,-2.32,6.41,-4.7,909.42,21.81,
5104764,-0.03,-0.02,1.15,-2.75,6.53,-4.64,909.46,21.82,
5104813,-0.04,-0.01,1.2,-2.26,5.62,-4.15,909.44,21.81,
5104852,-0.06,-0.02,1.18,-2.5,5.13,-3.85,909.39,21.8,
5104890,-0.06,-0.0,1.19,-2.14,4.64,-3.42,909.34,21.79,
5104928,-0.06,-0.0,1.21,-1.71,4.52,-3.23,909.38,21.8,
5104966,-0.0,-0.01,1.2,-1.77,3.91,-2.87,909.39,21.82,
5105005,-0.02,-0.0,1.21,-1.53,2.99,-2.87,909.4,21.8,
5105043,-0.04,-0.02,1.22,-1.28,3.78,-2.56,909.37,21.81,
5105081,-0.03,0.0,1.27,-0.79,3.85,-2.69,909.36,21.81,
5105119,-0.02,-0.0,1.3,-0.79,4.33,-2.44,909.42,21.82,
5105170,-0.01,-0.01,1.24,-0.61,5.43,-2.5,909.42,21.79,
5105208,-0.01,-0.01,1.18,-0.55,6.04,-2.44,909.43,21.81,
5105246,-0.01,0.0,1.23,0.18,5.49,-2.32,909.4,21.81,
5105284,0.0,-0.02,1.13,0.06,6.84,-2.08,909.42,21.8,
5105323,0.0,-0.0,1.19,0.61,6.35,-2.26,909.4,21.81,
5105361,0.0,-0.03,1.2,0.61,6.84,-2.38,909.37,21.81,
5105399,0.0,-0.05,1.08,0.24,6.84,-2.14,909.38,21.81,
5105437,0.02,-0.03,1.08,0.24,6.65,-2.26,909.39,21.81,
5105476,-0.0,-0.03,1.0,0.12,6.9,-2.26,909.39,21.82,
5105514,0.01,-0.03,1.09,1.04,5.8,-2.38,909.37,21.81,
5105564,0.02,-0.06,0.92,0.24,6.65,-2.26,909.32,21.81,
5105602,0.03,-0.04,1.05,1.1,3.97,-2.75,909.32,21.8,
5105640,0.0,-0.06,0.92,-0.06,6.04,-2.5,909.33,21.82,
5105679,0.01,-0.03,0.98,0.37,3.6,-2.44,909.32,21.8,
5105717,0.02,-0.05,0.94,0.24,4.33,-2.81,909.3,21.81,
5105755,0.01,-0.04,0.97,-0.98,3.54,-2.5,909.26,21.81,
5105793,0.0,-0.04,1.08,-0.24,3.11,-2.62,909.28,21.81,
5105832,0.01,-0.06,1.0,-1.46,5.98,-2.93,909.26,21.82,
5105870,0.01,-0.02,1.09,-1.1,5.0,-3.05,909.26,21.82,
5105908,-0.01,-0.03,1.07,-1.77,7.32,-2.81,909.28,21.82,
5105984,-0.01,-0.05,1.06,-1.4,8.67,-3.11,909.25,21.78,
5106022,0.0,-0.04,1.03,-1.04,9.28,-3.17,909.25,21.79,
5106061,0.0,-0.04,1.02,-0.37,8.97,-2.87,909.22,21.79,
5106151,0.03,-0.05,0.99,0.12,11.72,-2.99,909.18,21.78,
5106189,0.02,-0.07,0.9,-0.24,11.84,-2.99,909.13,21.79,
5106227,0.01,-0.04,0.92,-0.37,10.62,-3.11,909.21,21.8,
5106265,0.01,-0.05,0.87,-0.85,12.88,-3.05,909.1,21.79,
5106304,0.08,-0.04,0.93,-1.53,12.21,-3.36,909.15,21.8,
5106342,0.07,-0.06,0.97,-1.59,11.6,-3.78,909.04,21.79,
5106392,0.05,-0.06,0.87,-2.44,10.62,-3.85,909.14,21.79,
5106430,0.06,-0.03,0.94,-2.62,9.46,-4.33,909.1,21.8,
5106468,0.07,-0.04,0.89,-3.3,8.61,-4.46,909.05,21.8,
5106507,0.05,-0.04,0.89,-3.42,6.96,-4.64,909.06,21.8,
5106545,0.05,-0.05,0.91,-4.21,6.35,-5.19,909.1,21.81,
5106583,0.06,-0.04,0.92,-4.52,6.04,-5.49,909.04,21.8,
5106621,0.07,-0.02,0.92,-5.19,4.64,-5.68,909.02,21.8,
5106660,0.04,-0.03,1.01,-5.13,3.91,-5.86,909.02,21.8,
5106698,0.05,-0.05,0.98,-5.98,5.13,-5.92,909.07,21.81,
5106748,0.05,-0.01,1.08,-5.98,3.3,-6.35,909.03,21.79,
5106786,0.04,-0.02,1.05,-6.59,4.39,-6.71,909.06,21.81,
5106824,0.06,-0.01,1.11,-6.77,3.11,-7.26,909.1,21.81,
5106863,0.06,-0.01,1.2,-6.96,4.64,-7.69,909.05,21.81,
5106901,0.05,-0.02,1.17,-7.26,4.76,-7.81,909.04,21.81,
5106939,0.03,0.0,1.24,-6.96,5.37,-8.18,909.07,21.81,
5106977,0.03,0.0,1.22,-7.39,7.14,-8.67,909.07,21.81,
5107016,0.04,0.01,1.27,-6.9,7.32,-9.09,909.05,21.81,
5107054,0.04,0.0,1.26,-6.71,7.93,-9.22,909.08,21.81,
5107092,0.04,0.0,1.25,-6.16,8.12,-9.52,909.1,21.82,
5107142,0.04,0.01,1.24,-5.74,9.22,-9.52,909.05,21.81,
5107180,0.04,0.02,1.27,-5.49,8.91,-9.89,909.08,21.83,
5107219,0.03,0.01,1.26,-5.19,8.97,-9.95,909.04,21.81,
5107257,0.02,0.01,1.25,-4.88,8.91,-10.25,909.06,21.81,
5107295,0.03,0.0,1.25,-4.94,8.91,-10.25,909.06,21.81,
5107333,0.03,0.01,1.19,-5.0,8.42,-10.38,909.01,21.81,
5107372,0.01,0.02,1.18,-5.0,8.54,-10.31,909.07,21.8,
5107410,0.03,-0.0,1.16,-5.31,9.09,-10.44,908.99,21.81,
5107448,0.04,-0.0,1.17,-5.19,8.0,-10.44,909.02,21.81,
5107498,0.0,-0.0,1.13,-5.49,6.71,-10.38,909.0,21.79,
5107537,0.02,0.0,1.12,-5.68,6.65,-10.44,909.02,21.8,
5107575,0.02,0.0,1.14,-5.74,5.98,-10.62,909.04,21.82,
5107613,0.02,-0.0,1.18,-5.55,5.07,-10.44,909.03,21.81,
5107652,0.01,-0.01,1.17,-5.86,5.25,-10.62,909.01,21.81,
5107690,0.01,0.01,1.18,-6.04,5.37,-10.86,909.0,21.81,
5107728,0.01,0.02,1.2,-6.23,5.55,-10.86,908.98,21.81,
5107766,0.01,0.0,1.18,-6.41,5.37,-10.93,909.03,21.81,
5107805,0.0,0.01,1.18,-6.65,5.43,-11.17,908.99,21.82,
5107843,0.0,0.01,1.18,-7.08,5.49,-11.17,908.96,21.81,
5107893,-0.0,0.02,1.2,-7.39,4.76,-11.05,908.98,21.79,
5107931,-0.01,0.02,1.21,-7.57,4.03,-11.05,908.89,21.8,
5107969,-0.01,0.02,1.23,-7.81,3.42,-11.05,908.97,21.8,
5108008,-0.02,0.02,1.26,-7.75,2.75,-10.8,908.95,21.81,
5108046,-0.01,0.03,1.27,-8.0,2.01,-10.62,908.93,21.8,
5108084,-0.01,0.04,1.3,-8.36,1.53,-10.62,908.9,21.82,
5108123,-0.02,0.04,1.3,-8.79,1.53,-10.62,908.9,21.81,
5108161,-0.02,0.03,1.35,-8.61,1.53,-10.56,908.89,21.81,
5108199,-0.02,0.05,1.39,-8.73,1.53,-10.44,908.86,21.81,
5108249,-0.02,0.06,1.42,-8.54,0.85,-10.44,908.91,21.79,
5108287,-0.02,0.05,1.41,-8.73,1.4,-10.31,908.86,21.81,
5108326,-0.02,0.04,1.44,-8.18,0.55,-10.25,908.91,21.8,
5108364,-0.02,0.03,1.42,-8.06,0.61,-9.95,908.93,21.81,
5108402,-0.02,0.04,1.39,-7.87,-0.12,-9.95,908.87,21.81,
5108441,-0.03,0.06,1.39,-7.51,-0.37,-9.77,908.89,21.82,
5108479,-0.02,0.04,1.35,-7.39,-0.06,-9.58,908.91,21.81,
5108517,-0.01,0.02,1.42,-7.14,-0.37,-9.7,908.83,21.81,
5108555,-0.01,0.02,1.42,-7.02,-0.37,-9.52,908.9,21.82,
5108594,-0.02,0.04,1.45,-6.59,-0.92,-9.28,908.94,21.8,
5108644,-0.02,0.03,1.41,-6.59,0.31,-9.16,908.91,21.79,
5108682,-0.02,0.03,1.43,-6.29,-0.24,-9.09,908.88,21.8,
5108720,-0.01,0.01,1.36,-6.23,0.06,-9.4,908.94,21.82,
5108758,-0.01,0.02,1.33,-6.35,-0.67,-9.28,908.98,21.81,
5108797,-0.01,0.02,1.35,-6.41,-0.79,-9.16,908.89,21.82,
5108835,-0.01,0.0,1.32,-6.16,-1.89,-8.91,908.86,21.8,
5108873,-0.03,-0.01,1.31,-6.47,-1.65,-8.67,908.93,21.82,
5108911,-0.02,0.01,1.33,-6.59,-1.95,-8.67,908.86,21.8,
5108950,-0.03,0.01,1.34,-6.47,-1.83,-8.48,908.87,21.81,
5109026,-0.02,0.02,1.35,-6.41,-2.75,-8.24,908.86,21.79,
5109064,-0.03,0.01,1.32,-6.47,-2.32,-8.0,908.9,21.78,
5109102,-0.02,0.01,1.32,-6.65,-2.44,-7.81,908.86,21.81,
5109193,-0.03,0.01,1.35,-6.41,-1.59,-7.81,908.86,21.76,
5109231,-0.03,0.02,1.37,-6.04,-0.55,-7.63,908.93,21.79,
5109269,-0.01,0.01,1.34,-6.1,0.31,-7.63,908.9,21.8,
5109307,-0.01,0.01,1.37,-5.43,0.61,-7.57,908.89,21.8,
5109346,-0.02,0.01,1.34,-5.31,1.16,-7.57,908.91,21.8,
5109384,-0.02,0.01,1.35,-5.0,0.67,-7.63,908.89,21.79,
5109434,-0.02,0.01,1.3,-4.88,1.34,-7.57,908.85,21.79,
5109472,-0.01,0.01,1.34,-4.46,0.85,-7.57,908.87,21.8,
5109511,-0.0,-0.0,1.3,-4.88,1.34,-7.39,908.89,21.8,
5109549,-0.01,0.01,1.28,-4.7,0.79,-7.32,908.88,21.81,
5109587,-0.01,0.0,1.31,-4.64,2.26,-7.32,908.86,21.81,
5109625,-0.01,-0.01,1.27,-4.58,2.56,-7.39,908.83,21.81,
5109664,-0.01,-0.0,1.3,-4.46,2.69,-7.39,908.84,21.81,
5109702,-0.01,-0.01,1.27,-4.21,3.48,-7.63,908.78,21.81,
5109740,-0.01,-0.0,1.26,-4.46,3.54,-7.63,908.84,21.82,
5109779,-0.01,-0.0,1.25,-4.76,3.78,-7.57,908.86,21.81,
5109829,-0.01,-0.01,1.24,-5.0,4.27,-7.63,908.79,21.8,
5109867,-0.02,-0.02,1.21,-5.0,4.03,-7.63,908.77,21.81,
5109905,-0.02,-0.01,1.23,-5.0,3.66,-7.45,908.76,21.81,
5109944,0.0,-0.02,1.19,-5.49,3.3,-7.32,908.75,21.81,
5109982,0.01,-0.01,1.22,-5.37,3.05,-7.51,908.8,21.81,
5110020,-0.0,-0.02,1.18,-5.43,3.17,-7.45,908.69,21.81,
5110058,-0.01,-0.02,1.18,-5.43,2.14,-7.32,908.73,21.82,
5110097,-0.01,-0.02,1.19,-5.43,2.01,-7.26,908.78,21.82,
5110135,-0.01,-0.01,1.19,-5.68,1.59,-7.51,908.78,21.82,
5110185,0.0,-0.01,1.24,-5.49,1.53,-7.51,908.71,21.81,
5110223,0.01,-0.01,1.22,-5.62,0.73,-7.51,908.73,21.81,
5110262,0.01,0.0,1.25,-5.74,0.55,-7.51,908.66,21.82,
5110300,0.01,-0.01,1.24,-5.92,0.43,-7.57,908.67,21.81,
5110338,0.0,-0.01,1.23,-6.1,-0.18,-7.57,908.66,21.8,
5110376,-0.01,-0.0,1.27,-5.98,-0.73,-7.51,908.68,21.82,
5110415,-0.0,-0.01,1.25,-5.62,-0.43,-7.81,908.67,21.81,
5110453,0.0,-0.0,1.23,-5.43,-0.85,-7.93,908.69,21.82,
5110491,0.0,-0.01,1.23,-5.19,-1.4,-7.63,908.68,21.82,
5110541,-0.0,-0.01,1.23,-4.94,-1.89,-7.75,908.65,21.81,
5110580,-0.02,-0.02,1.19,-5.07,-1.16,-8.06,908.61,21.81,
5110618,-0.01,-0.01,1.23,-4.58,-1.1,-8.06,908.61,21.82,
5110656,0.0,-0.01,1.19,-4.76,-0.73,-8.3,908.65,21.82,
5110694,-0.01,-0.0,1.22,-4.33,-0.67,-8.42,908.59,21.81,
5110733,-0.0,-0.01,1.2,-4.46,0.55,-8.54,908.57,21.82,
5110771,-0.0,-0.01,1.21,-4.52,0.06,-8.79,908.6,21.82,
5110809,-0.02,-0.01,1.21,-4.52,0.98,-8.85,908.61,21.82,
5110847,-0.01,-0.01,1.22,-4.52,1.4,-8.79,908.56,21.81,
5110886,-0.01,-0.0,1.24,-4.58,2.08,-8.97,908.58,21.82,
5110936,-0.02,-0.0,1.2,-4.58,1.95,-9.09,908.57,21.8,
5110974,-0.02,0.0,1.22,-4.39,2.08,-8.97,908.59,21.82,
5111012,-0.01,0.01,1.21,-4.58,1.89,-9.09,908.53,21.81,
5111050,-0.01,0.02,1.25,-4.64,1.77,-8.91,908.5,21.8,
5111089,-0.02,0.01,1.24,-4.52,1.71,-8.85,908.57,21.82,
5111127,-0.01,0.01,1.28,-4.27,1.53,-9.09,908.52,21.82,
5111165,-0.01,0.01,1.28,-4.39,1.77,-9.09,908.52,21.81,
5111203,-0.02,0.02,1.26,-4.39,1.46,-8.85,908.42,21.8,
5111242,-0.01,0.02,1.22,-4.7,2.01,-9.09,908.46,21.81,
5111292,-0.02,0.01,1.23,-4.76,1.77,-9.09,908.46,21.8,
5111330,-0.02,0.0,1.2,-4.94,2.08,-9.03,908.4,21.81,
5111368,-0.02,0.01,1.25,-4.94,1.4,-8.91,908.45,21.81,
5111407,-0.04,0.02,1.24,-4.82,1.89,-8.97,908.36,21.8,
5111445,-0.03,0.02,1.27,-4.94,1.4,-8.85,908.37,21.8,
5111483,-0.04,0.02,1.28,-4.88,2.32,-8.79,908.37,21.81,
5111521,-0.02,0.01,1.25,-4.82,2.56,-8.73,908.34,21.8,
5111560,-0.04,0.03,1.25,-4.76,2.93,-8.73,908.4,21.81,
5111598,-0.03,0.01,1.22,-4.82,3.48,-8.54,908.35,21.81,
5111636,-0.03,0.02,1.23,-4.7,3.72,-8.42,908.37,21.81,
5111686,-0.04,0.02,1.24,-4.33,4.15,-8.18,908.34,21.81,
5111725,-0.05,0.02,1.22,-4.27,3.72,-8.06,908.31,21.8,
5111763,-0.04,0.03,1.24,-4.15,4.15,-7.93,908.41,21.81,
5111801,-0.02,0.03,1.29,-3.91,4.21,-7.81,908.36,21.8,
5111839,-0.03,0.02,1.28,-3.72,3.85,-7.57,908.33,21.81,
5111878,-0.04,0.03,1.28,-3.54,3.17,-7.26,908.28,21.81,
5111916,-0.05,0.02,1.3,-3.48,3.78,-7.02,908.29,21.82,
5111954,-0.02,0.03,1.26,-3.42,2.87,-6.9,908.26,21.8,
5111993,-0.03,0.03,1.25,-3.42,2.5,-6.77,908.26,21.81,
5112068,-0.03,0.02,1.26,-2.87,1.34,-6.41,908.3,21.79,
5112107,-0.02,0.0,1.2,-3.17,2.62,-6.29,908.3,21.8,
5112145,-0.02,0.02,1.24,-2.69,1.16,-6.29,908.26,21.79,
5112235,-0.03,-0.0,1.12,-1.95,2.14,-6.16,908.22,21.77,
5112273,-0.02,0.01,1.13,-1.71,2.01,-6.04,908.23,21.77,
5112312,-0.02,-0.01,1.03,-1.65,2.08,-5.8,908.18,21.78,
5112350,-0.03,-0.01,1.06,-1.46,1.71,-5.98,908.17,21.78,
5112388,-0.02,-0.02,1.03,-1.65,2.69,-5.62,908.19,21.79,
5112426,-0.0,-0.01,1.05,-1.46,1.46,-5.68,908.19,21.8,
5112476,-0.05,-0.0,1.05,-1.77,1.28,-5.19,908.19,21.79,
5112515,-0.02,-0.02,1.05,-1.59,1.22,-5.0,908.16,21.79,
5112553,-0.03,-0.02,1.03,-1.83,1.89,-5.37,908.16,21.81,
5112591,-0.03,-0.01,1.03,-1.77,1.34,-5.13,908.17,21.81,
5112630,-0.01,-0.02,1.04,-1.83,2.38,-5.0,908.15,21.8,
5112668,-0.01,-0.01,1.0,-1.71,2.32,-4.94,908.15,21.8,
5112706,-0.04,-0.01,1.03,-1.4,2.44,-4.94,908.09,21.79,
5112744,-0.02,-0.02,1.01,-1.53,2.75,-5.0,908.11,21.79,
5112783,-0.02,-0.01,1.06,-1.4,2.44,-5.13,908.14,21.81,
5112821,-0.01,-0.01,1.04,-1.34,3.72,-5.13,908.07,21.79,
5112871,-0.02,-0.01,1.09,-0.98,3.23,-5.19,908.09,21.79,
5112909,-0.02,-0.02,1.05,-1.22,4.09,-5.19,908.1,21.8,
5112948,-0.01,-0.01,1.09,-0.79,3.48,-4.94,908.08,21.8,
5112986,-0.01,-0.01,1.04,-0.79,4.27,-5.0,908.08,21.8,
5113024,-0.01,-0.01,1.02,-0.79,3.85,-5.07,908.03,21.79,
5113062,-0.01,-0.01,1.02,-0.79,4.46,-5.0,908.05,21.81,
5113101,0.0,-0.02,0.97,-0.85,3.97,-5.13,908.04,21.8,
5113139,-0.0,-0.02,1.0,-0.67,3.48,-5.07,908.02,21.8,
5113177,0.01,-0.03,0.94,-1.04,3.3,-5.07,908.05,21.81,
5113227,-0.0,-0.03,0.94,-1.04,2.2,-5.0,908.02,21.79,
5113266,0.0,-0.03,0.9,-1.34,2.5,-5.07,907.99,21.78,
5113304,0.01,-0.03,0.91,-1.53,1.59,-5.25,908.01,21.8,
5113342,0.0,-0.03,0.88,-1.65,1.71,-5.13,908.0,21.81,
5113381,-0.01,-0.03,0.92,-1.83,0.55,-5.19,907.97,21.8,
5113419,-0.0,-0.03,0.92,-2.08,0.92,-5.25,907.91,21.79,
5113457,0.0,-0.03,0.93,-2.5,0.79,-5.31,907.97,21.8,
5113495,-0.0,-0.02,0.95,-2.44,0.55,-5.43,907.95,21.81,
5113533,0.0,-0.02,0.96,-2.5,0.73,-5.49,907.96,21.8,
5113583,0.01,-0.02,0.98,-2.81,1.16,-5.68,907.95,21.79,
5113622,-0.0,-0.03,0.97,-2.81,1.77,-5.74,908.01,21.81,
5113660,0.0,-0.02,0.97,-2.99,1.65,-5.86,907.93,21.8,
5113698,-0.01,-0.01,0.99,-2.87,1.95,-5.86,907.96,21.79,
5113737,-0.0,-0.02,0.97,-2.81,2.75,-6.04,907.91,21.81,
5113775,0.01,-0.02,0.99,-2.99,3.05,-6.16,907.92,21.81,
5113813,0.0,-0.01,0.97,-2.99,3.11,-6.04,907.91,21.79,
5113851,-0.01,-0.02,0.99,-2.75,3.36,-6.04,907.92,21.81,
5113890,-0.0,-0.02,1.0,-3.23,4.15,-6.04,907.87,21.8,
5113928,-0.0,-0.01,1.05,-2.93,3.66,-5.98,907.87,21.81,
5113978,0.0,-0.02,1.04,-3.17,3.36,-5.86,907.87,21.8,
5114016,0.0,-0.01,1.05,-3.05,3.23,-6.04,907.9,21.8,
5114055,0.01,-0.01,1.06,-2.87,3.54,-5.98,907.83,21.8,
5114093,0.01,-0.0,1.06,-3.11,3.05,-5.74,907.86,21.81,
5114131,0.01,0.01,1.1,-3.05,2.32,-6.04,907.83,21.81,
5114170,0.01,-0.0,1.07,-3.42,2.56,-5.92,907.82,21.8,
5114208,0.02,0.0,1.08,-3.72,1.1,-5.98,907.86,21.8,
5114246,0.02,0.0,1.12,-3.85,1.16,-5.98,907.87,21.81,
5114285,0.02,0.0,1.12,-4.09,0.43,-5.86,907.83,21.81,
5114335,0.02,0.01,1.16,-4.09,-0.06,-6.1,907.83,21.8,
5114373,0.01,0.01,1.14,-4.03,0.49,-6.1,907.83,21.82,
5114411,0.02,0.02,1.15,-4.21,0.43,-6.16,907.84,21.81,
5114450,0.02,0.01,1.17,-4.15,0.73,-6.35,907.74,21.79,
5114488,0.02,0.02,1.17,-3.85,0.79,-6.65,907.81,21.81,
5114526,0.02,0.02,1.19,-4.03,0.85,-6.65,907.76,21.81,
5114564,0.03,0.02,1.19,-4.09,1.83,-6.77,907.76,21.8,
5114603,0.02,0.03,1.2,-4.09,1.65,-7.08,907.81,21.82,
5114641,0.01,0.03,1.21,-3.85,2.01,-7.14,907.78,21.81,
5114679,0.02,0.02,1.2,-3.85,2.75,-7.2,907.84,21.82,
5114729,0.03,0.03,1.22,-3.78,2.99,-7.63,907.76,21.8,
5114768,0.02,0.02,1.18,-3.91,3.66,-7.63,907.74,21.79,
5114806,0.03,0.03,1.21,-3.72,3.91,-7.63,907.79,21.81,
5114844,0.02,0.02,1.2,-3.6,4.64,-8.0,907.77,21.81,
5114883,0.02,0.03,1.18,-3.48,4.33,-8.12,907.76,21.81,
5114921,0.0,0.03,1.19,-3.42,4.76,-8.12,907.75,21.81,
5114959,0.02,0.02,1.17,-3.66,5.25,-8.48,907.76,21.8,
5114998,0.02,0.01,1.16,-3.42,4.09,-8.54,907.8,21.79,
5115036,0.01,-0.0,1.15,-3.36,4.27,-8.48,907.79,21.81,
5115074,0.01,0.0,1.1,-3.23,4.15,-8.61,907.86,21.81,
5115150,0.01,0.0,1.07,-2.87,3.3,-8.42,907.75,21.78,
5115188,0.0,0.0,1.08,-2.69,2.5,-8.42,907.77,21.78,
5115227,0.02,-0.01,1.09,-3.23,2.87,-8.48,907.72,21.79,
5115317,0.0,-0.01,1.13,-3.11,2.56,-8.61,907.74,21.77,
5115355,0.0,-0.02,1.12,-3.3,2.62,-8.91,907.74,21.76,
5115393,0.0,-0.01,1.12,-3.3,2.44,-8.97,907.75,21.78,
5115432,0.01,-0.02,1.07,-3.54,2.56,-9.03,907.76,21.79,
5115470,0.0,-0.01,1.09,-3.3,1.65,-9.09,907.75,21.79,
5115508,0.0,-0.02,1.07,-3.54,2.56,-9.03,907.79,21.79,
5115558,-0.0,-0.02,1.09,-3.6,1.95,-9.09,907.8,21.79,
5115596,-0.01,-0.02,1.11,-3.78,2.5,-9.09,907.71,21.78,
5115635,-0.01,-0.02,1.12,-3.91,2.14,-9.22,907.72,21.79,
5115673,-0.0,-0.02,1.15,-4.15,2.44,-9.4,907.78,21.79,
5115711,0.0,-0.02,1.17,-4.15,2.38,-9.46,907.71,21.79,
5115750,0.01,-0.01,1.16,-4.64,2.87,-9.34,907.78,21.79,
5115788,-0.02,0.0,1.2,-4.88,2.69,-9.34,907.71,21.8,
5115826,-0.02,0.0,1.22,-4.94,2.69,-9.28,907.71,21.8,
5115864,-0.01,-0.01,1.24,-4.94,2.81,-9.46,907.75,21.79,
5115903,-0.01,-0.01,1.23,-5.31,2.69,-9.52,907.75,21.79,
5115953,-0.0,0.0,1.26,-5.13,2.26,-9.46,907.73,21.79,
5115991,-0.02,0.0,1.23,-5.43,2.5,-9.4,907.71,21.8,
5116029,-0.01,0.01,1.25,-5.43,2.01,-9.28,907.71,21.8,
5116068,-0.01,-0.0,1.27,-5.43,2.08,-9.16,907.72,21.8,
5116106,-0.01,0.0,1.28,-5.43,1.46,-9.28,907.7,21.81,
5116144,-0.01,0.01,1.31,-5.31,1.59,-9.09,907.75,21.81,
5116182,-0.01,0.01,1.33,-5.13,1.34,-8.85,907.67,21.79,
5116221,-0.01,0.0,1.32,-5.07,1.46,-8.85,907.7,21.81,
5116259,-0.01,-0.0,1.31,-5.31,1.77,-8.85,907.7,21.8,
5116309,-0.01,0.01,1.32,-5.13,0.79,-8.79,907.68,21.79,
5116347,-0.02,0.0,1.3,-5.07,1.4,-8.54,907.65,21.79,
5116386,-0.0,0.0,1.32,-5.37,1.77,-8.73,907.63,21.79,
5116424,-0.01,0.0,1.36,-5.07,1.83,-8.73,907.65,21.8,
5116462,-0.01,-0.0,1.33,-5.25,2.26,-8.61,907.62,21.79,
5116501,-0.01,0.0,1.35,-5.31,2.38,-8.73,907.65,21.8,
5116539,-0.01,0.01,1.38,-5.13,2.87,-8.79,907.61,21.8,
5116577,-0.0,0.0,1.34,-5.19,3.3,-8.73,907.66,21.81,
5116615,-0.01,-0.0,1.35,-5.25,3.17,-8.73,907.6,21.81,
5116666,-0.01,0.01,1.34,-5.49,3.6,-8.61,907.65,21.8,
5116704,-0.02,0.01,1.34,-5.37,3.91,-8.67,907.59,21.79,
5116742,-0.02,-0.0,1.34,-5.37,4.21,-8.42,907.61,21.81,
5116781,-0.01,0.01,1.35,-5.37,4.15,-8.73,907.55,21.79,
5116819,-0.01,0.01,1.38,-5.25,3.97,-8.48,907.54,21.8,
5116857,-0.01,0.01,1.39,-5.43,4.15,-8.67,907.59,21.8,
5116895,-0.01,0.01,1.37,-5.49,4.33,-8.61,907.55,21.81,
5116933,-0.01,0.01,1.37,-5.37,4.76,-8.79,907.55,21.81,
5116972,-0.03,0.01,1.35,-5.07,5.43,-8.48,907.56,21.81,
5117010,-0.02,0.0,1.33,-4.88,5.43,-8.61,907.54,21.8,
5117060,-0.02,0.0,1.3,-4.64,5.98,-8.85,907.54,21.8,
5117098,-0.0,0.0,1.31,-4.94,5.98,-8.54,907.55,21.8,
5117137,-0.01,-0.0,1.3,-4.94,5.98,-8.42,907.52,21.8,
5117175,-0.02,0.0,1.3,-5.19,5.68,-8.42,907.53,21.81,
5117213,-0.02,0.0,1.3,-5.43,5.98,-8.42,907.48,21.8,
5117252,-0.0,-0.0,1.3,-5.55,5.86,-8.42,907.54,21.81,
5117290,-0.02,0.0,1.28,-5.68,5.13,-8.48,907.46,21.81,
5117328,-0.01,-0.01,1.29,-5.92,5.31,-8.3,907.53,21.82,
5117366,-0.0,0.0,1.29,-5.86,4.88,-8.3,907.41,21.81,
5117416,-0.02,0.0,1.28,-5.92,4.88,-8.06,907.5,21.8,
5117455,-0.02,-0.0,1.27,-5.8,4.52,-8.0,907.5,21.81,
5117493,-0.02,-0.0,1.27,-5.92,4.58,-8.06,907.45,21.81,
5117531,-0.01,0.0,1.27,-5.62,4.39,-7.75,907.43,21.81,
5117569,-0.02,-0.01,1.27,-5.55,4.03,-7.69,907.49,21.81,
5117608,-0.01,-0.01,1.26,-5.55,4.27,-7.69,907.42,21.81,
5117646,-0.02,0.0,1.28,-5.43,3.91,-7.51,907.42,21.82,
5117684,-0.02,-0.0,1.26,-5.37,3.54,-7.45,907.39,21.8,
5117722,-0.03,-0.0,1.26,-5.25,2.99,-7.32,907.38,21.81,
5117761,-0.01,-0.0,1.27,-5.31,3.17,-7.51,907.38,21.8,
5117811,-0.01,-0.0,1.25,-5.25,2.87,-7.45,907.39,21.78,
5117849,-0.01,-0.0,1.25,-5.25,2.87,-7.26,907.34,21.79,
5117887,-0.01,-0.01,1.24,-5.19,3.36,-7.14,907.33,21.8,
5117925,-0.02,-0.0,1.24,-5.37,3.36,-7.26,907.34,21.81,
5117964,-0.01,-0.01,1.24,-5.07,3.3,-7.2,907.3,21.82,
5118002,-0.01,-0.01,1.23,-5.0,3.3,-7.14,907.25,21.81,
5118040,-0.01,-0.0,1.22,-5.0,3.42,-7.08,907.3,21.81,
5118078,-0.0,0.0,1.24,-5.07,3.42,-7.08,907.27,21.81,
5118117,-0.01,0.0,1.22,-5.0,3.23,-6.96,907.25,21.81,
5118193,-0.0,-0.01,1.22,-5.13,3.36,-6.96,907.2,21.77,
5118231,-0.01,-0.0,1.22,-5.19,2.99,-7.02,907.24,21.8,
5118269,-0.01,-0.0,1.2,-5.07,3.11,-6.84,907.19,21.8,
5118359,0.0,-0.01,1.21,-4.88,2.93,-6.84,907.19,21.76,
5118398,-0.01,-0.01,1.21,-4.58,2.81,-6.84,907.17,21.77,
5118436,-0.0,-0.0,1.22,-4.7,2.81,-6.77,907.14,21.78,
5118474,-0.0,-0.0,1.23,-4.64,2.5,-7.14,907.11,21.79,
5118512,-0.01,0.01,1.24,-4.7,2.26,-7.02,907.18,21.79,
5118550,0.0,0.0,1.21,-4.94,2.01,-6.84,907.08,21.79,
5118600,-0.02,0.0,1.24,-4.64,2.01,-6.77,907.13,21.79,
5118639,-0.0,0.0,1.21,-4.88,2.01,-6.71,907.14,21.79,
5118677,-0.01,0.01,1.26,-4.58,1.53,-6.96,907.06,21.79,
5118715,-0.02,-0.0,1.24,-4.46,2.01,-6.9,907.06,21.79,
5118753,-0.01,0.0,1.25,-4.27,1.46,-6.96,907.06,21.79,
5118792,-0.01,0.0,1.25,-4.33,2.26,-7.02,907.09,21.78,
5118830,0.0,0.0,1.21,-4.21,2.01,-6.96,907.03,21.79,
5118868,-0.0,0.0,1.22,-4.09,2.5,-7.14,907.01,21.8,
5118907,-0.02,0.0,1.17,-3.72,2.01,-6.9,907.06,21.8,
5118945,-0.01,0.01,1.22,-3.6,1.71,-6.84,907.02,21.8,
5118995,0.01,0.0,1.22,-3.6,1.53,-7.08,907.02,21.79,
5119033,-0.01,0.0,1.23,-3.48,1.46,-7.08,906.93,21.79,
5119071,0.0,-0.01,1.19,-3.6,1.65,-7.02,907.0,21.78,
5119110,0.01,0.0,1.21,-3.11,1.77,-7.02,906.94,21.78,
5119148,-0.0,0.0,1.19,-3.11,1.71,-7.08,906.9,21.79,
5119186,-0.01,-0.01,1.18,-2.75,1.4,-7.02,907.0,21.81,
5119224,0.0,-0.01,1.15,-2.26,1.77,-7.32,906.9,21.79,
5119263,0.0,0.0,1.15,-1.83,1.71,-7.45,906.93,21.8,
5119301,0.0,-0.0,1.15,-1.77,1.83,-7.2,906.88,21.79,
5119351,-0.0,-0.0,1.16,-1.4,1.22,-7.57,906.87,21.78,
5119389,0.0,-0.01,1.15,-1.4,2.38,-7.57,906.89,21.8,
5119427,0.01,-0.0,1.16,-0.98,2.01,-7.63,906.87,21.8,
5119466,0.01,-0.0,1.17,-0.92,2.08,-7.69,906.89,21.79,
5119504,0.0,-0.02,1.12,-0.92,2.01,-7.75,906.82,21.8,
5119542,0.0,-0.01,1.12,-0.85,2.2,-8.0,906.82,21.81,
5119580,0.0,-0.01,1.09,-1.04,2.44,-7.75,906.82,21.79,
5119619,0.01,-0.02,1.07,-1.1,2.14,-7.87,906.82,21.8,
5119657,0.0,-0.01,1.06,-1.22,1.83,-8.06,906.79,21.79,
5119695,-0.0,-0.02,1.05,-1.4,1.71,-7.93,906.8,21.81,
5119745,0.02,-0.02,1.06,-1.83,1.89,-8.0,906.75,21.78,
5119784,0.0,-0.01,1.07,-2.01,1.22,-7.87,906.73,21.79,
5119822,0.01,-0.01,1.07,-2.2,0.92,-7.93,906.7,21.79,
5119860,-0.0,-0.01,1.07,-2.14,1.22,-8.24,906.72,21.8,
5119898,0.01,-0.01,1.07,-2.5,0.55,-8.18,906.71,21.79,
5119937,-0.0,-0.01,1.06,-2.38,-0.06,-8.18,906.7,21.79,
5119975,0.0,-0.02,1.05,-2.38,-0.31,-8.06,906.74,21.81,
5120013,0.01,-0.02,1.07,-2.2,-0.79,-8.54,906.67,21.79,
5120052,0.0,-0.02,1.02,-2.44,-0.98,-8.42,906.69,21.8,
5120101,0.01,-0.02,1.04,-2.5,-1.71,-8.54,906.64,21.79,
5120140,-0.0,-0.02,0.99,-2.99,-1.59,-8.54,906.66,21.79,
5120178,-0.0,-0.02,1.04,-2.69,-2.5,-8.67,906.64,21.79,
5120216,-0.0,-0.02,1.03,-2.93,-2.2,-8.54,906.62,21.79,
5120255,-0.01,-0.02,1.05,-2.81,-2.32,-8.67,906.62,21.8,
5120293,-0.01,-0.01,1.06,-2.87,-1.89,-8.73,906.68,21.79,
5120331,-0.02,-0.02,1.07,-2.75,-1.77,-8.73,906.62,21.79,
5120369,-0.02,-0.02,1.07,-2.75,-1.53,-8.85,906.63,21.8,
5120408,-0.02,-0.02,1.03,-2.99,-0.73,-8.73,906.64,21.79,
5120458,-0.02,-0.0,1.07,-2.87,0.06,-8.97,906.61,21.79,
5120496,-0.02,-0.01,1.05,-3.05,1.28,-8.97,906.61,21.79,
5120534,-0.02,-0.01,1.08,-2.87,1.77,-9.03,906.58,21.79,
5120572,-0.02,-0.01,1.07,-2.81,3.91,-8.85,906.55,21.79,
5120611,-0.02,-0.01,1.03,-2.93,4.03,-8.73,906.63,21.78,
5120649,-0.03,-0.01,1.05,-2.99,5.07,-8.79,906.59,21.79,
5120687,-0.01,-0.01,1.01,-2.99,5.43,-8.97,906.6,21.79,
5120726,-0.02,-0.01,1.06,-2.56,5.62,-8.85,906.62,21.81,
5120764,0.0,-0.02,1.04,-2.93,5.98,-8.61,906.57,21.8,
5120802,-0.02,-0.0,1.07,-2.75,5.19,-8.48,906.61,21.81,
5120852,-0.02,-0.01,1.05,-2.87,5.37,-8.18,906.54,21.79,
5120890,-0.01,-0.01,1.07,-2.87,4.94,-8.12,906.58,21.8,
5120929,-0.02,-0.01,1.06,-2.99,5.07,-7.93,906.52,21.8,
5120967,-0.0,-0.0,1.06,-3.36,4.33,-7.87,906.55,21.8,
5121005,-0.0,-0.0,1.07,-3.6,3.91,-7.75,906.57,21.81,
5121043,-0.01,-0.02,1.09,-3.72,3.54,-7.75,906.51,21.8,
5121082,-0.02,-0.02,1.07,-3.54,3.48,-7.45,906.5,21.79,
5121120,-0.01,-0.01,1.13,-3.48,2.26,-7.51,906.5,21.81,
5121158,-0.02,-0.02,1.06,-3.36,2.2,-7.45,906.46,21.8,
5121234,-0.01,-0.01,1.08,-3.78,1.46,-7.26,906.51,21.77,
5121273,-0.0,-0.01,1.08,-3.6,0.85,-7.39,906.51,21.79,
5121311,-0.02,-0.0,1.1,-3.97,0.98,-7.32,906.47,21.78,
5121401,-0.01,-0.02,1.1,-4.03,1.83,-7.51,906.42,21.75,
5121439,-0.01,-0.02,1.07,-4.09,2.38,-7.45,906.5,21.77,
5121477,-0.02,-0.01,1.08,-4.03,2.81,-7.39,906.43,21.77,
5121516,-0.01,-0.01,1.08,-3.78,3.36,-7.51,906.43,21.78,
5121554,-0.01,-0.01,1.1,-3.36,3.48,-7.75,906.43,21.78,
5121592,-0.02,-0.02,1.08,-3.17,3.85,-7.75,906.44,21.79,
5121642,0.01,-0.01,1.07,-3.11,3.66,-7.69,906.42,21.77,
5121680,-0.0,-0.01,1.08,-2.99,3.48,-7.51,906.39,21.78,
5121719,-0.02,-0.02,1.05,-3.17,3.05,-7.32,906.42,21.78,
5121757,-0.0,-0.02,1.04,-3.11,2.93,-7.39,906.42,21.78,
5121795,-0.02,-0.01,1.02,-2.81,2.93,-7.39,906.42,21.79,
5121833,-0.0,-0.02,1.01,-2.81,2.99,-7.2,906.37,21.78,
5121872,0.0,-0.03,1.01,-2.56,2.38,-7.51,906.36,21.79,
5121910,-0.01,-0.03,1.0,-2.5,1.77,-7.32,906.38,21.79,
5121948,-0.0,-0.04,0.99,-2.62,2.08,-7.2,906.39,21.79,
5121986,0.01,-0.02,1.07,-2.56,0.79,-7.45,906.34,21.79,
5122037,-0.01,-0.03,1.01,-2.99,0.79,-7.32,906.36,21.78,
5122075,-0.01,-0.02,1.06,-2.81,0.0,-7.26,906.32,21.78,
5122113,-0.0,-0.03,1.06,-3.05,0.61,-7.57,906.36,21.79,
5122151,-0.0,-0.02,1.07,-2.81,-0.49,-7.63,906.38,21.81,
5122189,-0.01,-0.01,1.13,-3.11,-0.24,-7.51,906.32,21.79,
5122228,0.0,-0.01,1.13,-2.93,-0.06,-7.75,906.34,21.79,
5122266,-0.01,-0.01,1.16,-2.93,-0.18,-7.51,906.39,21.8,
5122304,-0.0,-0.02,1.18,-2.99,0.06,-7.32,906.35,21.8,
5122342,-0.0,-0.02,1.18,-3.17,-0.24,-7.51,906.38,21.8,
5122392,-0.01,-0.01,1.18,-2.87,0.37,-7.57,906.36,21.79,
5122431,-0.0,-0.01,1.14,-2.69,-0.43,-7.51,906.36,21.79,
5122469,-0.02,-0.01,1.16,-2.62,-0.18,-7.69,906.35,21.81,
5122507,-0.0,-0.03,1.12,-2.56,0.06,-7.51,906.41,21.79,
5122545,-0.02,-0.02,1.13,-2.56,-0.06,-7.57,906.4,21.79,
5122584,-0.01,-0.02,1.14,-2.56,0.73,-7.63,906.34,21.8,
5122622,-0.01,-0.02,1.13,-2.56,0.55,-7.63,906.35,21.8,
5122660,-0.02,-0.01,1.17,-2.69,0.73,-7.69,906.38,21.8,
5122699,-0.02,-0.02,1.15,-2.87,0.92,-7.51,906.36,21.8,
5122748,-0.01,-0.01,1.19,-3.11,1.53,-7.69,906.39,21.78,
5122787,-0.01,-0.01,1.17,-3.17,1.77,-7.63,906.37,21.8,
5122825,-0.01,-0.01,1.19,-3.05,1.59,-7.39,906.33,21.81,
5122863,-0.02,-0.02,1.19,-2.99,2.01,-7.51,906.3,21.79,
5122901,-0.01,-0.02,1.22,-3.05,2.01,-7.39,906.35,21.8,
5122940,-0.02,-0.01,1.23,-3.3,2.44,-7.26,906.29,21.8,
5122978,-0.02,-0.01,1.22,-2.99,1.95,-7.14,906.33,21.8,
5123016,-0.03,-0.01,1.21,-3.17,3.11,-7.32,906.29,21.8,
5123054,-0.01,-0.01,1.22,-3.48,3.17,-7.45,906.35,21.81,
5123093,-0.01,-0.0,1.23,-3.48,3.48,-7.32,906.29,21.79,
5123143,-0.03,-0.0,1.24,-3.36,4.21,-7.39,906.32,21.8,
5123181,-0.01,-0.0,1.26,-3.78,5.25,-7.51,906.24,21.79,
5123219,-0.0,0.0,1.29,-3.78,5.13,-7.39,906.31,21.8,
5123258,-0.02,0.0,1.28,-3.66,4.88,-7.2,906.33,21.8,
5123296,-0.03,0.0,1.31,-3.6,4.64,-6.96,906.29,21.8,
5123334,-0.01,0.01,1.31,-3.6,4.33,-7.14,906.34,21.8,
5123372,-0.03,0.01,1.29,-3.3,3.05,-6.84,906.29,21.81,
5123411,-0.02,0.0,1.29,-2.81,2.26,-6.53,906.22,21.81,
5123449,-0.03,-0.0,1.27,-2.62,1.83,-6.29,906.31,21.81,
5123499,-0.02,-0.01,1.29,-1.95,0.98,-6.16,906.28,21.79,
5123537,-0.02,-0.02,1.25,-1.83,0.18,-6.16,906.31,21.79,
5123576,-0.04,-0.01,1.25,-1.65,-0.24,-5.92,906.26,21.81,
5123614,-0.02,-0.01,1.21,-1.65,-0.18,-6.04,906.24,21.8,
5123652,-0.02,-0.01,1.18,-1.71,-0.24,-5.86,906.27,21.8,
5123691,-0.03,-0.01,1.17,-1.77,-0.18,-5.68,906.18,21.8,
5123729,-0.02,-0.02,1.15,-1.71,0.06,-5.92,906.27,21.81,
5123767,-0.03,-0.01,1.2,-1.65,0.06,-5.86,906.23,21.81,
5123805,-0.03,-0.02,1.19,-1.53,0.37,-5.86,906.18,21.8,
5123855,-0.04,-0.01,1.2,-1.4,1.53,-5.74,906.2,21.79,
5123894,-0.05,-0.01,1.2,-1.28,1.83,-5.74,906.23,21.81,
5123932,-0.03,-0.02,1.18,-1.28,2.5,-5.74,906.21,21.8,
5123970,-0.03,-0.02,1.18,-1.34,2.99,-5.68,906.22,21.8,
5124009,-0.03,-0.01,1.18,-1.22,3.54,-5.49,906.21,21.79,
5124047,-0.04,-0.02,1.16,-1.22,3.78,-5.55,906.22,21.81,
5124085,-0.04,-0.02,1.14,-1.22,4.03,-5.19,906.2,21.8,
5124124,-0.02,-0.03,1.14,-1.28,4.33,-5.37,906.21,21.8,
5124162,-0.03,-0.03,1.11,-1.28,3.85,-5.25,906.16,21.79,
5124239,-0.02,-0.03,1.09,-1.1,4.09,-5.13,906.18,21.77,
5124278,-0.02,-0.03,1.08,-1.16,3.78,-5.13,906.19,21.79,
5124316,-0.02,-0.03,1.08,-1.1,3.3,-4.88,906.2,21.79,
5124407,-0.02,-0.03,1.07,-1.4,2.87,-4.94,906.16,21.75,
5124445,-0.03,-0.03,1.05,-1.46,2.69,-4.7,906.14,21.76,
5124483,-0.02,-0.03,1.06,-1.46,2.26,-4.64,906.12,21.77,
5124521,-0.02,-0.03,1.08,-1.53,2.62,-4.88,906.19,21.78,
5124560,-0.03,-0.03,1.05,-1.65,2.38,-4.64,906.14,21.78,
5124598,-0.03,-0.03,1.09,-1.65,2.14,-4.46,906.19,21.78,
5124636,-0.02,-0.03,1.07,-1.83,2.62,-4.76,906.14,21.79,
5124686,-0.03,-0.02,1.12,-1.71,2.44,-4.52,906.12,21.78,
5124725,-0.03,-0.03,1.11,-1.77,2.75,-4.46,906.12,21.78,
5124763,-0.03,-0.03,1.09,-2.08,2.56,-4.58,906.1,21.79,
5124801,-0.03,-0.02,1.13,-1.77,1.83,-4.46,906.08,21.78,
5124840,-0.02,-0.03,1.08,-1.89,2.32,-4.15,906.11,21.79,
5124878,-0.02,-0.02,1.09,-1.89,1.59,-4.21,906.05,21.78,
5124916,-0.03,-0.03,1.08,-1.83,1.83,-4.15,906.05,21.79,
5124954,-0.03,-0.03,1.06,-1.77,1.4,-4.15,906.06,21.79,
5124993,-0.02,-0.03,1.08,-1.77,1.28,-3.97,905.99,21.79,
5125043,-0.02,-0.03,1.1,-1.53,0.37,-3.97,906.01,21.78,
5125081,-0.03,-0.03,1.09,-1.65,0.55,-3.91,906.04,21.79,
5125119,-0.01,-0.03,1.08,-1.53,0.31,-3.97,906.02,21.79,
5125158,0.0,-0.03,1.07,-1.46,0.55,-3.85,906.05,21.8,
5125196,-0.03,-0.04,1.01,-1.77,0.43,-3.91,906.02,21.8,
5125234,-0.02,-0.03,1.06,-1.34,0.43,-3.72,906.08,21.79,
5125272,-0.01,-0.05,1.0,-1.71,2.14,-3.97,906.05,21.79,
5125311,-0.02,-0.03,1.05,-1.46,1.22,-3.85,906.02,21.79,
5125349,-0.01,-0.04,1.02,-1.65,2.26,-3.85,906.07,21.79,
5125399,-0.0,-0.03,1.06,-1.53,1.77,-3.97,906.02,21.78,
5125437,-0.0,-0.03,1.1,-1.59,2.32,-3.78,906.03,21.79,
5125476,-0.01,-0.04,1.1,-1.4,1.4,-3.85,906.02,21.79,
5125514,-0.0,-0.03,1.16,-1.46,1.83,-3.91,906.04,21.8,
5125552,0.0,-0.03,1.14,-1.46,1.77,-3.72,906.06,21.8,
5125591,-0.01,-0.02,1.16,-1.65,1.71,-3.78,906.06,21.79,
5125629,0.01,-0.03,1.15,-1.65,2.08,-3.85,906.03,21.81,
5125667,-0.0,-0.03,1.14,-1.65,1.59,-3.91,906.05,21.8,
5125705,0.0,-0.02,1.17,-1.46,1.83,-3.91,905.99,21.79,
5125744,0.01,-0.03,1.12,-1.71,2.75,-3.91,906.02,21.79,
5125794,-0.0,-0.01,1.17,-0.98,1.95,-3.85,906.03,21.78,
5125832,0.0,-0.03,1.13,-0.98,2.62,-3.97,905.99,21.79,
5125870,0.0,-0.02,1.17,-0.61,2.87,-4.27,906.01,21.79,
5125908,0.02,-0.02,1.15,-0.49,3.3,-4.33,905.97,21.79,
5125947,0.0,-0.02,1.14,-0.31,3.42,-4.33,906.02,21.8,
5125985,0.0,-0.02,1.13,-0.12,3.54,-4.27,906.06,21.8,
5126023,0.01,-0.03,1.14,0.43,3.42,-4.33,906.02,21.8,
5126061,0.0,-0.03,1.12,0.55,3.11,-4.33,905.95,21.8,
5126100,-0.0,-0.03,1.09,1.1,3.3,-4.33,906.02,21.81,
5126150,0.01,-0.03,1.09,1.22,3.17,-4.33,906.0,21.78,
5126188,0.01,-0.03,1.06,1.28,2.81,-4.46,905.99,21.8,
5126226,-0.0,-0.03,1.06,1.46,2.26,-4.33,905.92,21.79,
5126265,0.0,-0.04,1.05,1.77,2.93,-4.58,905.89,21.79,
5126303,0.01,-0.04,1.04,1.28,2.69,-4.64,905.97,21.8,
5126341,0.01,-0.03,1.08,1.59,2.44,-4.52,906.02,21.8,
5126379,0.01,-0.04,1.03,1.34,2.62,-4.58,905.92,21.8,
5126418,0.01,-0.04,1.05,1.1,2.62,-4.76,905.96,21.79,
5126456,0.02,-0.03,1.02,0.85,2.5,-4.58,905.85,21.79,
5126494,0.0,-0.03,1.0,0.55,1.59,-4.76,905.9,21.79,
5126544,0.01,-0.04,0.99,0.18,1.59,-4.64,905.93,21.79,
5126583,0.02,-0.04,1.0,-0.37,1.22,-4.82,905.87,21.79,
5126621,0.02,-0.04,0.98,-0.85,1.22,-4.88,905.87,21.8,
5126659,0.01,-0.04,1.0,-1.16,0.67,-5.07,905.89,21.81,
5126697,0.02,-0.04,1.01,-1.34,1.16,-5.13,905.85,21.8,
5126736,0.02,-0.04,1.01,-1.65,0.79,-5.25,905.88,21.79,
5126774,0.01,-0.03,1.02,-1.4,1.59,-5.25,905.86,21.8,
5126812,0.01,-0.04,1.01,-1.59,2.75,-5.55,905.87,21.8,
5126850,0.02,-0.04,1.04,-1.46,2.87,-5.68,905.89,21.81,
5126901,0.02,-0.04,1.05,-1.46,3.97,-5.74,905.88,21.77,
5126939,0.01,-0.04,1.02,-1.4,4.58,-5.86,905.87,21.78,
5126977,0.01,-0.04,1.0,-1.28,4.82,-5.86,905.85,21.8,
5127015,0.01,-0.04,1.0,-1.4,5.49,-6.1,905.86,21.79,
5127054,0.02,-0.04,0.98,-1.28,5.74,-6.04,905.88,21.81,
5127092,0.02,-0.03,1.02,-1.16,5.31,-6.1,905.83,21.79,
5127130,0.01,-0.04,1.01,-1.22,5.86,-6.04,905.89,21.8,
5127169,0.02,-0.05,1.05,-1.1,5.8,-6.1,905.84,21.79,
5127207,0.04,-0.04,1.07,-1.4,6.04,-6.35,905.85,21.8,
5127245,0.02,-0.04,1.1,-1.04,5.62,-6.41,905.91,21.79,
5127321,0.04,-0.03,1.06,-1.1,3.78,-6.65,905.89,21.77,
5127360,0.03,-0.05,0.98,-1.22,4.15,-6.65,905.86,21.76,
5127398,0.02,-0.04,0.97,-1.16,3.11,-6.96,905.89,21.79,
5127488,0.01,-0.06,0.98,-1.95,1.83,-7.2,905.82,21.75,
5127526,0.01,-0.04,0.99,-2.56,2.32,-7.45,905.87,21.77,
5127565,-0.0,-0.05,1.0,-2.87,2.5,-7.51,905.84,21.77,
5127603,0.02,-0.04,1.02,-3.23,2.81,-7.75,905.88,21.77,
5127641,0.0,-0.04,1.05,-3.54,2.93,-7.81,905.87,21.77,
5127679,-0.0,-0.05,1.08,-3.78,3.85,-7.87,905.88,21.78,
5127729,-0.0,-0.04,1.15,-3.72,4.27,-7.87,905.86,21.77,
5127768,-0.02,-0.04,1.16,-3.78,5.68,-8.12,905.88,21.77,
5127806,0.01,-0.03,1.17,-3.85,6.04,-7.87,905.88,21.77,
5127844,0.01,-0.03,1.2,-4.03,6.35,-8.0,905.86,21.77,
5127883,-0.01,-0.05,1.11,-3.97,6.77,-8.0,905.87,21.78,
5127921,-0.02,-0.03,1.13,-3.97,6.23,-7.87,905.88,21.78,
5127959,-0.01,-0.04,1.05,-4.03,7.08,-7.87,905.84,21.78,
5127997,-0.01,-0.03,1.08,-3.85,6.29,-7.87,905.87,21.78,
5128036,0.02,-0.05,1.07,-3.66,7.63,-7.75,905.89,21.79,
5128074,-0.01,-0.06,0.98,-3.66,7.2,-7.87,905.85,21.77,
5128124,-0.02,-0.05,0.99,-2.93,7.75,-7.57,905.9,21.78,
5128162,-0.0,-0.06,0.95,-2.93,7.69,-7.57,905.87,21.77,
5128201,-0.01,-0.04,1.04,-2.14,6.96,-7.69,905.88,21.79,
5128239,-0.01,-0.06,0.98,-2.69,7.81,-7.39,905.86,21.77,
5128277,-0.01,-0.05,1.05,-2.2,6.71,-7.45,905.87,21.78,
5128316,0.01,-0.05,1.05,-2.81,7.63,-7.57,905.85,21.79,
5128354,0.0,-0.04,1.09,-2.81,6.29,-7.32,905.85,21.79,
5128392,0.0,-0.05,1.12,-3.11,6.71,-7.2,905.86,21.8,
5128430,0.0,-0.06,1.09,-3.3,6.9,-7.32,905.83,21.78,
5128480,-0.01,-0.04,1.09,-3.23,6.9,-7.2,905.83,21.77,
5128519,-0.0,-0.04,1.04,-3.3,7.14,-7.39,905.84,21.78,
5128557,0.01,-0.04,1.08,-2.99,6.9,-7.51,905.84,21.78,
5128595,0.02,-0.05,1.06,-3.3,6.71,-7.39,905.88,21.79,
5128634,-0.01,-0.06,1.06,-3.48,5.98,-7.39,905.82,21.8,
5128672,-0.0,-0.05,1.12,-3.85,4.76,-7.32,905.83,21.79,
5128710,0.02,-0.05,1.11,-4.52,4.21,-7.63,905.82,21.79,
5128748,-0.0,-0.05,1.11,-4.94,3.48,-7.57,905.85,21.8,
5128787,-0.0,-0.04,1.13,-5.68,2.81,-7.51,905.79,21.79,
5128837,0.0,-0.05,1.17,-5.68,2.26,-7.57,905.81,21.77,
5128875,-0.0,-0.05,1.2,-5.98,1.71,-7.45,905.8,21.78,
5128913,-0.01,-0.04,1.3,-5.55,0.18,-7.57,905.78,21.78,
5128952,-0.01,-0.04,1.29,-6.23,0.73,-7.69,905.72,21.78,
5128990,0.0,-0.01,1.4,-6.1,-0.37,-7.57,905.75,21.78,
5129028,-0.01,-0.03,1.42,-5.98,0.37,-7.69,905.73,21.78,
5129066,-0.02,-0.02,1.42,-5.92,-0.61,-7.81,905.7,21.78,
5129105,-0.02,-0.01,1.5,-5.8,0.31,-7.63,905.72,21.79,
5129143,-0.03,-0.02,1.43,-5.62,1.1,-7.57,905.78,21.79,
5129181,-0.03,-0.01,1.46,-5.31,1.1,-7.63,905.8,21.79,
5129231,-0.01,-0.02,1.43,-4.64,2.14,-7.75,905.75,21.78,
5129270,-0.01,-0.02,1.44,-4.52,2.56,-7.63,905.79,21.78,
5129308,-0.02,-0.03,1.35,-4.82,3.97,-7.63,905.76,21.78,
5129346,-0.01,-0.01,1.41,-4.82,3.48,-7.81,905.74,21.79,
5129385,-0.03,-0.03,1.37,-5.19,5.74,-7.93,905.69,21.78,
5129423,-0.03,-0.03,1.37,-5.13,4.52,-7.75,905.69,21.78,
5129461,-0.04,-0.02,1.39,-4.88,4.94,-7.75,905.72,21.78,
5129500,-0.01,-0.05,1.27,-5.25,5.37,-7.63,905.73,21.79,
5129538,-0.03,-0.03,1.29,-5.25,5.55,-7.51,905.67,21.78,
5129588,-0.05,-0.04,1.24,-5.0,6.9,-7.26,905.73,21.77,
5129626,-0.04,-0.03,1.27,-4.88,7.93,-7.45,905.75,21.78,
5129665,-0.02,-0.03,1.25,-5.07,9.83,-7.39,905.71,21.78,
5129703,-0.02,-0.04,1.27,-5.0,10.01,-7.14,905.76,21.8,
5129741,-0.02,-0.04,1.21,-5.07,10.07,-6.9,905.75,21.78,
5129779,-0.03,-0.03,1.19,-4.52,8.24,-6.47,905.72,21.77,
5129818,-0.02,-0.04,1.19,-4.27,7.69,-6.1,905.72,21.78,
5129856,0.0,-0.03,1.1,-4.64,6.29,-6.1,905.75,21.79,
5129894,-0.04,-0.02,1.18,-3.42,4.21,-6.04,905.78,21.78,
5129945,0.0,-0.06,1.17,-3.17,4.15,-5.74,905.72,21.77,
5129983,0.02,-0.04,1.27,-2.69,2.01,-5.86,905.7,21.78,
5130021,-0.01,-0.04,1.25,-2.93,1.28,-5.62,905.69,21.79,
5130059,-0.02,-0.05,1.2,-2.69,1.83,-5.68,905.66,21.78,
5130098,-0.0,-0.04,1.16,-3.3,2.26,-6.04,905.65,21.78,
5130136,0.0,-0.05,1.15,-3.3,3.23,-5.92,905.63,21.78,
5130174,0.0,-0.05,1.07,-3.42,3.36,-5.98,905.63,21.78,
5130213,0.0,-0.04,1.06,-2.99,3.91,-6.41,905.71,21.79,
5130251,-0.0,-0.05,1.04,-3.05,4.15,-6.29,905.6,21.78,
5130289,0.02,-0.06,1.04,-2.81,2.87,-6.41,905.62,21.8,
5130365,-0.01,-0.05,0.99,-3.36,2.75,-6.59,905.56,21.76,
5130404,0.0,-0.06,0.9,-4.46,3.23,-6.71,905.6,21.78,
5130442,-0.0,-0.06,0.87,-4.33,2.44,-7.08,905.51,21.78,
5130532,-0.02,-0.06,0.87,-4.46,1.95,-7.45,905.53,21.74,
5130570,-0.01,-0.07,0.85,-4.94,3.05,-7.57,905.49,21.76,
5130609,-0.01,-0.05,0.95,-4.82,1.95,-7.75,905.48,21.76,
5130647,-0.01,-0.05,1.0,-5.55,1.83,-7.81,905.48,21.76,
5130685,-0.03,-0.04,1.11,-5.98,2.2,-7.81,905.46,21.77,
5130724,-0.02,-0.05,1.15,-6.23,3.3,-8.0,905.51,21.77,
5130774,-0.01,-0.03,1.18,-6.41,2.38,-8.12,905.54,21.77,
5130812,-0.02,-0.03,1.2,-6.65,3.11,-8.18,905.54,21.76,
5130850,-0.01,-0.04,1.13,-6.41,3.23,-8.24,905.54,21.77,
5130888,-0.02,-0.03,1.18,-5.8,2.62,-8.36,905.51,21.78,
5130927,-0.03,-0.05,1.12,-6.1,2.26,-8.0,905.46,21.78,
5130965,-0.02,-0.04,1.2,-5.55,0.92,-8.24,905.49,21.77,
5131003,-0.04,-0.04,1.2,-5.8,1.71,-8.24,905.48,21.78,
5131042,-0.02,-0.05,1.22,-5.07,0.79,-7.87,905.47,21.78,
5131080,-0.02,-0.05,1.24,-5.07,-0.24,-8.06,905.44,21.77,
5131130,-0.03,-0.04,1.2,-4.82,-0.12,-7.87,905.45,21.77,
5131168,-0.02,-0.03,1.21,-4.27,-0.55,-8.12,905.42,21.78,
5131207,-0.03,-0.04,1.19,-4.52,-0.24,-8.0,905.47,21.78,
5131245,-0.03,-0.04,1.2,-3.91,-0.85,-7.93,905.49,21.78,
5131283,-0.03,-0.04,1.21,-3.78,0.31,-7.93,905.6,21.79,
5131322,-0.03,-0.05,1.18,-3.36,1.16,-8.18,905.57,21.77,
5131360,-0.04,-0.03,1.18,-3.3,1.1,-7.75,905.5,21.77,
5131398,-0.04,-0.03,1.17,-3.42,1.16,-7.69,905.5,21.77,
5131437,-0.03,-0.04,1.17,-3.78,1.83,-7.69,905.52,21.77,
5131475,-0.04,-0.03,1.21,-3.97,2.44,-7.51,905.45,21.76,
5131525,-0.03,-0.04,1.23,-3.85,2.38,-7.32,905.5,21.76,
5131563,-0.03,-0.02,1.23,-4.27,3.05,-7.32,905.48,21.76,
5131602,-0.04,-0.02,1.25,-4.39,2.99,-7.32,905.54,21.77,
5131640,-0.03,-0.04,1.23,-4.64,3.3,-7.14,905.46,21.78,
5131678,-0.04,-0.03,1.22,-4.7,2.87,-7.08,905.51,21.77,
5131717,-0.04,-0.02,1.23,-4.88,2.75,-6.71,905.45,21.77,
5131755,-0.02,-0.03,1.18,-5.25,2.38,-6.65,905.52,21.78,
5131793,-0.04,-0.02,1.2,-5.31,0.98,-6.41,905.42,21.77,
5131832,-0.05,-0.03,1.24,-5.25,2.14,-6.16,905.42,21.78,
5131882,-0.01,-0.02,1.27,-5.43,2.2,-6.35,905.43,21.77,
5131920,-0.06,-0.01,1.32,-5.43,2.62,-6.23,905.42,21.77,
5131958,-0.05,-0.02,1.35,-5.49,3.78,-6.04,905.43,21.77,
5131996,-0.04,-0.02,1.38,-5.55,4.94,-6.16,905.44,21.78,
5132035,-0.03,-0.02,1.37,-5.25,5.19,-6.04,905.44,21.78,
5132073,-0.04,-0.02,1.3,-5.74,5.62,-5.98,905.43,21.78,
5132111,-0.03,-0.0,1.28,-6.1,5.68,-5.98,905.45,21.78,
5132150,-0.04,-0.01,1.26,-6.29,5.74,-5.8,905.38,21.78,
5132188,-0.03,-0.01,1.28,-6.65,5.37,-5.68,905.4,21.77,
5132238,-0.03,-0.01,1.3,-7.02,5.07,-5.43,905.33,21.77,
5132277,-0.03,-0.0,1.35,-7.51,4.46,-5.25,905.3,21.78,
5132315,-0.03,0.01,1.36,-7.69,4.33,-5.07,905.33,21.77,
5132353,-0.03,0.01,1.36,-7.75,3.42,-5.13,905.39,21.78,
5132391,-0.04,0.01,1.42,-7.57,3.91,-4.82,905.33,21.79,
5132430,-0.02,0.01,1.39,-7.63,3.6,-4.52,905.36,21.78,
5132468,-0.03,0.01,1.4,-7.45,2.93,-4.52,905.29,21.77,
5132506,-0.02,0.02,1.39,-7.08,2.56,-4.46,905.28,21.77,
5132545,-0.01,0.01,1.42,-6.59,1.46,-4.03,905.34,21.78,
5132583,-0.01,0.01,1.43,-6.23,0.79,-4.15,905.32,21.78,
5132633,-0.01,0.02,1.44,-5.62,0.37,-3.85,905.32,21.78,
5132671,-0.0,0.03,1.44,-5.19,-0.31,-4.09,905.3,21.79,
5132709,-0.01,0.02,1.46,-4.58,-0.98,-3.97,905.31,21.78,
5132748,-0.03,0.02,1.46,-4.33,-0.73,-3.91,905.35,21.79,
5132786,-0.01,0.01,1.48,-4.09,-0.37,-4.03,905.28,21.79,
5132824,0.01,0.02,1.5,-3.91,-1.04,-4.09,905.28,21.79,
5132863,0.0,0.03,1.46,-3.54,-0.85,-4.09,905.29,21.79,
5132901,0.0,0.02,1.44,-3.11,0.43,-4.39,905.32,21.79,
5132939,0.01,0.02,1.41,-2.75,1.04,-4.58,905.21,21.8,
5132989,-0.01,-0.0,1.39,-2.26,1.34,-4.76,905.25,21.77,
5133028,-0.01,-0.0,1.35,-2.01,2.2,-5.13,905.24,21.78,
5133066,0.0,-0.0,1.33,-2.01,2.81,-5.37,905.19,21.8,
5133104,0.01,-0.0,1.3,-1.71,2.44,-5.31,905.2,21.79,
5133143,0.01,-0.01,1.27,-1.95,2.26,-5.25,905.2,21.79,
5133181,0.01,-0.02,1.23,-1.83,2.2,-5.55,905.17,21.78,
5133219,0.01,-0.03,1.15,-1.77,2.69,-5.62,905.21,21.79,
5133257,0.01,-0.03,1.13,-1.65,1.95,-5.68,905.15,21.79,
5133296,0.01,-0.03,1.11,-1.22,2.08,-5.8,905.19,21.8,
5133334,0.01,-0.04,1.04,-1.4,2.62,-5.98,905.1,21.8,
5133410,0.02,-0.04,1.02,-2.01,2.01,-6.41,905.08,21.75,
5133449,0.01,-0.03,1.07,-1.89,1.16,-6.47,905.03,21.78,
5133487,0.01,-0.04,1.0,-2.81,2.08,-6.65,905.15,21.78,
5133577,0.01,-0.05,1.01,-3.85,0.98,-6.96,904.93,21.75,
5133616,0.0,-0.02,1.1,-4.09,0.18,-7.08,905.01,21.76,
5133654,0.01,-0.04,1.08,-4.76,2.38,-7.32,905.02,21.77,
5133692,0.01,-0.02,1.09,-4.58,1.59,-7.69,905.04,21.78,
5133730,0.01,-0.04,1.12,-4.58,2.44,-7.87,905.01,21.77,
5133769,0.01,-0.05,1.08,-4.33,2.93,-8.24,905.09,21.78,
5133819,0.01,-0.05,1.08,-4.33,2.93,-8.54,904.98,21.76,
5133857,-0.01,-0.04,0.97,-4.58,2.99,-8.48,905.01,21.78,
5133895,0.0,-0.03,0.98,-4.27,2.5,-8.61,904.97,21.78,
5133934,0.01,-0.04,1.01,-4.21,3.17,-9.09,904.96,21.78,
5133972,-0.0,-0.03,1.0,-4.33,2.99,-9.16,904.96,21.78,
5134010,-0.0,-0.03,1.03,-4.94,3.11,-9.16,904.94,21.78,
5134049,-0.0,-0.03,1.09,-5.13,3.54,-9.7,904.91,21.77,
5134087,0.0,-0.03,1.15,-5.43,3.72,-9.52,904.91,21.79,
5134125,-0.01,-0.03,1.16,-5.49,2.93,-9.34,904.94,21.79,
5134175,-0.02,-0.01,1.16,-5.62,3.48,-9.7,904.91,21.77,
5134214,-0.02,0.01,1.18,-5.74,3.42,-9.89,904.83,21.77,
5134252,-0.01,0.0,1.24,-5.43,3.91,-9.52,904.84,21.79,
5134290,-0.0,-0.02,1.21,-5.49,4.39,-9.77,904.82,21.77,
5134329,-0.02,-0.02,1.27,-5.13,4.09,-9.7,904.83,21.79,
5134367,-0.02,-0.01,1.25,-5.07,3.91,-9.52,904.8,21.78,
5134405,-0.02,0.0,1.27,-4.64,3.23,-9.58,904.78,21.78,
5134444,-0.02,-0.0,1.22,-4.21,3.66,-9.46,904.81,21.78,
5134482,-0.02,-0.0,1.15,-4.09,3.97,-9.64,904.74,21.78,
5134520,-0.02,0.0,1.17,-3.85,4.33,-9.46,904.72,21.77,
5134570,-0.02,0.01,1.19,-3.48,5.13,-9.77,904.71,21.77,
5134609,-0.04,-0.0,1.2,-3.11,5.62,-9.77,904.73,21.77,
5134647,-0.03,-0.01,1.17,-3.05,7.02,-9.83,904.7,21.78,
5134685,-0.02,-0.01,1.14,-3.05,8.54,-10.13,904.71,21.78,
5134723,-0.02,0.01,1.15,-2.87,8.85,-9.95,904.74,21.78,
5134762,-0.01,0.03,1.14,-2.81,8.36,-9.83,904.7,21.78,
5134800,-0.04,0.03,1.13,-2.62,7.87,-9.58,904.72,21.78,
5134838,-0.02,0.0,1.22,-2.14,7.51,-9.34,904.65,21.77,
5134877,-0.02,-0.01,1.18,-2.08,7.63,-9.28,904.64,21.77,
5134927,-0.04,0.01,1.18,-1.34,5.8,-8.85,904.64,21.76,
5134965,-0.02,0.0,1.08,-0.92,6.23,-8.79,904.62,21.76,
5135003,-0.02,0.0,1.03,-0.67,5.31,-8.54,904.66,21.77,
5135042,-0.03,-0.01,1.02,0.0,4.39,-8.36,904.67,21.77,
5135080,-0.03,-0.02,0.96,-0.18,4.46,-8.24,904.61,21.77,
5135118,-0.03,-0.0,0.98,0.06,3.23,-8.24,904.57,21.77,
5135157,-0.02,-0.02,0.96,0.12,3.54,-8.12,904.62,21.77,
5135195,-0.03,-0.03,0.93,0.18,2.69,-8.0,904.59,21.76,
5135233,-0.02,-0.02,0.96,0.12,3.05,-8.18,904.53,21.76,
5135271,-0.01,-0.02,0.94,0.06,2.69,-8.3,904.52,21.76,
5135321,-0.02,-0.01,0.91,-0.37,2.5,-8.24,904.56,21.76,
5135360,-0.01,-0.02,0.92,-0.37,2.5,-8.36,904.57,21.78,
5135398,-0.01,-0.02,0.93,-0.85,2.2,-8.3,904.51,21.77,
5135436,-0.02,-0.03,0.94,-1.1,1.71,-8.36,904.54,21.76,
5135475,-0.02,-0.02,0.97,-1.28,1.53,-8.18,904.52,21.76,
5135513,-0.0,-0.02,0.93,-1.46,1.04,-8.24,904.54,21.76,
5135551,-0.03,-0.01,0.92,-1.71,0.0,-8.3,904.48,21.77,
5135589,-0.02,-0.02,0.94,-1.83,-0.12,-8.18,904.52,21.78,
5135628,-0.01,-0.03,0.92,-2.32,-0.12,-8.3,904.46,21.78,
5135678,-0.02,-0.02,0.99,-2.26,-0.12,-8.3,904.47,21.76,
5135716,-0.02,-0.02,0.98,-2.69,-0.31,-8.54,904.42,21.77,
5135754,-0.02,-0.01,1.03,-2.81,-0.12,-8.48,904.43,21.77,
5135792,-0.01,-0.01,1.01,-3.48,0.12,-8.67,904.4,21.77,
5135831,-0.02,-0.0,1.07,-3.36,-0.37,-8.79,904.44,21.76,
5135869,-0.02,-0.0,1.07,-3.48,0.37,-8.73,904.46,21.77,
5135907,-0.02,0.01,1.12,-3.48,0.49,-8.79,904.48,21.78,
5135946,-0.02,-0.01,1.12,-3.48,0.61,-8.73,904.5,21.78,
5135984,-0.03,-0.0,1.12,-3.48,0.37,-8.79,904.48,21.77,
5136034,-0.02,-0.01,1.1,-3.72,1.59,-8.61,904.52,21.76,
5136072,-0.01,-0.0,1.11,-3.23,0.85,-8.85,904.56,21.78,
5136110,-0.02,-0.0,1.09,-3.54,1.1,-8.67,904.48,21.77,
5136149,-0.01,-0.02,1.09,-3.17,0.85,-8.73,904.4,21.77,
5136187,-0.02,-0.01,1.09,-3.66,1.04,-8.91,904.47,21.77,
5136225,-0.02,-0.01,1.09,-3.36,0.85,-8.61,904.5,21.78,
5136264,-0.01,-0.01,1.08,-3.36,1.1,-8.67,904.47,21.78,
5136302,-0.02,-0.01,1.09,-3.42,0.55,-8.67,904.51,21.78,
5136340,-0.02,-0.02,1.08,-3.23,0.43,-8.61,904.44,21.78,
5136378,-0.02,-0.02,1.07,-3.17,-0.24,-8.61,904.44,21.78,
5136454,-0.02,-0.01,1.07,-3.48,-0.12,-8.3,904.44,21.74,
5136493,-0.02,-0.01,1.09,-3.91,0.18,-8.54,904.41,21.76,
5136531,-0.02,-0.01,1.13,-4.03,0.67,-8.67,904.46,21.77,
5136621,-0.02,0.0,1.2,-4.27,1.89,-8.54,904.45,21.73,
5136659,-0.01,0.0,1.2,-4.46,2.81,-8.48,904.44,21.75,
5136697,-0.03,0.01,1.22,-4.21,2.69,-8.85,904.42,21.75,
5136736,-0.03,-0.0,1.21,-4.64,4.09,-8.67,904.47,21.74,
5136774,-0.01,0.01,1.23,-4.46,4.27,-8.79,904.4,21.75,
5136812,-0.02,0.01,1.23,-4.76,4.52,-8.85,904.45,21.75,
5136862,-0.02,0.0,1.26,-4.7,4.46,-8.54,904.46,21.75,
5136901,-0.02,-0.01,1.24,-4.58,4.7,-8.67,904.49,21.77,
5136939,-0.02,0.01,1.23,-4.7,4.27,-8.67,904.44,21.75,
5136977,-0.02,0.01,1.22,-4.76,3.91,-8.67,904.4,21.76,
5137015,-0.03,0.0,1.21,-4.76,3.6,-8.54,904.41,21.75,
5137054,-0.01,-0.01,1.2,-4.82,3.85,-8.61,904.41,21.77,
5137092,-0.01,0.0,1.2,-4.82,3.11,-8.42,904.44,21.77,
5137130,-0.02,0.0,1.21,-4.88,3.42,-8.48,904.37,21.77,
5137169,-0.03,0.0,1.19,-4.88,3.05,-8.3,904.44,21.78,
5137218,-0.02,-0.0,1.18,-5.13,2.38,-8.24,904.39,21.74,
5137257,-0.03,0.01,1.21,-5.13,1.59,-8.18,904.37,21.76,
5137295,-0.02,0.01,1.22,-5.07,1.46,-8.12,904.39,21.77,
5137333,-0.01,0.01,1.24,-4.94,0.85,-8.18,904.42,21.77,
5137372,-0.03,0.01,1.27,-4.88,1.28,-8.0,904.42,21.78,
5137410,-0.02,0.0,1.26,-4.88,2.08,-8.06,904.42,21.77,
5137448,-0.02,0.0,1.27,-4.7,2.01,-7.87,904.47,21.78,
5137486,-0.03,0.0,1.21,-4.52,2.56,-8.0,904.45,21.78,
5137525,-0.02,0.01,1.21,-4.39,3.05,-8.24,904.44,21.79,
5137563,-0.0,-0.0,1.17,-4.39,3.42,-8.36,904.44,21.79,
5137613,-0.02,0.0,1.16,-4.33,3.23,-8.18,904.45,21.78,
5137651,-0.02,-0.0,1.16,-4.58,4.21,-8.36,904.47,21.78,
5137690,-0.01,-0.01,1.17,-4.7,4.27,-8.54,904.4,21.77,
5137728,-0.01,-0.01,1.19,-4.82,4.03,-8.3,904.4,21.78,
5137766,-0.01,-0.01,1.15,-5.0,4.27,-8.48,904.45,21.79,
5137804,-0.02,-0.01,1.14,-4.7,4.7,-8.67,904.47,21.79,
5137843,-0.01,-0.01,1.1,-5.19,5.49,-8.85,904.45,21.79,
5137881,-0.01,-0.0,1.12,-4.7,5.0,-8.85,904.45,21.78,
5137919,-0.02,-0.02,1.1,-4.94,5.68,-8.67,904.42,21.78,
5137969,-0.01,-0.01,1.11,-4.58,4.46,-8.61,904.43,21.78,
5138007,-0.01,-0.01,1.1,-4.58,4.94,-8.54,904.45,21.78,
5138046,-0.01,-0.01,1.09,-4.33,3.78,-8.48,904.42,21.79,
5138084,-0.02,-0.01,1.11,-4.52,3.48,-8.54,904.43,21.78,
5138122,-0.02,-0.02,1.07,-4.27,3.54,-8.54,904.5,21.79,
5138160,-0.01,-0.01,1.08,-4.52,3.48,-8.54,904.41,21.78,
5138199,-0.02,-0.01,1.07,-4.33,3.17,-8.36,904.41,21.78,
5138237,-0.01,-0.01,1.09,-4.27,3.17,-8.42,904.38,21.79,
5138275,-0.01,-0.01,1.1,-4.52,3.17,-8.54,904.35,21.79,
5138325,-0.0,-0.01,1.12,-4.58,2.99,-8.36,904.46,21.77,
5138364,-0.02,-0.01,1.09,-4.64,2.81,-8.67,904.43,21.79,
5138402,-0.02,-0.0,1.12,-4.39,2.99,-8.48,904.46,21.79,
5138440,-0.01,-0.0,1.11,-4.52,3.23,-8.79,904.44,21.79,
5138479,-0.0,-0.0,1.13,-4.46,2.56,-8.73,904.41,21.79,
5138517,-0.02,0.0,1.11,-4.52,3.05,-8.67,904.41,21.78,
5138555,-0.02,0.0,1.12,-4.46,3.23,-8.79,904.42,21.79,
5138593,-0.01,0.0,1.12,-4.58,3.3,-8.73,904.39,21.79,
5138632,-0.01,-0.0,1.13,-4.64,3.36,-8.91,904.43,21.79,
5138670,-0.01,0.01,1.14,-4.76,3.42,-8.85,904.43,21.79,
5138720,-0.02,0.01,1.09,-5.0,3.97,-9.16,904.41,21.77,
5138758,-0.01,0.01,1.11,-5.19,3.91,-9.09,904.45,21.78,
5138796,-0.02,0.0,1.1,-5.31,4.33,-9.34,904.43,21.79,
5138835,-0.01,0.0,1.11,-5.49,4.33,-9.28,904.43,21.79,
5138873,-0.01,0.0,1.11,-5.49,4.39,-9.52,904.4,21.78,
5138911,-0.01,-0.0,1.11,-5.68,4.39,-9.52,904.49,21.79,
5138950,-0.01,0.01,1.12,-5.74,4.33,-9.58,904.47,21.79,
5138988,-0.01,0.01,1.14,-5.98,4.64,-9.58,904.42,21.77,
5139026,-0.01,0.01,1.13,-5.92,5.07,-9.7,904.47,21.78,
5139076,-0.02,0.02,1.13,-5.98,4.94,-9.77,904.4,21.78,
5139114,-0.02,0.01,1.11,-6.35,5.25,-9.83,904.43,21.77,
5139152,-0.02,0.02,1.11,-6.29,4.52,-9.7,904.39,21.78,
5139191,-0.01,0.01,1.13,-6.29,4.52,-9.52,904.4,21.77,
5139229,-0.03,0.01,1.11,-6.23,3.3,-9.52,904.42,21.78,
5139267,-0.03,0.02,1.17,-6.35,2.93,-9.28,904.44,21.77,
5139305,-0.01,0.02,1.13,-6.47,2.75,-9.16,904.37,21.77,
5139344,-0.02,0.03,1.19,-6.47,2.14,-8.85,904.4,21.78,
5139382,-0.01,0.03,1.17,-6.53,1.53,-8.97,904.45,21.78,
5139420,-0.02,0.03,1.21,-6.1,1.04,-9.09,904.38,21.78,
5139496,-0.02,0.04,1.24,-6.35,0.18,-8.54,904.41,21.74,
5139535,-0.04,0.04,1.26,-6.16,0.37,-8.48,904.41,21.76,
5139573,-0.03,0.03,1.26,-6.1,1.1,-8.54,904.43,21.75,
5139663,-0.03,0.06,1.3,-5.49,1.65,-8.3,904.43,21.74,
5139702,-0.02,0.06,1.42,-4.82,1.16,-8.36,904.43,21.74,
5139740,-0.03,0.04,1.36,-5.25,2.56,-8.24,904.46,21.75,
5139778,-0.03,0.06,1.39,-4.94,1.83,-8.18,904.41,21.73,
5139817,-0.02,0.06,1.37,-5.07,2.87,-8.18,904.44,21.75,
5139855,-0.04,0.06,1.27,-4.82,2.93,-8.06,904.44,21.76,
5139905,-0.02,0.03,1.33,-4.58,3.36,-7.69,904.46,21.75,
5139943,-0.02,0.03,1.25,-4.27,2.32,-7.81,904.45,21.76,
5139981,-0.03,0.06,1.36,-3.91,2.2,-7.63,904.5,21.76,
5140020,-0.01,0.04,1.27,-3.72,3.05,-7.45,904.49,21.76,
5140058,-0.01,0.05,1.36,-3.48,0.67,-7.45,904.44,21.76,
5140096,-0.01,0.04,1.33,-3.48,0.37,-6.96,904.46,21.77,
5140135,-0.03,0.05,1.37,-3.17,-1.22,-6.84,904.44,21.76,
5140173,-0.01,0.05,1.37,-3.66,-0.61,-6.59,904.43,21.77,
5140211,0.0,0.06,1.36,-3.91,-2.01,-6.47,904.36,21.77,
5140249,-0.03,0.05,1.38,-3.91,-2.01,-6.47,904.48,21.78,
5140299,-0.01,0.05,1.36,-4.21,-2.26,-6.35,904.46,21.76,
5140338,-0.01,0.04,1.4,-3.91,-1.53,-6.65,904.48,21.78,
5140376,0.0,0.02,1.34,-3.66,-0.85,-6.65,904.49,21.76,
5140414,-0.01,0.03,1.37,-3.36,-0.55,-6.84,904.46,21.77,
5140453,0.0,0.02,1.33,-2.93,1.46,-7.2,904.51,21.77,
5140491,0.0,0.03,1.37,-2.08,0.73,-7.51,904.49,21.78,
5140529,-0.01,0.03,1.39,-1.65,1.22,-7.39,904.5,21.77,
5140567,-0.03,0.04,1.34,-1.34,1.16,-7.51,904.52,21.77,
5140606,-0.0,0.04,1.42,-1.22,1.34,-7.26,904.45,21.78,
5140656,0.0,0.03,1.39,-1.22,0.61,-7.2,904.43,21.76,
5140694,-0.02,0.05,1.42,-1.53,1.28,-6.9,904.42,21.77,
5140732,-0.01,0.04,1.33,-2.08,2.26,-7.14,904.46,21.78,
5140770,-0.02,0.04,1.4,-2.01,0.85,-7.14,904.45,21.77,
5140809,-0.02,0.0,1.3,-2.26,2.69,-6.96,904.42,21.77,
5140847,0.0,0.02,1.33,-1.95,1.83,-7.08,904.48,21.78,
5140885,0.01,0.02,1.3,-1.95,3.48,-7.02,904.44,21.77,
5140924,0.02,0.01,1.23,-1.46,2.69,-6.84,904.43,21.78,
5140962,-0.01,-0.0,1.22,-1.46,2.75,-6.96,904.44,21.76,
5141000,0.0,-0.02,1.16,-1.59,3.48,-7.14,904.4,21.78,
5141050,-0.0,-0.0,1.21,-1.71,3.36,-7.32,904.39,21.77,
5141088,0.01,-0.01,1.16,-2.2,4.09,-7.32,904.37,21.78,
5141127,0.01,-0.0,1.2,-2.44,3.91,-7.63,904.42,21.76,
5141165,0.01,-0.01,1.19,-2.69,4.58,-7.63,904.42,21.77,
5141203,-0.01,-0.0,1.21,-3.11,4.27,-7.81,904.39,21.77,
5141242,0.01,-0.01,1.21,-3.23,5.0,-7.63,904.38,21.77,
5141280,0.01,-0.01,1.19,-3.48,4.7,-7.93,904.33,21.78,
5141318,0.01,-0.0,1.22,-3.85,4.46,-7.87,904.39,21.78,
5141356,-0.0,0.0,1.22,-3.91,4.33,-7.81,904.38,21.77,
5141406,0.01,-0.0,1.23,-3.72,3.36,-7.63,904.39,21.77,
5141445,-0.01,-0.0,1.23,-3.91,2.44,-7.81,904.29,21.77,
5141483,-0.01,-0.01,1.22,-3.91,1.95,-7.45,904.37,21.77,
5141521,0.01,-0.01,1.21,-3.78,1.04,-7.63,904.31,21.78,
5141559,0.01,-0.0,1.2,-3.97,1.4,-7.57,904.34,21.78,
5141598,0.01,-0.01,1.2,-4.09,-0.06,-7.26,904.33,21.77,
5141636,-0.01,-0.01,1.22,-4.15,0.0,-7.39,904.31,21.78,
5141674,-0.01,-0.01,1.24,-4.03,-0.43,-7.45,904.31,21.77,
5141712,-0.01,0.0,1.26,-4.03,-0.73,-7.2,904.35,21.78,
5141762,-0.02,-0.0,1.26,-3.85,-0.61,-7.32,904.31,21.76,
5141801,-0.01,-0.0,1.27,-3.97,0.49,-7.32,904.31,21.78,
5141839,0.01,-0.01,1.25,-3.85,0.18,-7.39,904.35,21.77,
5141877,-0.02,-0.01,1.22,-3.78,0.67,-7.2,904.33,21.78,
5141915,-0.02,-0.01,1.19,-3.42,1.16,-7.2,904.29,21.78,
5141954,-0.01,-0.01,1.2,-3.54,1.28,-7.26,904.34,21.79,
5141992,-0.02,-0.02,1.16,-3.42,0.67,-7.2,904.31,21.79,
5142030,-0.02,-0.01,1.17,-3.54,0.79,-7.2,904.26,21.77,
5142068,-0.02,-0.01,1.17,-3.54,1.22,-7.2,904.3,21.79,
5142107,-0.0,-0.02,1.17,-3.48,1.4,-7.14,904.29,21.78,
5142157,-0.02,-0.02,1.16,-3.54,1.1,-6.9,904.27,21.76,
5142195,-0.01,-0.02,1.13,-3.97,1.16,-6.9,904.28,21.78,
5142233,-0.02,-0.02,1.14,-3.97,0.85,-6.9,904.27,21.77,
5142272,-0.02,-0.02,1.11,-4.33,0.55,-6.77,904.34,21.77,
5142310,-0.02,-0.02,1.12,-4.52,0.06,-6.77,904.23,21.77,
5142348,-0.02,-0.01,1.12,-4.94,0.0,-6.59,904.23,21.78,
5142386,-0.02,-0.02,1.14,-5.0,0.0,-6.47,904.21,21.76,
5142425,-0.01,-0.01,1.17,-5.07,0.31,-6.59,904.21,21.78,
5142463,-0.02,-0.01,1.19,-4.88,0.24,-6.59,904.2,21.77,
5142539,-0.02,-0.01,1.19,-4.64,0.06,-6.35,904.22,21.74,
5142577,-0.01,-0.0,1.19,-4.39,0.43,-6.53,904.28,21.76,
5142615,-0.01,-0.01,1.19,-4.39,0.61,-6.53,904.19,21.76,
5142707,-0.01,-0.01,1.18,-4.7,1.22,-6.47,904.14,21.72,
5142745,-0.02,-0.02,1.17,-4.88,1.65,-6.47,904.2,21.74,
5142783,-0.02,-0.01,1.17,-5.0,1.77,-6.47,904.19,21.75,
5142822,-0.0,-0.01,1.18,-5.43,2.14,-6.35,904.14,21.75,
5142860,-0.0,-0.0,1.22,-5.8,1.28,-6.29,904.15,21.74,
5142898,-0.03,-0.0,1.19,-6.41,1.71,-6.16,904.15,21.77,
5142948,-0.01,0.0,1.26,-6.35,1.53,-6.04,904.15,21.75,
5142986,0.0,-0.01,1.27,-6.29,1.89,-6.23,904.08,21.75,
5143025,-0.01,0.0,1.28,-5.92,0.79,-5.92,904.13,21.77,
5143063,-0.01,0.01,1.29,-5.86,1.83,-5.92,904.14,21.76,
5143101,0.0,0.01,1.31,-5.49,1.59,-5.92,904.12,21.75,
5143140,-0.0,0.0,1.31,-5.31,1.89,-5.74,904.13,21.75,
5143178,-0.01,0.0,1.3,-4.94,1.89,-5.74,904.13,21.77,
5143216,-0.0,0.0,1.29,-4.7,3.23,-6.04,904.09,21.76,
5143255,0.0,0.01,1.27,-4.39,3.36,-5.98,904.09,21.77,
5143293,-0.01,0.01,1.28,-3.85,3.6,-5.98,904.12,21.76,
5143343,0.0,0.01,1.23,-3.85,4.21,-6.16,904.07,21.75,
5143381,-0.0,0.01,1.23,-3.78,4.46,-6.23,904.08,21.76,
5143419,-0.0,0.0,1.21,-3.23,4.15,-5.98,904.07,21.77,
5143458,-0.01,0.01,1.24,-3.05,4.03,-5.98,904.03,21.77,
5143496,-0.01,-0.01,1.18,-2.99,4.76,-6.1,904.07,21.78,
5143534,-0.02,-0.0,1.17,-2.99,3.91,-5.98,904.06,21.77,
5143572,-0.0,-0.01,1.14,-2.81,4.52,-5.98,904.04,21.77,
5143611,0.0,0.01,1.17,-2.93,4.27,-6.04,904.04,21.77,
5143649,-0.01,0.02,1.18,-2.81,4.58,-6.04,903.92,21.76,
5143699,-0.01,-0.01,1.17,-2.99,4.58,-5.98,903.98,21.76,
5143737,-0.0,-0.01,1.2,-2.87,5.07,-6.29,903.98,21.77,
5143776,0.01,0.0,1.2,-2.87,5.07,-6.16,903.97,21.77,
5143814,0.0,-0.0,1.17,-2.5,4.64,-6.16,903.94,21.78,
5143852,-0.01,-0.01,1.12,-2.26,4.27,-6.35,903.99,21.75,
5143890,-0.0,-0.02,1.05,-2.26,5.0,-6.35,903.91,21.77,
5143928,0.0,-0.01,1.07,-2.01,4.76,-6.41,903.95,21.77,
5143967,-0.01,-0.02,1.06,-1.95,4.82,-6.59,903.95,21.77,
5144005,-0.01,-0.02,1.05,-1.65,5.13,-6.65,903.95,21.77,
5144043,-0.01,-0.03,1.04,-1.71,5.8,-6.84,903.92,21.77,
5144093,0.0,-0.02,1.03,-1.65,5.31,-7.08,903.9,21.77,
5144132,-0.01,-0.03,0.98,-1.28,6.65,-6.96,903.94,21.77,
5144170,0.0,-0.03,0.96,-1.28,6.71,-7.08,903.88,21.75,
5144208,0.01,-0.03,0.98,-1.22,5.86,-7.2,903.86,21.78,
5144246,-0.01,-0.04,0.95,-1.46,5.19,-7.26,903.85,21.77,
5144285,0.0,-0.03,0.99,-1.16,4.76,-7.32,903.89,21.79,
5144323,0.01,-0.03,0.97,-1.46,4.82,-7.51,903.81,21.77,
5144361,0.0,-0.03,0.98,-1.71,3.66,-7.51,903.8,21.78,
5144400,-0.0,-0.04,0.94,-2.01,3.78,-7.39,903.83,21.78,
5144450,0.0,-0.03,0.98,-2.81,2.44,-7.39,903.74,21.77,
5144488,0.0,-0.03,0.99,-3.91,2.5,-7.26,903.75,21.76,
5144526,0.0,-0.03,1.02,-4.33,1.1,-7.51,903.7,21.77,
5144565,-0.0,-0.03,1.06,-5.25,0.73,-7.26,903.7,21.77,
5144603,-0.01,-0.03,1.05,-5.74,0.55,-7.32,903.69,21.78,
5144641,0.01,-0.02,1.07,-6.41,0.85,-7.32,903.67,21.77,
5144679,0.01,-0.02,1.09,-6.53,0.49,-7.63,903.65,21.77,
5144718,-0.0,-0.02,1.05,-6.77,1.4,-7.69,903.67,21.79,
5144756,0.0,-0.01,1.09,-6.77,1.4,-7.87,903.65,21.77,
5144794,0.02,-0.02,1.13,-7.02,2.32,-8.12,903.67,21.78,
5144844,0.0,-0.01,1.12,-7.2,2.08,-8.3,903.65,21.76,
5144882,-0.01,-0.01,1.12,-7.2,2.75,-8.54,903.67,21.77,
5144921,0.01,-0.01,1.12,-7.14,3.72,-8.97,903.7,21.78,
5144959,0.01,-0.01,1.16,-7.02,3.11,-9.03,903.58,21.78,
5144997,0.0,-0.02,1.14,-7.26,2.87,-8.91,903.64,21.78,
5145036,0.0,-0.0,1.16,-7.02,2.44,-9.09,903.59,21.77,
5145074,0.0,-0.0,1.15,-7.45,2.5,-8.73,903.55,21.77,
5145112,0.0,0.01,1.17,-7.08,1.28,-8.85,903.58,21.78,
5145151,-0.01,0.0,1.19,-7.2,1.4,-8.85,903.58,21.77,
5145200,-0.0,-0.0,1.2,-6.77,1.46,-8.85,903.61,21.77,
5145239,0.01,0.01,1.22,-6.71,1.59,-8.97,903.57,21.78,
5145277,-0.0,0.01,1.26,-6.29,0.92,-9.22,903.52,21.78,
5145315,-0.01,0.0,1.25,-6.47,1.34,-9.16,903.53,21.78,
5145353,0.0,0.01,1.26,-6.04,0.92,-8.97,903.52,21.77,
5145392,-0.01,0.01,1.28,-6.04,0.98,-9.22,903.51,21.78,
5145430,-0.01,0.01,1.27,-5.74,0.98,-9.16,903.56,21.78,
5145468,0.0,0.01,1.32,-5.13,0.73,-9.34,903.51,21.77,
5145507,-0.01,0.02,1.32,-4.52,0.73,-9.34,903.51,21.77,
5145545,0.0,0.04,1.35,-4.21,0.61,-9.52,903.49,21.78,
5145621,-0.01,0.02,1.34,-3.78,0.43,-9.4,903.44,21.74,
5145659,-0.01,0.03,1.37,-3.36,0.49,-9.09,903.42,21.76,
5145697,0.0,0.03,1.36,-3.54,0.67,-9.16,903.39,21.76,
5145787,-0.01,0.03,1.36,-2.69,0.31,-8.91,903.45,21.72,
5145826,-0.01,0.03,1.33,-2.62,0.67,-9.09,903.42,21.74,
5145864,0.0,0.03,1.37,-2.26,0.92,-9.22,903.43,21.73,
5145902,-0.02,0.02,1.3,-2.14,1.89,-9.22,903.4,21.74,
5145940,-0.01,0.03,1.34,-1.83,1.65,-9.52,903.38,21.75,
5145979,-0.01,0.02,1.32,-1.83,2.87,-9.34,903.33,21.74,
5146029,-0.02,0.02,1.33,-1.4,2.87,-9.28,903.33,21.74,
5146067,-0.01,0.02,1.32,-1.4,3.85,-9.4,903.37,21.74,
5146105,-0.02,0.03,1.28,-1.34,3.85,-9.34,903.37,21.76,
5146144,-0.03,0.02,1.32,-1.1,4.21,-9.16,903.37,21.75,
5146182,-0.01,0.0,1.28,-1.1,4.64,-9.46,903.32,21.75,
5146220,-0.01,0.02,1.29,-0.79,4.39,-9.28,903.24,21.75,
5146258,-0.02,0.01,1.24,-0.85,4.82,-8.91,903.28,21.76,
5146296,-0.01,0.01,1.23,-0.98,4.39,-8.91,903.28,21.76,
5146335,-0.02,0.0,1.23,-0.92,4.03,-8.61,903.32,21.77,
5146373,-0.02,-0.01,1.18,-1.1,3.85,-8.54,903.22,21.76,
5146423,-0.02,-0.01,1.15,-1.22,2.81,-8.42,903.23,21.74,
5146461,-0.02,-0.01,1.08,-1.53,2.93,-8.42,903.26,21.74,
5146500,-0.01,-0.02,1.06,-1.71,2.08,-8.18,903.25,21.76,
5146538,-0.02,-0.03,1.01,-2.32,2.81,-8.12,903.18,21.76,
5146576,-0.03,-0.03,0.99,-2.5,2.01,-8.3,903.15,21.76,
5146614,-0.02,-0.02,1.03,-2.56,2.08,-8.18,903.17,21.75,
5146653,-0.02,-0.02,1.03,-3.05,1.71,-8.18,903.13,21.77,
5146691,-0.02,-0.01,1.06,-3.42,1.22,-8.0,903.08,21.77,
5146729,-0.02,-0.02,1.09,-3.54,1.53,-8.0,903.12,21.78,
5146779,-0.01,-0.01,1.1,-3.97,1.04,-7.87,903.14,21.75,
5146818,-0.02,-0.0,1.14,-3.97,0.98,-7.81,903.07,21.76,
5146856,-0.02,-0.01,1.11,-4.15,1.1,-7.87,903.04,21.74,
5146894,-0.01,-0.01,1.13,-4.21,1.04,-8.12,903.08,21.77,
5146932,-0.03,-0.0,1.13,-4.15,1.59,-7.93,903.1,21.77,
5146971,-0.01,0.0,1.18,-3.66,1.89,-8.0,903.05,21.77,
5147009,-0.0,-0.01,1.13,-3.72,2.26,-8.0,903.08,21.77,
5147047,-0.02,0.0,1.15,-3.36,1.4,-7.81,902.95,21.77,
5147085,-0.02,-0.01,1.14,-2.99,2.01,-7.45,903.04,21.78,
5147135,-0.02,-0.01,1.11,-2.93,1.89,-7.69,903.08,21.77,
5147174,-0.01,-0.0,1.13,-2.81,2.01,-7.69,902.98,21.76,
5147212,-0.01,-0.0,1.14,-2.69,2.01,-7.45,903.02,21.77,
5147250,-0.01,0.0,1.15,-2.69,2.14,-7.51,902.95,21.77,
5147288,-0.03,0.0,1.15,-2.62,2.2,-7.32,902.95,21.78,
5147327,-0.03,0.01,1.15,-2.38,2.32,-7.32,902.93,21.78,
5147365,-0.02,0.0,1.14,-2.56,2.5,-7.32,902.92,21.76,
5147403,-0.01,0.01,1.16,-2.75,2.62,-7.26,902.92,21.78,
5147442,-0.02,0.0,1.17,-2.56,2.87,-7.2,902.86,21.77,
5147480,-0.02,-0.0,1.14,-2.26,3.3,-7.08,902.88,21.78,
5147530,-0.02,-0.0,1.12,-1.83,3.3,-7.08,902.86,21.77,
5147568,-0.02,0.0,1.1,-1.46,4.03,-7.08,902.91,21.78,
5147606,-0.01,-0.0,1.09,-1.22,3.48,-7.02,902.84,21.77,
5147645,-0.02,-0.01,1.06,-1.28,4.27,-6.96,902.83,21.78,
5147683,-0.02,-0.01,1.07,-1.53,4.33,-7.02,902.81,21.78,
5147721,-0.01,-0.01,1.1,-1.22,4.76,-7.02,902.83,21.78,
5147759,-0.02,-0.01,1.04,-1.28,5.0,-7.02,902.83,21.78,
5147798,-0.04,0.0,1.1,-0.98,4.52,-6.77,902.78,21.77,
5147836,-0.0,-0.01,1.07,-1.16,5.13,-6.96,902.8,21.78,
5147886,-0.01,0.01,1.09,-0.92,4.58,-6.71,902.78,21.77,
5147924,-0.01,0.0,1.09,-0.98,4.64,-6.77,902.76,21.78,
5147963,-0.01,-0.01,1.1,-0.79,3.54,-6.47,902.72,21.78,
5148001,-0.02,-0.01,1.07,-1.04,3.36,-6.35,902.69,21.78,
5148039,-0.01,-0.0,1.07,-0.85,2.5,-6.41,902.7,21.79,
5148077,-0.02,-0.01,1.01,-1.16,2.14,-6.23,902.66,21.78,
5148116,-0.0,-0.01,1.01,-1.46,0.92,-6.29,902.68,21.79,
5148154,-0.02,-0.01,1.0,-1.71,1.34,-6.16,902.67,21.78,
5148192,-0.01,-0.02,1.0,-1.83,0.85,-6.16,902.71,21.78,
5148242,-0.01,-0.01,1.04,-2.14,0.61,-6.04,902.68,21.78,
5148281,-0.01,-0.01,1.07,-1.95,0.06,-6.16,902.63,21.78,
5148319,-0.02,-0.02,1.06,-2.26,0.18,-6.16,902.61,21.78,
5148357,-0.01,-0.01,1.08,-2.2,0.06,-6.16,902.61,21.77,
5148395,-0.0,-0.01,1.06,-2.38,0.49,-6.16,902.66,21.79,
5148434,-0.01,-0.0,1.06,-2.44,0.12,-6.16,902.58,21.78,
5148472,-0.02,-0.01,1.07,-2.5,0.67,-6.1,902.6,21.78,
5148510,-0.02,-0.01,1.07,-2.56,1.4,-6.16,902.6,21.79,
5148548,-0.01,-0.01,1.08,-2.5,2.08,-6.41,902.6,21.79,
5148587,-0.01,-0.01,1.09,-2.44,2.69,-6.41,902.61,21.78,
5148663,-0.01,-0.01,1.08,-2.08,4.09,-6.47,902.6,21.76,
5148701,-0.01,-0.0,1.08,-1.89,4.33,-6.47,902.53,21.77,
5148739,-0.01,-0.02,1.06,-1.65,5.74,-6.47,902.55,21.78,
5148829,-0.01,-0.02,1.01,-1.46,5.62,-6.53,902.53,21.73,
5148868,0.0,-0.02,0.99,-1.28,5.25,-6.47,902.54,21.75,
5148906,0.0,-0.02,0.97,-1.4,4.82,-6.47,902.62,21.76,
5148944,-0.02,-0.01,0.96,-1.28,3.72,-6.29,902.5,21.77,
5148982,-0.02,-0.03,0.96,-1.53,4.09,-6.04,902.49,21.76,
5149021,-0.01,-0.02,0.96,-1.83,2.93,-6.23,902.5,21.77,
5149071,-0.0,-0.03,0.95,-2.5,2.69,-6.1,902.43,21.76,
5149109,0.01,-0.02,0.96,-3.05,1.77,-6.16,902.4,21.76,
5149147,0.0,-0.01,1.02,-3.66,1.22,-6.23,902.43,21.77,
5149186,0.01,-0.02,0.99,-4.09,1.4,-6.1,902.44,21.78,
5149224,-0.01,0.0,1.09,-4.21,1.04,-6.29,902.43,21.77,
5149262,-0.01,-0.0,1.07,-4.76,2.5,-6.29,902.4,21.76,
5149300,-0.0,0.0,1.14,-4.64,2.2,-6.71,902.41,21.77,
5149339,0.01,-0.01,1.17,-5.25,3.78,-7.02,902.42,21.78,
5149377,0.01,-0.0,1.18,-5.07,4.09,-7.39,902.39,21.77,
5149427,-0.0,0.01,1.17,-5.25,5.07,-7.51,902.41,21.77,
5149465,-0.0,0.01,1.16,-5.07,5.49,-7.81,902.33,21.77,
5149503,-0.02,-0.0,1.13,-4.82,5.92,-7.81,902.39,21.77,
5149542,-0.01,-0.02,1.13,-4.7,6.41,-8.06,902.41,21.78,
5149580,0.0,-0.0,1.13,-4.52,7.08,-8.24,902.37,21.76,
5149618,0.0,0.0,1.17,-4.03,7.08,-8.67,902.42,21.78,
5149657,-0.01,-0.01,1.12,-3.97,6.53,-8.24,902.34,21.78,
5149695,-0.01,-0.02,1.09,-3.6,5.92,-8.48,902.33,21.77,
5149733,-0.01,-0.01,1.05,-3.36,5.43,-8.3,902.32,21.79,
5149772,-0.02,-0.01,0.97,-3.23,5.07,-8.3,902.27,21.77,
5149822,0.0,-0.01,1.0,-2.69,3.3,-8.18,902.28,21.77,
5149860,-0.0,-0.04,0.93,-2.81,3.23,-8.18,902.31,21.77,
5149898,-0.01,-0.02,1.0,-2.5,2.14,-8.0,902.26,21.77,
5149936,-0.01,-0.03,1.0,-2.62,2.38,-8.12,902.23,21.77,
5149975,-0.01,-0.01,1.04,-2.75,1.59,-8.24,902.31,21.78,
5150013,-0.01,-0.01,1.05,-2.5,2.01,-8.42,902.21,21.77,
5150051,-0.0,-0.02,1.04,-2.81,1.53,-8.36,902.28,21.78,
5150089,-0.0,-0.02,1.04,-2.69,1.16,-8.36,902.19,21.76,
5150128,-0.01,-0.01,1.04,-2.99,0.18,-8.42,902.2,21.77,
5150178,-0.01,0.01,1.07,-3.17,-0.73,-8.12,902.21,21.77,
5150216,-0.03,0.01,1.09,-3.05,-1.71,-8.18,902.22,21.78,
5150254,-0.02,0.01,1.17,-3.11,-2.14,-8.18,902.2,21.78,
5150293,-0.02,0.0,1.18,-3.54,-1.46,-8.3,902.13,21.77,
5150331,-0.01,0.03,1.23,-4.09,-1.53,-8.3,902.15,21.77,
5150369,-0.02,0.03,1.2,-4.58,-0.92,-8.42,902.19,21.78,
5150407,-0.02,0.02,1.2,-4.82,-0.24,-8.61,902.19,21.78,
5150446,-0.02,0.02,1.2,-5.19,0.0,-8.36,902.24,21.78,
5150484,-0.04,0.02,1.23,-4.76,0.24,-8.42,902.16,21.78,
5150522,-0.03,0.02,1.22,-4.46,0.61,-8.61,902.19,21.78,
5150572,-0.02,0.03,1.28,-4.15,1.53,-8.61,902.19,21.77,
5150611,-0.03,0.02,1.3,-3.97,1.46,-8.42,902.16,21.78,
5150649,-0.03,0.01,1.29,-3.78,2.44,-8.42,902.2,21.77,
5150687,-0.02,0.02,1.27,-3.66,2.75,-8.42,902.16,21.77,
5150725,-0.03,0.03,1.26,-3.78,3.3,-8.18,902.2,21.77,
5150764,-0.02,0.03,1.25,-3.36,3.05,-8.48,902.13,21.77,
5150802,-0.02,0.01,1.26,-3.23,3.17,-8.24,902.17,21.76,
5150840,-0.03,0.01,1.23,-3.3,3.05,-8.12,902.12,21.78,
5150879,-0.03,0.01,1.28,-2.99,3.48,-8.0,902.14,21.77,
5150929,-0.02,0.01,1.22,-2.87,4.15,-8.18,902.18,21.75,
5150967,-0.03,0.01,1.22,-2.75,3.85,-7.93,902.11,21.77,
5151005,-0.04,-0.01,1.17,-2.87,4.27,-7.81,902.11,21.77,
5151043,-0.02,0.01,1.19,-2.81,3.91,-7.75,902.17,21.78,
5151082,-0.02,0.01,1.19,-2.69,3.78,-7.45,902.08,21.77,
5151120,-0.04,-0.0,1.14,-2.93,3.85,-7.26,902.07,21.77,
5151158,-0.03,0.0,1.19,-2.99,3.85,-7.2,902.07,21.78,
5151196,-0.02,-0.0,1.18,-3.23,4.15,-7.26,902.02,21.76,
5151235,-0.03,0.01,1.2,-3.36,3.23,-6.84,902.02,21.77,
5151285,-0.03,-0.0,1.22,-3.66,3.66,-6.65,902.08,21.77,
5151323,-0.01,0.0,1.22,-3.91,3.17,-6.71,902.03,21.76,
5151361,-0.02,0.01,1.24,-3.97,2.44,-6.53,902.03,21.76,
5151399,-0.03,0.01,1.23,-3.85,2.56,-6.53,902.01,21.77,
5151438,-0.03,0.01,1.24,-3.78,2.32,-6.47,902.09,21.76,
5151476,-0.01,0.0,1.25,-3.85,2.38,-6.47,902.02,21.77,
5151514,-0.03,0.0,1.23,-3.85,1.71,-6.41,902.02,21.77,
5151552,-0.02,0.0,1.23,-3.48,2.08,-6.41,902.03,21.78,
5151591,-0.02,0.0,1.18,-3.42,2.14,-6.53,902.04,21.78,
5151629,-0.03,0.01,1.2,-3.36,1.34,-6.29,902.01,21.78,
5151705,-0.03,0.0,1.19,-2.81,1.34,-6.23,902.0,21.74,
5151743,-0.03,-0.0,1.19,-2.87,1.95,-6.04,901.94,21.75,
5151782,-0.02,-0.0,1.19,-2.87,1.65,-5.92,901.97,21.76,
5151872,-0.02,-0.0,1.2,-2.93,2.56,-5.92,901.94,21.71,
5151910,-0.02,-0.0,1.18,-2.99,2.08,-5.68,901.97,21.74,
5151948,-0.02,-0.0,1.19,-2.69,1.95,-5.74,901.96,21.76,
5151986,-0.01,-0.01,1.18,-2.69,2.75,-5.68,901.94,21.76,
5152025,-0.02,-0.0,1.2,-2.5,2.08,-5.68,901.96,21.75,
5152063,-0.01,-0.01,1.18,-2.26,2.08,-5.49,901.92,21.75,
5152113,-0.02,-0.0,1.18,-2.44,1.65,-5.43,901.88,21.76,
5152151,-0.01,-0.01,1.18,-2.56,1.77,-5.37,901.85,21.75,
5152189,-0.01,-0.0,1.2,-2.14,1.16,-5.31,901.93,21.77,
5152228,-0.02,-0.01,1.18,-2.14,1.77,-5.13,901.86,21.76,
5152266,-0.01,0.0,1.22,-2.01,1.65,-5.31,901.89,21.77,
5152304,-0.01,0.0,1.25,-2.2,2.08,-5.43,901.94,21.76,
5152342,-0.01,0.0,1.24,-2.01,2.44,-5.55,901.83,21.77,
5152381,-0.01,0.01,1.26,-1.83,3.3,-5.37,901.85,21.76,
5152419,-0.01,0.01,1.26,-1.89,4.64,-5.68,901.87,21.77,
5152457,-0.01,0.0,1.24,-1.71,4.58,-5.74,901.86,21.78,
5152507,-0.02,0.0,1.23,-1.77,5.55,-5.8,901.82,21.76,
5152546,-0.02,0.0,1.2,-1.89,6.1,-5.98,901.79,21.76,
5152584,-0.0,-0.0,1.18,-1.83,6.71,-5.98,901.76,21.76,
5152622,-0.0,-0.0,1.15,-1.89,6.77,-6.04,901.81,21.76,
5152661,-0.01,-0.01,1.16,-1.95,6.59,-6.1,901.78,21.75,
5152699,-0.01,-0.01,1.15,-1.95,7.45,-6.1,901.76,21.76,
5152737,-0.0,-0.01,1.13,-2.14,7.57,-6.04,901.82,21.77,
5152775,-0.0,-0.01,1.14,-1.89,7.32,-6.1,901.78,21.77,
5152814,-0.0,-0.01,1.11,-1.95,7.14,-6.1,901.77,21.77,
5152864,0.0,-0.02,1.09,-2.14,6.59,-5.98,901.78,21.76,
5152902,0.01,-0.02,1.07,-2.26,5.98,-6.16,901.73,21.77,
5152940,-0.0,-0.02,1.04,-2.56,5.49,-6.35,901.72,21.77,
5152979,-0.01,-0.02,1.05,-2.62,4.88,-6.1,901.73,21.77,
