timestamp,acc_x,acc_y,acc_z,rot_x,rot_y,rot_z,qfe,temp
4733503,-0.04,-0.06,0.99,-0.06,0.49,0.79,875.64,31.59
4733541,-0.04,-0.06,1.02,0.06,0.37,0.79,875.65,31.58
4733579,-0.03,-0.06,0.98,-0.12,0.73,0.73,875.71,31.59
4733617,-0.03,-0.05,1.01,0.12,1.16,0.79,875.62,31.61
4733655,-0.04,-0.06,1.02,0.12,1.28,0.79,875.6,31.61
4733694,-0.04,-0.05,1.04,0.06,1.34,0.73,875.59,31.6
4733732,-0.03,-0.04,1.08,0.06,0.55,0.85,875.6,31.6
4733770,-0.05,-0.06,1.1,0.12,0.92,0.79,875.58,31.61
4733808,-0.04,-0.05,1.14,0.12,0.31,0.79,875.52,31.6
4733858,-0.03,-0.04,1.15,0.06,1.28,0.67,875.57,31.6
4733896,-0.05,-0.04,1.14,0.18,1.53,0.61,875.57,31.61
4733934,-0.05,-0.03,1.17,0.24,1.71,0.79,875.51,31.61
4733972,-0.06,-0.04,1.2,0.67,2.62,0.49,875.54,31.61
4734010,-0.03,-0.05,1.18,0.92,2.62,0.61,875.56,31.59
4734049,-0.05,-0.04,1.16,1.34,3.72,0.31,875.54,31.61
4734087,-0.03,-0.04,1.13,1.59,4.64,0.37,875.53,31.6
4734125,-0.03,-0.05,1.1,1.77,5.0,0.06,875.53,31.61
4734163,-0.04,-0.06,1.03,2.2,6.1,0.12,875.49,31.61
4734213,-0.04,-0.05,1.02,2.26,7.26,0.06,875.5,31.6
4734251,-0.04,-0.06,0.96,2.62,6.96,-0.12,875.54,31.61
4734289,-0.03,-0.04,0.98,2.32,6.35,-0.18,875.5,31.61
4734327,-0.04,-0.06,0.97,2.26,6.16,-0.12,875.46,31.61
4734366,-0.03,-0.07,0.98,2.2,5.98,0.0,875.52,31.62
4734404,-0.03,-0.05,1.01,2.26,5.37,-0.06,875.45,31.61
4734442,-0.07,-0.05,0.95,2.38,5.37,0.0,875.49,31.61
4734480,-0.05,-0.05,0.97,2.26,4.76,0.06,875.44,31.61
4734518,-0.03,-0.06,0.95,2.2,4.46,-0.12,875.46,31.6
4734556,-0.05,-0.05,0.97,2.08,3.54,0.06,875.43,31.61
4734606,-0.06,-0.06,0.93,1.83,3.11,0.37,875.45,31.6
4734644,-0.05,-0.04,0.99,1.71,2.69,0.37,875.39,31.59
4734682,-0.06,-0.05,0.98,1.59,3.42,0.37,875.44,31.62
4734720,-0.07,-0.05,0.98,1.53,2.62,0.61,875.39,31.61
4734759,-0.05,-0.04,1.01,1.77,2.56,0.49,875.32,31.59
4734797,-0.05,-0.05,1.0,1.53,2.99,0.61,875.41,31.6
4734835,-0.05,-0.04,1.02,1.22,3.3,0.85,875.33,31.6
4734873,-0.06,-0.05,1.0,1.53,3.23,1.1,875.32,31.6
4734911,-0.06,-0.04,1.03,1.4,2.99,0.85,875.32,31.6
4734949,-0.05,-0.04,1.03,1.34,3.23,0.92,875.3,31.59
4735025,-0.05,-0.04,1.03,1.22,2.99,1.28,875.26,31.55
4735063,-0.04,-0.05,1.01,1.34,3.91,1.28,875.28,31.57
4735101,-0.06,-0.05,0.98,1.65,4.64,1.22,875.29,31.57
4735191,-0.06,-0.05,0.92,1.89,5.37,1.4,875.27,31.55
4735229,-0.04,-0.05,0.95,1.95,5.43,1.16,875.24,31.56
4735267,-0.03,-0.05,0.96,1.95,6.23,1.34,875.24,31.56
4735306,-0.06,-0.05,0.96,1.83,6.35,1.46,875.21,31.55
4735344,-0.06,-0.05,0.99,1.89,6.59,1.59,875.25,31.58
4735382,-0.07,-0.04,0.99,1.83,7.26,1.65,875.24,31.57
4735432,-0.06,-0.05,0.99,1.89,7.87,1.83,875.25,31.57
4735470,-0.05,-0.05,0.97,2.26,8.67,1.65,875.24,31.57
4735508,-0.04,-0.05,0.97,2.87,8.73,1.71,875.21,31.58
4735546,-0.03,-0.05,0.95,3.11,9.52,2.01,875.18,31.57
4735584,-0.04,-0.05,0.93,3.3,9.28,1.95,875.22,31.57
4735622,-0.05,-0.05,0.95,3.66,9.95,1.77,875.2,31.58
4735660,-0.05,-0.06,0.93,3.42,9.46,2.08,875.18,31.58
4735698,-0.04,-0.05,0.98,3.48,8.48,2.2,875.2,31.59
4735737,-0.04,-0.05,0.94,3.54,8.61,2.26,875.15,31.59
4735775,-0.03,-0.05,0.97,3.17,7.81,2.2,875.14,31.58
4735825,-0.02,-0.05,0.98,3.36,7.45,2.44,875.16,31.56
4735863,-0.04,-0.05,0.97,3.23,7.02,2.32,875.17,31.58
4735901,-0.04,-0.05,1.0,3.23,7.2,2.44,875.17,31.57
4735939,-0.03,-0.06,0.97,3.23,6.29,2.32,875.17,31.58
4735977,-0.03,-0.05,0.96,3.23,5.98,2.2,875.09,31.58
4736016,-0.03,-0.06,0.95,3.23,6.04,2.32,875.17,31.58
4736054,-0.03,-0.06,0.93,3.23,6.41,2.01,875.12,31.57
4736092,-0.02,-0.05,0.95,3.11,5.98,2.01,875.07,31.58
4736130,-0.02,-0.06,0.95,2.93,6.16,2.01,875.03,31.57
4736180,-0.03,-0.06,0.94,2.99,6.04,1.83,875.08,31.57
4736218,-0.02,-0.06,0.95,2.87,6.1,1.53,875.09,31.57
4736256,-0.02,-0.06,0.96,2.62,5.49,1.46,875.05,31.57
4736294,-0.03,-0.06,1.0,2.62,5.98,1.53,875.03,31.58
4736333,-0.0,-0.07,0.93,2.38,6.29,1.28,875.01,31.59
4736371,-0.02,-0.04,1.0,2.2,5.25,1.16,874.99,31.59
4736409,-0.03,-0.07,0.92,2.08,5.68,1.04,874.95,31.57
4736447,-0.02,-0.05,0.95,1.95,4.52,0.92,874.98,31.59
4736485,-0.03,-0.05,0.98,2.01,5.43,0.73,874.99,31.59
4736523,-0.02,-0.06,0.96,2.08,4.21,0.73,874.96,31.58
4736573,-0.04,-0.04,1.01,2.26,5.37,0.55,874.98,31.58
4736611,-0.02,-0.05,1.0,2.56,5.31,0.31,874.94,31.59
4736649,-0.02,-0.05,1.0,2.5,5.49,0.24,874.99,31.59
4736687,-0.03,-0.05,0.99,2.44,5.68,0.06,874.98,31.59
4736726,-0.02,-0.06,0.99,2.75,6.29,-0.06,874.94,31.6
4736764,-0.03,-0.05,0.95,2.62,5.8,-0.12,874.95,31.58
4736802,-0.03,-0.04,1.01,2.44,5.55,-0.12,874.89,31.6
4736840,-0.03,-0.05,0.99,2.56,5.31,-0.18,874.89,31.58
4736878,-0.04,-0.05,1.01,2.62,4.52,-0.06,874.9,31.6
4736916,-0.03,-0.05,0.97,2.75,5.62,-0.24,874.92,31.59
4736966,-0.04,-0.05,0.99,2.99,5.49,-0.24,874.94,31.59
4737004,-0.02,-0.05,0.98,2.99,4.39,-0.18,874.89,31.58
4737043,-0.03,-0.05,0.96,2.87,3.48,-0.24,874.89,31.58
4737081,-0.04,-0.04,0.95,2.75,3.11,-0.37,874.84,31.59
4737119,-0.05,-0.04,0.95,2.69,2.44,-0.24,874.78,31.59
4737157,-0.06,-0.05,0.95,2.69,0.61,-0.12,874.77,31.58
4737195,-0.07,-0.04,0.98,2.38,-0.85,0.0,874.75,31.59
4737233,-0.08,-0.05,0.96,2.5,-1.16,0.31,874.72,31.6
4737271,-0.07,-0.04,0.97,2.38,-1.83,0.37,874.72,31.59
4737321,-0.08,-0.05,0.94,2.01,-2.69,0.79,874.67,31.59
4737359,-0.09,-0.04,0.94,2.01,-3.91,1.1,874.67,31.59
4737398,-0.09,-0.05,0.92,1.77,-4.15,1.65,874.66,31.59
4737436,-0.09,-0.04,0.9,1.34,-5.19,1.65,874.58,31.57
4737474,-0.11,-0.05,0.89,1.22,-5.98,2.26,874.58,31.59
4737512,-0.07,-0.04,0.89,0.92,-7.39,2.5,874.56,31.59
4737550,-0.09,-0.05,0.9,0.67,-8.42,2.99,874.56,31.6
4737588,-0.1,-0.04,0.89,0.49,-9.22,3.3,874.55,31.58
4737627,-0.11,-0.04,0.94,0.18,-9.83,3.54,874.57,31.59
4737665,-0.09,-0.04,0.91,-0.31,-9.4,3.54,874.5,31.58
4737714,-0.08,-0.03,1.0,-0.31,-10.01,3.85,874.54,31.57
4737753,-0.09,-0.04,1.0,-0.43,-9.46,4.09,874.52,31.57
4737791,-0.09,-0.03,1.06,-0.37,-8.67,4.27,874.47,31.57
4737829,-0.1,-0.04,1.02,-0.37,-8.3,4.33,874.51,31.58
4737867,-0.1,-0.02,1.06,-0.31,-8.54,4.46,874.45,31.59
4737905,-0.1,-0.03,1.03,-0.24,-6.71,4.58,874.46,31.58
4737944,-0.07,-0.03,1.03,-0.24,-6.71,4.46,874.5,31.58
4737982,-0.09,-0.02,1.08,-0.24,-7.08,4.7,874.46,31.56
4738020,-0.09,-0.03,1.03,-0.37,-6.04,4.82,874.51,31.58
4738170,-0.09,-0.03,1.09,-0.67,-5.74,5.37,874.43,31.52
4738208,-0.08,-0.03,1.09,-0.85,-6.65,5.55,874.48,31.52
4738246,-0.08,-0.03,1.1,-0.73,-7.08,5.68,874.42,31.54
4738336,-0.09,-0.03,1.07,-0.55,-7.69,6.16,874.47,31.51
4738374,-0.09,-0.04,1.04,-0.67,-8.48,6.04,874.43,31.53
4738412,-0.08,-0.03,1.04,-0.61,-8.61,6.23,874.48,31.54
4738450,-0.07,-0.03,1.04,-0.85,-8.0,6.35,874.4,31.53
4738488,-0.07,-0.04,1.04,-0.85,-7.69,6.47,874.38,31.54
4738527,-0.08,-0.02,1.05,-0.79,-7.81,6.41,874.46,31.55
4738576,-0.08,-0.03,1.04,-0.79,-6.84,6.59,874.41,31.54
4738615,-0.07,-0.03,1.04,-0.79,-6.53,6.59,874.39,31.53
4738653,-0.08,-0.02,1.06,-0.67,-6.29,6.53,874.34,31.54
4738691,-0.08,-0.04,1.03,-0.61,-6.1,6.77,874.37,31.54
4738729,-0.08,-0.03,1.04,-0.67,-5.86,6.65,874.42,31.54
4738767,-0.06,-0.04,1.03,-0.49,-5.25,6.71,874.44,31.54
4738805,-0.07,-0.04,1.02,-0.43,-4.76,6.65,874.4,31.54
4738843,-0.07,-0.04,0.99,-0.37,-4.64,6.65,874.38,31.55
4738882,-0.07,-0.03,1.01,-0.49,-4.39,6.77,874.36,31.55
4738920,-0.06,-0.04,0.98,-0.24,-3.97,6.59,874.39,31.54
4738970,-0.07,-0.04,0.99,-0.43,-4.03,6.65,874.33,31.55
4739008,-0.07,-0.04,0.97,-0.67,-3.6,6.53,874.31,31.53
4739046,-0.07,-0.04,0.97,-0.55,-3.3,6.41,874.38,31.55
4739084,-0.06,-0.04,0.95,-0.55,-2.75,6.35,874.35,31.56
4739122,-0.07,-0.04,0.94,-0.79,-2.62,6.47,874.28,31.55
4739160,-0.08,-0.05,0.93,-1.1,-2.62,6.16,874.32,31.57
4739199,-0.08,-0.03,0.99,-1.53,-2.69,6.16,874.25,31.56
4739237,-0.06,-0.06,1.05,-2.01,-2.62,6.23,874.26,31.57
4739275,-0.08,-0.03,1.08,-2.26,-3.3,6.41,874.27,31.57
4739325,-0.07,-0.02,1.14,-2.44,-4.03,6.47,874.26,31.56
4739363,-0.08,-0.03,1.13,-2.93,-4.09,6.47,874.2,31.56
4739401,-0.07,-0.01,1.19,-2.81,-4.58,6.53,874.15,31.57
4739439,-0.08,-0.03,1.14,-2.75,-4.82,6.9,874.23,31.57
4739477,-0.08,-0.02,1.12,-2.99,-5.55,6.84,874.19,31.55
4739516,-0.07,-0.02,1.09,-3.17,-5.49,7.08,874.24,31.57
4739554,-0.08,-0.02,1.1,-3.36,-6.16,7.14,874.17,31.57
4739592,-0.09,-0.03,1.09,-3.17,-6.29,7.57,874.19,31.57
4739630,-0.08,-0.03,1.06,-3.48,-6.9,7.63,874.21,31.58
4739680,-0.09,-0.02,1.1,-3.3,-6.29,7.75,874.14,31.56
4739718,-0.07,-0.03,1.08,-3.48,-6.47,7.57,874.13,31.56
4739756,-0.08,-0.02,1.16,-3.6,-6.23,7.69,874.1,31.55
4739794,-0.08,-0.03,1.12,-4.09,-5.86,7.93,874.07,31.56
4739832,-0.08,-0.02,1.18,-4.21,-5.98,7.87,874.11,31.56
4739871,-0.09,-0.02,1.15,-4.21,-5.49,7.87,874.17,31.57
4739909,-0.12,-0.01,1.16,-4.33,-6.84,8.0,874.12,31.56
4739947,-0.08,-0.01,1.15,-4.39,-6.16,8.0,874.05,31.56
4739985,-0.07,-0.03,1.14,-4.52,-6.29,8.12,874.08,31.57
4740023,-0.08,-0.01,1.16,-4.58,-6.16,8.18,874.12,31.57
4740073,-0.09,-0.02,1.13,-4.46,-5.74,8.54,874.09,31.55
4740111,-0.09,-0.01,1.16,-4.39,-5.0,8.54,874.07,31.55
4740149,-0.09,-0.01,1.18,-4.52,-4.46,8.79,874.1,31.57
4740187,-0.09,-0.02,1.18,-4.58,-3.42,8.85,874.14,31.57
4740226,-0.09,-0.02,1.18,-4.46,-2.93,9.09,874.11,31.55
4740264,-0.08,-0.0,1.17,-4.46,-2.62,9.03,874.04,31.56
4740302,-0.08,-0.01,1.17,-4.58,-2.08,9.46,874.04,31.57
4740340,-0.08,-0.02,1.15,-4.7,-2.26,9.58,874.06,31.55
4740378,-0.07,-0.02,1.16,-4.58,-1.95,9.89,874.04,31.57
4740428,-0.08,-0.01,1.14,-5.07,-2.38,10.13,874.06,31.57
4740466,-0.08,-0.01,1.19,-4.94,-2.62,10.5,874.0,31.57
4740504,-0.08,-0.02,1.17,-4.82,-2.32,10.74,873.98,31.58
4740542,-0.08,-0.01,1.17,-4.94,-2.69,10.62,873.96,31.58
4740581,-0.07,-0.01,1.17,-4.94,-2.75,10.99,873.97,31.57
4740619,-0.08,-0.02,1.16,-4.82,-2.99,11.11,874.01,31.58
4740657,-0.07,-0.01,1.16,-4.7,-3.3,11.35,873.98,31.57
4740695,-0.07,-0.01,1.16,-4.58,-3.42,11.41,873.99,31.59
4740733,-0.07,-0.02,1.16,-4.64,-3.72,11.66,873.98,31.58
4740783,-0.06,-0.01,1.16,-4.64,-3.85,11.72,874.03,31.58
4740821,-0.07,-0.01,1.16,-4.88,-4.27,11.9,873.99,31.58
4740859,-0.07,-0.02,1.15,-4.94,-3.97,11.84,874.02,31.58
4740898,-0.06,-0.02,1.13,-5.13,-3.85,12.02,874.0,31.59
4740936,-0.07,-0.01,1.14,-5.19,-4.03,12.08,873.94,31.56
4740974,-0.07,-0.01,1.13,-5.43,-3.91,12.08,873.95,31.58
4741012,-0.07,-0.01,1.16,-5.43,-3.91,12.21,874.01,31.59
4741050,-0.06,-0.02,1.14,-5.62,-3.72,12.27,873.96,31.58
4741088,-0.06,-0.02,1.13,-5.55,-3.66,12.45,873.97,31.58
4741164,-0.07,-0.01,1.1,-5.86,-3.42,12.45,874.0,31.55
4741202,-0.07,-0.03,1.09,-5.86,-3.11,12.57,873.9,31.55
4741241,-0.07,-0.03,1.08,-5.86,-2.26,12.51,873.94,31.56
4741330,-0.06,-0.02,1.09,-6.16,-1.1,12.51,874.0,31.54
4741368,-0.06,-0.03,1.1,-6.23,-0.43,12.57,873.93,31.55
4741406,-0.06,-0.03,1.1,-6.41,0.43,12.45,873.92,31.56
4741444,-0.06,-0.02,1.11,-6.29,1.53,12.57,873.95,31.56
4741483,-0.06,-0.02,1.1,-6.53,2.14,12.51,873.93,31.56
4741521,-0.04,-0.02,1.14,-6.35,2.01,12.27,873.9,31.58
4741570,-0.05,-0.03,1.09,-6.16,3.6,12.33,873.92,31.56
4741609,-0.04,-0.02,1.13,-6.23,2.87,12.27,873.95,31.56
4741647,-0.03,-0.03,1.11,-6.35,3.97,12.15,873.9,31.56
4741685,-0.04,-0.03,1.08,-6.47,3.36,12.27,873.95,31.58
4741723,-0.04,-0.02,1.1,-6.59,4.09,12.15,873.9,31.56
4741761,-0.03,-0.04,1.07,-6.71,4.21,11.96,873.86,31.57
4741799,-0.04,-0.03,1.11,-6.77,4.21,11.96,873.96,31.58
4741838,-0.04,-0.03,1.1,-6.84,4.39,11.96,873.87,31.58
4741876,-0.04,-0.02,1.13,-6.96,4.27,11.96,873.86,31.57
4741914,-0.04,-0.03,1.12,-7.02,4.64,11.96,873.91,31.58
4741964,-0.05,-0.02,1.16,-6.96,4.76,11.72,873.89,31.56
4742002,-0.04,-0.02,1.16,-7.02,5.31,11.66,873.86,31.57
4742040,-0.04,-0.02,1.19,-6.84,4.82,11.66,873.91,31.57
4742078,-0.04,-0.02,1.2,-6.53,5.68,11.66,873.89,31.57
4742117,-0.04,-0.01,1.21,-6.77,5.13,11.9,873.88,31.57
4742155,-0.04,-0.01,1.22,-6.59,6.1,11.54,873.83,31.57
4742193,-0.05,-0.02,1.2,-6.53,5.98,11.66,873.82,31.58
4742231,-0.04,-0.0,1.25,-6.47,6.16,11.35,873.88,31.59
4742269,-0.04,-0.01,1.26,-6.23,6.59,11.47,873.83,31.57
4742319,-0.03,-0.0,1.29,-5.98,6.41,11.41,873.81,31.57
4742357,-0.05,-0.01,1.29,-5.86,6.96,11.35,873.85,31.58
4742395,-0.05,-0.0,1.31,-5.86,7.08,11.41,873.85,31.58
4742433,-0.04,0.0,1.32,-5.86,7.39,11.29,873.76,31.59
4742472,-0.05,-0.0,1.31,-5.55,7.39,11.29,873.84,31.58
4742510,-0.05,-0.01,1.3,-5.49,7.81,11.41,873.85,31.59
4742548,-0.05,0.0,1.31,-5.19,7.75,11.17,873.78,31.59
4742586,-0.05,-0.0,1.3,-5.19,7.45,11.29,873.78,31.58
4742624,-0.04,0.0,1.31,-5.31,7.75,11.6,873.81,31.59
4742674,-0.04,-0.0,1.3,-5.31,8.24,11.47,873.85,31.58
4742712,-0.04,-0.01,1.29,-5.19,7.93,11.6,873.87,31.59
4742750,-0.04,-0.0,1.31,-5.25,7.75,11.6,873.79,31.59
4742789,-0.06,-0.01,1.28,-5.0,7.87,11.6,873.8,31.58
4742827,-0.06,-0.0,1.29,-4.94,7.81,11.72,873.84,31.59
4742865,-0.05,-0.01,1.29,-4.88,7.87,11.66,873.83,31.6
4742903,-0.05,-0.01,1.29,-5.07,7.51,11.9,873.81,31.59
4742941,-0.05,-0.0,1.3,-4.94,7.32,11.9,873.82,31.6
4742979,-0.05,-0.01,1.31,-5.0,7.45,12.21,873.89,31.61
4743017,-0.05,-0.01,1.31,-4.94,7.2,12.02,873.86,31.61
4743067,-0.05,-0.01,1.28,-5.0,6.77,12.21,873.83,31.58
4743105,-0.05,-0.01,1.27,-5.07,6.53,12.33,873.89,31.61
4743144,-0.04,-0.02,1.26,-5.07,6.53,12.15,873.85,31.59
4743182,-0.04,-0.02,1.24,-5.25,5.98,12.33,873.85,31.6
4743220,-0.05,-0.02,1.25,-5.55,5.74,12.45,873.79,31.59
4743258,-0.06,-0.03,1.23,-5.68,5.74,12.33,873.8,31.59
4743296,-0.05,-0.02,1.25,-5.92,5.19,12.33,873.89,31.61
4743334,-0.05,-0.02,1.26,-6.23,5.37,12.45,873.87,31.61
4743373,-0.04,-0.02,1.29,-6.53,5.07,12.45,873.85,31.6
4743422,-0.05,-0.01,1.31,-6.65,4.64,12.57,873.79,31.59
4743461,-0.04,-0.01,1.32,-6.96,3.97,12.57,873.86,31.59
4743499,-0.05,-0.01,1.34,-7.26,3.54,12.57,873.83,31.59
4743537,-0.03,-0.01,1.33,-7.45,2.99,12.63,873.8,31.58
4743575,-0.03,-0.01,1.32,-7.75,3.23,12.57,873.87,31.59
4743613,-0.04,-0.01,1.31,-7.63,2.5,12.63,873.88,31.58
4743652,-0.04,-0.02,1.3,-7.63,2.38,12.51,873.88,31.56
4743690,-0.05,-0.01,1.28,-7.57,2.14,12.51,873.85,31.58
4743728,-0.04,-0.02,1.28,-7.57,2.56,12.33,873.83,31.57
4743778,-0.04,-0.02,1.28,-7.69,2.32,12.21,873.81,31.57
4743816,-0.04,-0.01,1.3,-7.87,2.26,12.15,873.9,31.57
4743854,-0.04,-0.01,1.31,-7.75,2.69,12.08,873.86,31.56
4743892,-0.03,-0.02,1.34,-7.75,2.62,11.9,873.83,31.55
4743931,-0.04,-0.02,1.35,-7.63,2.32,12.02,873.9,31.56
4743969,-0.04,-0.02,1.35,-7.63,2.26,11.9,873.96,31.57
4744007,-0.04,-0.02,1.36,-7.75,2.14,11.66,873.86,31.57
4744045,-0.03,-0.01,1.34,-7.75,2.32,11.54,873.9,31.57
4744083,-0.04,-0.01,1.35,-7.63,2.44,11.41,873.84,31.57
4744121,-0.05,-0.02,1.31,-7.57,2.38,11.41,873.92,31.58
4744197,-0.05,-0.02,1.34,-7.63,2.93,11.17,873.89,31.53
4744236,-0.05,-0.01,1.36,-7.87,2.69,10.93,873.9,31.55
4744274,-0.05,-0.01,1.36,-7.81,3.05,11.05,873.93,31.55
4744363,-0.07,-0.02,1.34,-8.06,3.6,11.17,873.95,31.51
4744402,-0.06,-0.02,1.33,-7.75,3.23,11.23,873.9,31.54
4744440,-0.07,-0.02,1.34,-7.93,3.05,11.11,873.91,31.53
4744478,-0.04,-0.02,1.32,-8.18,3.72,11.17,873.9,31.54
4744516,-0.04,-0.02,1.35,-8.0,3.54,11.17,873.85,31.54
4744554,-0.06,-0.02,1.35,-8.12,3.91,11.29,873.84,31.54
4744604,-0.07,-0.01,1.39,-8.18,4.94,11.11,873.85,31.55
4744642,-0.06,-0.01,1.39,-8.36,5.55,10.99,873.85,31.54
4744680,-0.06,-0.01,1.43,-8.24,5.55,10.93,873.89,31.54
4744719,-0.07,-0.02,1.4,-8.36,6.35,10.86,873.85,31.55
4744757,-0.06,-0.01,1.41,-8.48,6.65,10.8,873.88,31.55
4744795,-0.05,-0.0,1.42,-8.36,6.96,10.86,873.84,31.56
4744833,-0.06,-0.0,1.42,-8.61,6.23,10.86,873.86,31.55
4744871,-0.06,-0.0,1.45,-8.42,6.96,10.62,873.86,31.55
4744909,-0.07,-0.01,1.44,-8.54,7.75,10.68,873.85,31.55
4744959,-0.04,-0.0,1.49,-8.36,8.3,10.62,873.86,31.54
4744997,-0.06,-0.0,1.46,-8.54,8.06,10.62,873.81,31.54
4745036,-0.06,-0.0,1.45,-8.24,8.48,10.56,873.83,31.54
4745074,-0.05,-0.0,1.43,-8.12,8.61,10.5,873.8,31.55
4745112,-0.05,0.0,1.44,-8.0,8.61,10.5,873.84,31.54
4745150,-0.05,0.0,1.45,-7.93,8.61,10.5,873.8,31.54
4745188,-0.06,-0.01,1.45,-7.26,8.12,10.44,873.88,31.55
4745226,-0.05,-0.01,1.47,-7.45,7.69,10.5,873.82,31.53
4745265,-0.06,-0.01,1.45,-7.2,7.2,10.68,873.86,31.55
4745303,-0.05,-0.01,1.39,-7.39,6.59,10.68,873.88,31.55
4745353,-0.05,-0.01,1.37,-7.2,5.31,10.62,873.86,31.54
4745391,-0.06,-0.02,1.3,-7.2,4.7,10.99,873.87,31.55
4745429,-0.05,-0.02,1.3,-7.45,3.3,10.99,873.89,31.54
4745467,-0.05,-0.03,1.27,-7.51,2.5,10.93,873.84,31.55
4745505,-0.05,-0.03,1.26,-7.81,1.34,11.05,873.87,31.55
4745544,-0.05,-0.03,1.25,-7.81,0.85,10.93,873.87,31.54
4745582,-0.05,-0.03,1.25,-8.0,0.79,10.93,873.86,31.54
4745620,-0.04,-0.02,1.27,-7.87,0.24,10.74,873.91,31.54
4745658,-0.06,-0.02,1.27,-7.69,0.18,10.68,873.96,31.54
4745708,-0.05,-0.04,1.25,-8.0,0.85,10.62,873.9,31.52
4745746,-0.05,-0.03,1.28,-7.81,0.73,10.5,873.86,31.53
4745784,-0.05,-0.03,1.25,-7.57,1.46,10.38,873.86,31.53
4745822,-0.05,-0.03,1.25,-7.69,1.34,10.19,873.88,31.54
4745861,-0.06,-0.02,1.26,-7.75,1.59,10.25,873.88,31.53
4745899,-0.05,-0.03,1.27,-7.57,2.08,10.13,873.81,31.54
4745937,-0.05,-0.03,1.27,-7.69,2.14,10.13,873.89,31.54
4745975,-0.05,-0.02,1.28,-7.57,2.5,10.01,873.82,31.54
4746013,-0.05,-0.03,1.28,-7.39,2.99,10.01,873.85,31.54
4746063,-0.04,-0.03,1.27,-7.51,3.05,9.89,873.89,31.54
4746101,-0.05,-0.02,1.25,-7.32,3.05,9.83,873.8,31.52
4746139,-0.05,-0.04,1.2,-7.45,2.81,9.64,873.86,31.54
4746178,-0.06,-0.03,1.18,-7.45,2.2,9.83,873.83,31.54
4746216,-0.05,-0.04,1.11,-7.2,2.01,9.77,873.79,31.53
4746254,-0.06,-0.04,1.12,-7.26,1.46,9.95,873.87,31.54
4746292,-0.05,-0.03,1.13,-7.51,1.4,10.01,873.9,31.55
4746330,-0.06,-0.04,1.11,-7.39,0.73,10.01,873.84,31.54
4746368,-0.05,-0.03,1.1,-7.87,0.67,10.25,873.9,31.55
4746406,-0.07,-0.03,1.13,-7.93,0.06,10.19,873.88,31.56
4746456,-0.06,-0.03,1.12,-8.3,1.04,10.19,873.89,31.54
4746494,-0.07,-0.02,1.14,-8.36,0.37,10.31,873.87,31.54
4746533,-0.06,-0.03,1.18,-8.3,1.04,10.19,873.87,31.54
4746571,-0.06,-0.02,1.21,-8.48,1.34,10.19,873.82,31.53
4746609,-0.07,-0.01,1.24,-8.18,1.59,10.31,873.81,31.52
4746647,-0.08,-0.01,1.25,-7.75,1.83,10.5,873.86,31.54
4746685,-0.07,-0.02,1.26,-7.26,2.62,10.25,873.86,31.55
4746723,-0.07,-0.01,1.27,-7.26,3.17,10.31,873.81,31.53
4746762,-0.06,-0.0,1.28,-6.71,3.97,10.38,873.82,31.55
4746811,-0.07,0.0,1.25,-6.23,4.88,10.5,873.84,31.53
4746849,-0.08,0.01,1.3,-5.8,5.92,10.44,873.83,31.54
4746888,-0.07,-0.01,1.27,-5.49,6.59,10.68,873.83,31.53
4746926,-0.07,-0.0,1.29,-5.31,6.04,10.62,873.9,31.54
4746964,-0.08,-0.02,1.23,-4.82,7.26,10.68,873.81,31.53
4747002,-0.07,-0.01,1.21,-4.46,6.77,11.11,873.8,31.52
4747040,-0.06,-0.01,1.22,-4.27,6.84,11.11,873.83,31.53
4747078,-0.07,-0.02,1.17,-4.03,6.71,11.29,873.85,31.53
4747117,-0.08,-0.02,1.16,-3.72,7.02,11.47,873.82,31.53
4747192,-0.07,-0.02,1.17,-3.78,6.23,11.78,873.83,31.51
4747230,-0.06,-0.03,1.18,-4.09,6.23,11.96,873.85,31.51
4747269,-0.07,-0.03,1.15,-4.15,6.71,11.96,873.87,31.51
4747358,-0.08,-0.03,1.11,-4.39,6.35,12.45,873.87,31.49
4747396,-0.08,-0.01,1.15,-4.58,5.55,12.51,873.87,31.5
4747435,-0.07,-0.04,1.1,-4.88,6.04,12.94,873.87,31.51
4747473,-0.07,-0.03,1.1,-5.0,5.55,13.06,873.85,31.53
4747511,-0.06,-0.03,1.12,-5.25,5.31,13.18,873.84,31.5
4747549,-0.07,-0.03,1.11,-5.25,5.92,13.37,873.87,31.52
4747587,-0.07,-0.02,1.16,-5.43,5.68,13.49,873.9,31.5
4747637,-0.05,-0.04,1.12,-5.68,5.8,13.61,873.87,31.49
4747675,-0.07,-0.05,1.12,-5.86,5.07,13.67,873.89,31.5
4747713,-0.04,-0.04,1.13,-5.74,5.49,13.79,873.87,31.5
4747751,-0.05,-0.03,1.13,-5.8,5.37,13.79,873.94,31.5
4747790,-0.04,-0.03,1.11,-5.98,4.64,14.1,873.89,31.5
4747828,-0.06,-0.03,1.14,-6.16,4.88,13.92,873.95,31.52
4747866,-0.05,-0.05,1.14,-6.35,5.37,14.04,873.91,31.52
4747904,-0.05,-0.03,1.2,-6.23,5.25,14.1,873.95,31.52
4747942,-0.05,-0.04,1.19,-6.16,5.68,13.98,873.94,31.54
4747992,-0.04,-0.03,1.21,-6.29,5.8,13.92,873.93,31.5
4748030,-0.04,-0.04,1.2,-5.92,6.23,13.98,873.88,31.52
4748068,-0.03,-0.03,1.22,-6.1,6.1,14.1,873.88,31.52
4748106,-0.03,-0.03,1.22,-5.98,6.41,14.04,873.93,31.54
4748144,-0.04,-0.02,1.23,-6.1,6.35,13.85,873.92,31.54
4748183,-0.03,-0.02,1.27,-5.8,6.47,13.92,873.93,31.54
4748221,-0.02,-0.03,1.27,-5.86,5.74,13.85,873.99,31.53
4748259,-0.02,-0.02,1.29,-5.68,5.55,13.98,873.95,31.54
4748297,-0.02,-0.03,1.27,-5.8,6.29,13.85,873.98,31.55
4748347,-0.02,-0.02,1.28,-5.86,5.8,13.67,873.99,31.53
4748385,-0.03,-0.03,1.26,-5.74,5.49,13.61,874.04,31.54
4748423,-0.04,-0.03,1.25,-5.86,5.68,13.55,874.07,31.54
4748461,-0.04,-0.03,1.26,-5.92,5.86,13.43,874.04,31.55
4748500,-0.03,-0.03,1.25,-5.98,6.35,13.31,874.01,31.54
4748538,-0.02,-0.02,1.27,-5.92,5.92,13.06,874.01,31.55
4748576,-0.01,-0.06,1.26,-5.98,5.86,13.18,874.09,31.55
4748614,-0.04,-0.03,1.31,-6.04,5.43,13.12,874.1,31.55
4748652,-0.03,-0.03,1.31,-5.98,5.74,12.94,874.1,31.54
4748702,-0.03,-0.02,1.35,-5.98,4.76,12.94,874.08,31.53
4748740,-0.03,-0.03,1.31,-6.04,5.07,12.76,874.15,31.55
4748778,-0.02,-0.02,1.36,-6.04,4.46,12.76,874.07,31.54
4748816,-0.04,-0.02,1.35,-6.04,4.88,12.63,874.04,31.54
4748855,-0.03,-0.01,1.39,-6.1,4.88,12.57,874.04,31.53
4748893,-0.01,-0.01,1.39,-6.35,5.37,12.39,874.06,31.53
4748931,-0.02,-0.01,1.43,-6.47,4.88,12.33,874.09,31.54
4748969,-0.03,-0.03,1.44,-6.35,5.31,12.15,874.1,31.55
4749007,-0.04,-0.02,1.42,-5.98,5.55,11.96,874.14,31.54
4749045,-0.02,-0.01,1.42,-5.92,5.8,12.08,874.06,31.54
4749095,-0.02,-0.01,1.38,-5.74,6.1,11.78,874.15,31.53
4749133,-0.03,-0.02,1.38,-5.68,5.86,11.6,874.13,31.54
4749172,-0.04,-0.03,1.37,-5.68,6.41,11.47,874.18,31.55
4749210,-0.02,-0.01,1.4,-5.68,6.41,11.23,874.18,31.54
4749248,-0.03,-0.0,1.43,-5.55,7.57,10.8,874.18,31.54
4749286,-0.01,-0.02,1.43,-5.55,8.73,10.74,874.2,31.55
4749324,-0.03,-0.01,1.44,-5.49,9.03,10.44,874.19,31.55
4749362,-0.03,-0.01,1.43,-5.31,9.34,10.56,874.22,31.55
4749401,-0.03,-0.01,1.41,-5.62,9.64,10.19,874.2,31.55
4749450,-0.03,0.0,1.43,-5.37,9.64,10.01,874.17,31.53
4749488,-0.03,-0.01,1.41,-5.31,9.89,10.01,874.24,31.54
4749527,-0.03,-0.0,1.46,-5.13,8.91,9.95,874.21,31.55
4749565,-0.02,-0.01,1.49,-4.94,8.85,10.01,874.19,31.54
4749603,-0.02,-0.01,1.45,-4.94,8.12,9.95,874.18,31.54
4749641,-0.03,-0.0,1.44,-4.76,7.39,10.01,874.26,31.54
4749679,-0.04,-0.02,1.38,-4.39,6.84,9.77,874.27,31.55
4749717,-0.03,-0.02,1.38,-4.52,5.25,9.83,874.27,31.54
4749756,-0.02,-0.02,1.35,-4.39,4.7,9.77,874.3,31.54
4749806,-0.04,-0.02,1.36,-4.88,2.69,9.7,874.27,31.53
4749844,-0.04,-0.03,1.33,-5.13,2.87,9.83,874.3,31.53
4749882,-0.04,-0.03,1.39,-5.25,2.32,9.64,874.33,31.55
4749920,-0.04,-0.03,1.33,-5.31,1.65,9.58,874.31,31.54
4749958,-0.07,-0.02,1.32,-5.43,1.83,9.52,874.28,31.54
4749996,-0.06,-0.05,1.31,-5.07,2.69,8.97,874.27,31.54
4750034,-0.04,-0.04,1.29,-5.13,2.26,8.67,874.34,31.54
4750072,-0.04,-0.03,1.3,-5.13,2.32,8.73,874.32,31.53
4750111,-0.04,-0.03,1.27,-5.37,5.19,8.48,874.31,31.55
4750149,-0.05,-0.03,1.28,-5.49,5.86,8.18,874.23,31.54
4750224,-0.05,-0.04,1.35,-5.13,7.2,7.81,874.26,31.5
4750263,-0.08,-0.02,1.35,-5.31,8.24,7.69,874.33,31.51
4750301,-0.05,-0.02,1.35,-4.94,8.61,7.69,874.3,31.52
4750390,-0.05,-0.03,1.35,-4.52,8.54,7.75,874.33,31.48
4750429,-0.08,-0.03,1.34,-4.52,7.69,7.81,874.27,31.5
4750467,-0.05,-0.02,1.36,-4.33,7.08,7.81,874.34,31.51
4750505,-0.06,-0.03,1.33,-4.58,6.59,7.69,874.31,31.51
4750543,-0.07,-0.03,1.31,-4.52,6.41,7.69,874.3,31.5
4750581,-0.06,-0.03,1.32,-4.21,5.74,7.45,874.32,31.52
4750631,-0.06,-0.04,1.28,-4.21,5.19,7.51,874.29,31.49
4750669,-0.07,-0.02,1.3,-4.03,4.39,7.75,874.3,31.5
4750707,-0.08,-0.04,1.26,-4.09,4.39,7.39,874.31,31.51
4750746,-0.08,-0.03,1.32,-4.33,3.85,7.45,874.32,31.5
4750784,-0.05,-0.03,1.3,-4.15,3.97,7.51,874.3,31.5
4750822,-0.06,-0.04,1.26,-4.15,3.36,7.26,874.36,31.5
4750860,-0.08,-0.03,1.24,-3.85,3.78,7.32,874.38,31.51
4750898,-0.07,-0.04,1.19,-3.78,3.91,7.32,874.36,31.51
4750936,-0.09,-0.03,1.19,-3.42,2.87,7.32,874.38,31.52
4750975,-0.09,-0.05,1.11,-3.23,3.17,7.39,874.36,31.52
4751024,-0.08,-0.04,1.12,-3.42,3.17,7.51,874.37,31.5
4751062,-0.05,-0.07,1.07,-3.6,3.78,7.45,874.36,31.51
4751101,-0.09,-0.06,1.04,-4.15,3.42,7.39,874.36,31.52
4751139,-0.09,-0.06,0.97,-4.15,4.64,7.45,874.41,31.53
4751177,-0.08,-0.06,0.94,-4.39,4.21,7.39,874.37,31.51
4751215,-0.08,-0.04,0.94,-4.7,4.39,7.39,874.37,31.53
4751253,-0.09,-0.06,0.89,-4.94,5.37,7.51,874.38,31.52
4751292,-0.08,-0.05,0.98,-5.31,5.43,7.32,874.4,31.53
4751330,-0.08,-0.06,0.97,-5.31,6.71,7.51,874.34,31.52
4751379,-0.09,-0.06,0.99,-5.37,6.96,7.39,874.35,31.51
4751418,-0.08,-0.05,0.97,-5.37,7.69,7.39,874.36,31.52
4751456,-0.1,-0.05,0.97,-5.62,7.26,7.57,874.3,31.51
4751494,-0.1,-0.05,1.02,-5.55,7.57,7.57,874.38,31.5
4751532,-0.09,-0.05,1.05,-5.74,6.96,7.69,874.33,31.51
4751570,-0.11,-0.02,1.14,-5.43,6.84,7.87,874.35,31.5
4751608,-0.08,-0.04,1.17,-5.0,7.39,7.93,874.33,31.49
4751646,-0.1,-0.04,1.19,-4.82,6.41,8.0,874.34,31.51
4751684,-0.1,-0.02,1.24,-4.58,5.86,8.18,874.35,31.5
4751723,-0.11,-0.03,1.21,-3.91,6.1,8.36,874.35,31.51
4751772,-0.12,-0.02,1.18,-3.48,5.74,8.48,874.32,31.47
4751811,-0.12,-0.03,1.11,-3.11,5.86,8.54,874.37,31.5
4751849,-0.12,-0.04,1.06,-2.75,5.13,8.73,874.38,31.51
4751887,-0.11,-0.04,1.02,-2.08,6.23,8.97,874.42,31.5
4751925,-0.1,-0.06,0.96,-1.65,7.2,8.91,874.42,31.51
4751963,-0.13,-0.05,0.83,-1.53,7.57,9.09,874.43,31.49
4752001,-0.1,-0.04,0.84,-0.92,6.77,9.22,874.42,31.5
4752040,-0.08,-0.08,0.7,-1.71,7.81,9.64,874.5,31.5
4752078,-0.1,-0.07,0.68,-2.26,5.8,9.77,874.45,31.48
4752127,-0.08,-0.07,0.7,-2.75,4.7,9.89,874.45,31.47
4752166,-0.07,-0.06,0.7,-3.78,3.42,10.25,874.49,31.49
4752204,-0.03,-0.05,0.78,-4.21,2.75,10.13,874.51,31.48
4752242,-0.07,-0.06,0.83,-4.76,1.77,10.44,874.52,31.49
4752280,-0.06,-0.07,0.92,-5.62,1.1,10.38,874.52,31.5
4752318,-0.06,-0.06,0.96,-5.86,0.24,10.31,874.55,31.51
4752356,-0.09,-0.05,0.97,-6.1,-0.31,10.62,874.57,31.48
4752394,-0.05,-0.05,0.97,-6.35,-0.18,10.5,874.6,31.49
4752433,-0.07,-0.03,1.06,-5.86,-0.55,10.25,874.6,31.48
4752471,-0.06,-0.05,1.03,-5.86,-0.18,10.13,874.6,31.49
4752520,-0.06,-0.03,1.14,-5.55,-0.79,10.19,874.58,31.48
4752559,-0.07,-0.05,1.08,-5.68,1.59,9.95,874.61,31.47
4752597,-0.06,-0.04,1.17,-5.86,1.34,9.83,874.61,31.49
4752635,-0.08,-0.03,1.21,-5.31,2.62,9.83,874.6,31.49
4752673,-0.06,-0.05,1.16,-5.31,1.95,9.7,874.69,31.49
4752711,-0.06,-0.02,1.22,-5.19,3.05,9.4,874.69,31.5
4752749,-0.06,-0.03,1.2,-4.76,3.42,9.4,874.61,31.49
4752788,-0.06,-0.02,1.24,-4.39,3.42,9.52,874.63,31.5
4752826,-0.07,-0.04,1.23,-4.33,4.76,9.09,874.67,31.5
4752876,-0.07,-0.02,1.28,-4.03,4.39,9.22,874.63,31.5
4752914,-0.06,-0.02,1.25,-4.09,5.25,9.03,874.63,31.5
4752952,-0.07,0.0,1.34,-3.97,4.94,8.97,874.67,31.51
4752990,-0.06,-0.01,1.33,-3.91,6.96,8.91,874.69,31.5
4753028,-0.08,-0.0,1.36,-3.66,6.35,8.97,874.6,31.49
4753066,-0.07,-0.0,1.4,-3.36,6.41,8.91,874.59,31.53
4753104,-0.08,-0.01,1.33,-3.42,6.35,8.97,874.66,31.5
4753142,-0.08,0.02,1.42,-3.23,5.74,8.91,874.69,31.52
4753181,-0.06,-0.0,1.36,-2.99,6.9,8.91,874.68,31.51
4753219,-0.07,0.0,1.41,-2.75,5.86,8.97,874.63,31.51
4753294,-0.07,-0.01,1.36,-2.26,5.49,8.79,874.69,31.49
4753333,-0.07,-0.0,1.37,-2.2,6.65,8.79,874.74,31.49
4753371,-0.07,-0.01,1.32,-1.95,5.98,9.09,874.73,31.5
4753460,-0.07,-0.02,1.25,-2.01,5.13,9.34,874.74,31.46
4753498,-0.07,-0.01,1.29,-1.83,3.72,9.22,874.77,31.47
4753537,-0.07,-0.03,1.21,-1.89,4.15,9.28,874.75,31.48
4753575,-0.08,-0.02,1.25,-2.08,2.75,9.4,874.78,31.48
4753613,-0.06,-0.04,1.22,-2.2,2.81,9.34,874.83,31.49
4753651,-0.04,-0.03,1.21,-2.69,2.14,9.28,874.8,31.48
4753701,-0.07,-0.0,1.23,-2.62,2.5,9.34,874.83,31.47
4753739,-0.08,0.0,1.23,-3.11,-0.31,9.64,874.81,31.48
4753777,-0.1,-0.01,1.31,-3.3,-0.92,9.64,874.83,31.48
4753815,-0.07,-0.04,1.27,-3.85,-2.01,9.52,874.77,31.48
4753853,-0.1,-0.02,1.3,-4.33,-1.59,9.58,874.77,31.48
4753892,-0.08,0.0,1.24,-4.64,-0.49,9.58,874.84,31.48
4753930,-0.06,0.03,1.34,-4.64,-1.4,9.58,874.77,31.49
4753968,-0.1,-0.0,1.26,-4.82,-0.37,9.64,874.71,31.49
4754006,-0.12,0.01,1.36,-4.94,-1.04,10.07,874.72,31.49
4754056,-0.1,0.01,1.4,-4.88,1.95,9.58,874.79,31.47
4754094,-0.08,0.04,1.54,-4.64,1.28,9.64,874.73,31.48
4754132,-0.08,0.02,1.46,-4.39,3.23,9.89,874.81,31.48
4754170,-0.09,0.0,1.44,-4.15,3.6,9.77,874.86,31.49
4754209,-0.09,0.0,1.41,-3.6,4.82,9.7,874.84,31.49
4754247,-0.08,0.0,1.31,-3.11,4.58,10.07,874.94,31.5
4754285,-0.09,-0.0,1.25,-2.75,5.8,10.13,874.87,31.48
4754323,-0.09,-0.02,1.15,-2.5,5.74,9.89,874.93,31.5
4754361,-0.09,-0.02,1.17,-2.32,6.16,10.13,874.95,31.49
4754399,-0.07,-0.04,1.1,-1.89,6.35,10.44,874.98,31.49
4754449,-0.09,-0.02,1.1,-1.59,6.96,10.56,874.98,31.48
4754487,-0.08,-0.03,1.05,-1.59,7.51,10.74,874.96,31.49
4754526,-0.09,-0.04,1.06,-1.71,6.59,11.05,875.01,31.48
4754564,-0.08,-0.05,1.02,-2.14,6.65,11.05,874.99,31.49
4754602,-0.09,-0.03,1.08,-2.38,6.29,11.41,875.03,31.49
4754640,-0.06,-0.03,1.11,-2.62,6.71,11.6,875.0,31.48
4754678,-0.06,-0.03,1.16,-2.5,6.35,11.66,874.99,31.5
4754717,-0.08,-0.04,1.14,-2.44,7.26,12.02,875.01,31.48
4754755,-0.09,-0.03,1.14,-2.81,6.04,12.15,874.96,31.48
4754805,-0.07,-0.02,1.18,-2.87,6.47,12.21,874.99,31.47
4754843,-0.05,-0.03,1.18,-3.11,6.1,12.21,874.98,31.47
4754881,-0.08,-0.02,1.18,-3.23,6.96,12.39,874.97,31.46
4754919,-0.1,-0.04,1.17,-2.87,7.69,12.76,875.03,31.49
4754957,-0.07,-0.04,1.17,-2.62,6.59,12.82,875.02,31.47
4754996,-0.09,-0.02,1.18,-2.44,6.41,12.94,875.08,31.49
4755034,-0.08,-0.03,1.13,-2.26,6.59,13.49,875.03,31.48
4755072,-0.07,-0.03,1.14,-1.95,7.69,13.31,875.07,31.48
4755110,-0.08,-0.03,1.16,-1.71,7.81,13.61,875.06,31.47
4755148,-0.07,-0.03,1.19,-1.71,7.32,13.98,875.04,31.47
4755198,-0.06,-0.03,1.18,-1.77,8.06,13.98,875.06,31.45
4755236,-0.07,-0.03,1.19,-1.59,8.12,14.22,875.08,31.46
4755274,-0.06,-0.04,1.12,-1.83,9.34,14.22,875.07,31.45
4755313,-0.04,-0.04,1.16,-2.14,9.58,14.28,875.1,31.46
4755351,-0.04,-0.04,1.13,-1.83,9.95,14.1,875.09,31.47
4755389,-0.05,-0.03,1.1,-1.95,9.64,14.47,875.11,31.47
4755427,-0.05,-0.04,1.2,-1.65,9.89,14.65,875.05,31.47
4755465,-0.04,-0.06,1.11,-1.71,10.86,14.53,875.12,31.46
4755503,-0.04,-0.03,1.18,-2.08,9.4,14.53,875.15,31.48
4755553,-0.03,-0.05,1.15,-1.83,10.56,14.53,875.09,31.45
4755591,-0.02,-0.02,1.23,-2.14,10.31,14.4,875.1,31.47
4755630,-0.03,-0.03,1.24,-2.44,10.68,14.53,875.05,31.46
4755668,-0.04,-0.03,1.27,-2.75,9.22,14.77,875.13,31.46
4755706,-0.02,-0.01,1.33,-2.62,9.89,14.4,875.1,31.48
4755744,-0.01,-0.01,1.33,-2.56,10.74,14.53,875.11,31.47
4755782,-0.02,-0.02,1.35,-2.44,10.62,14.71,875.16,31.47
4755820,-0.02,-0.03,1.33,-2.2,9.83,14.71,875.19,31.47
4755859,-0.02,-0.03,1.33,-2.08,9.52,14.59,875.17,31.45
4755908,-0.01,-0.03,1.28,-1.95,9.77,14.59,875.23,31.45
4755947,-0.01,-0.03,1.26,-2.32,9.28,14.4,875.21,31.46
4755985,-0.02,-0.03,1.25,-2.32,8.79,14.34,875.27,31.46
4756023,-0.01,-0.04,1.26,-2.44,8.48,14.28,875.26,31.48
4756061,0.01,-0.04,1.26,-2.62,7.32,13.92,875.26,31.46
4756099,-0.0,-0.05,1.25,-2.81,6.77,13.98,875.29,31.47
4756137,0.0,-0.05,1.24,-3.17,6.16,13.61,875.24,31.46
4756176,0.01,-0.05,1.22,-3.36,5.31,13.43,875.31,31.47
4756214,0.0,-0.05,1.22,-3.6,4.64,13.24,875.3,31.45
4756290,-0.01,-0.05,1.19,-3.91,3.48,12.94,875.34,31.43
4756328,0.0,-0.06,1.2,-4.27,3.23,12.63,875.27,31.43
4756366,0.01,-0.05,1.23,-4.52,2.62,12.39,875.33,31.44
4756456,0.0,-0.04,1.29,-4.76,1.89,11.6,875.33,31.4
4756494,0.01,-0.05,1.27,-4.82,2.38,11.54,875.38,31.42
4756532,0.0,-0.04,1.3,-5.13,1.77,11.29,875.39,31.43
4756570,0.01,-0.05,1.28,-4.76,2.32,10.86,875.42,31.45
4756608,0.01,-0.05,1.27,-4.64,2.2,10.44,875.39,31.43
4756646,0.0,-0.04,1.3,-4.52,1.77,10.25,875.42,31.44
4756685,-0.0,-0.05,1.28,-4.27,1.34,10.01,875.38,31.45
4756734,-0.01,-0.04,1.3,-4.09,1.04,9.58,875.44,31.44
4756773,-0.01,-0.05,1.3,-3.85,0.92,9.28,875.41,31.44
4756811,-0.02,-0.04,1.26,-3.54,-0.31,9.09,875.42,31.47
4756849,-0.01,-0.04,1.28,-3.54,-0.43,8.85,875.46,31.45
4756887,-0.01,-0.05,1.23,-3.23,0.24,8.85,875.46,31.46
4756925,-0.02,-0.05,1.25,-3.05,0.24,8.42,875.47,31.47
4756963,-0.02,-0.06,1.22,-2.56,0.12,8.3,875.46,31.46
4757001,-0.02,-0.05,1.2,-2.62,-0.06,8.06,875.47,31.45
4757040,-0.03,-0.04,1.2,-2.38,0.24,8.06,875.44,31.46
4757089,-0.03,-0.05,1.16,-2.2,0.73,7.81,875.47,31.43
4757128,-0.03,-0.05,1.16,-2.26,0.92,7.45,875.52,31.46
4757166,-0.02,-0.06,1.17,-2.08,1.16,7.63,875.46,31.45
4757204,-0.03,-0.05,1.16,-2.14,1.34,7.45,875.48,31.45
4757242,-0.03,-0.05,1.17,-2.5,1.65,7.32,875.49,31.45
4757280,-0.04,-0.06,1.16,-2.44,1.53,7.45,875.43,31.45
4757319,-0.03,-0.06,1.16,-2.5,1.65,7.32,875.48,31.45
4757357,-0.03,-0.05,1.15,-2.87,2.26,7.39,875.47,31.46
4757395,-0.04,-0.04,1.14,-2.81,2.26,7.26,875.4,31.45
4757433,-0.03,-0.05,1.15,-2.69,2.08,7.2,875.5,31.45
4757483,-0.04,-0.06,1.16,-2.75,2.32,7.14,875.44,31.45
4757521,-0.03,-0.05,1.15,-2.93,2.32,7.2,875.53,31.45
4757559,-0.02,-0.05,1.16,-2.99,2.01,7.32,875.51,31.44
4757597,-0.04,-0.05,1.15,-2.75,2.08,7.08,875.56,31.46
4757635,-0.03,-0.06,1.15,-2.69,2.26,7.02,875.6,31.46
4757674,-0.04,-0.06,1.13,-2.44,2.44,7.2,875.49,31.45
4757712,-0.04,-0.06,1.12,-2.38,2.56,7.08,875.52,31.47
4757750,-0.04,-0.05,1.1,-2.69,2.56,7.02,875.47,31.46
4757788,-0.05,-0.05,1.08,-2.69,3.05,7.02,875.47,31.45
4757838,-0.05,-0.06,1.1,-2.56,2.62,7.08,875.5,31.46
4757876,-0.05,-0.07,1.07,-2.62,2.75,6.96,875.53,31.46
4757914,-0.04,-0.05,1.11,-2.69,2.56,7.26,875.52,31.46
4757952,-0.04,-0.06,1.11,-2.62,2.81,7.32,875.5,31.47
4757990,-0.05,-0.05,1.11,-2.69,2.62,7.26,875.54,31.46
4758029,-0.05,-0.05,1.13,-2.75,2.56,7.32,875.56,31.45
4758067,-0.05,-0.05,1.14,-2.99,2.44,7.26,875.51,31.45
4758105,-0.05,-0.05,1.11,-2.81,2.93,7.39,875.55,31.46
4758143,-0.05,-0.05,1.13,-2.69,2.75,7.45,875.59,31.46
4758181,-0.05,-0.06,1.13,-2.81,3.05,7.39,875.55,31.46
4758231,-0.05,-0.05,1.13,-2.69,2.93,7.39,875.53,31.44
4758269,-0.05,-0.06,1.12,-2.56,2.99,7.57,875.58,31.43
4758307,-0.05,-0.05,1.12,-2.62,3.05,7.51,875.51,31.44
4758346,-0.04,-0.06,1.11,-2.5,3.11,7.57,875.55,31.45
4758384,-0.05,-0.06,1.1,-2.62,3.05,7.57,875.52,31.44
4758422,-0.05,-0.06,1.08,-2.62,3.23,7.69,875.59,31.45
4758460,-0.05,-0.06,1.06,-2.5,3.23,7.63,875.52,31.44
4758498,-0.06,-0.06,1.05,-2.26,3.72,7.69,875.61,31.44
4758537,-0.06,-0.06,1.03,-2.5,3.91,7.81,875.58,31.43
4758586,-0.06,-0.06,1.02,-2.69,4.39,7.81,875.61,31.43
4758625,-0.06,-0.06,1.03,-2.69,3.97,8.06,875.59,31.44
4758663,-0.04,-0.06,1.03,-2.93,4.7,7.81,875.63,31.43
4758701,-0.05,-0.06,1.03,-2.75,4.94,7.87,875.59,31.45
4758739,-0.05,-0.06,1.03,-2.56,4.82,7.93,875.62,31.44
4758777,-0.06,-0.06,1.02,-2.38,4.21,8.06,875.63,31.45
4758815,-0.05,-0.05,1.04,-2.5,3.97,8.18,875.62,31.44
4758854,-0.05,-0.07,1.01,-2.56,4.33,8.24,875.65,31.45
4758892,-0.04,-0.06,1.05,-2.56,4.09,8.18,875.61,31.45
4758930,-0.06,-0.07,1.04,-2.56,4.15,8.3,875.58,31.44
4758980,-0.05,-0.06,1.04,-2.81,4.52,8.18,875.57,31.44
4759018,-0.05,-0.05,1.09,-2.99,4.76,8.24,875.62,31.46
4759056,-0.05,-0.05,1.12,-2.93,5.62,8.3,875.64,31.46
4759094,-0.05,-0.05,1.18,-2.93,5.19,8.36,875.63,31.46
4759132,-0.04,-0.05,1.19,-2.75,5.49,8.48,875.6,31.45
4759170,-0.04,-0.05,1.22,-2.87,5.8,8.42,875.6,31.45
4759209,-0.06,-0.05,1.19,-2.62,6.59,8.48,875.67,31.47
4759247,-0.05,-0.05,1.19,-2.32,6.04,8.42,875.66,31.47
4759285,-0.05,-0.05,1.17,-2.5,5.98,8.48,875.65,31.46
4759362,-0.05,-0.05,1.16,-2.38,6.47,8.48,875.61,31.41
4759400,-0.04,-0.06,1.18,-2.38,6.29,8.54,875.65,31.43
4759438,-0.05,-0.05,1.18,-2.44,6.1,8.67,875.62,31.43
4759528,-0.04,-0.05,1.17,-2.44,6.04,8.79,875.69,31.4
4759566,-0.04,-0.06,1.15,-2.56,5.55,8.79,875.66,31.4
4759604,-0.05,-0.06,1.12,-2.75,5.86,8.54,875.73,31.4
4759642,-0.05,-0.06,1.13,-2.69,6.16,8.67,875.67,31.4
4759681,-0.05,-0.06,1.1,-2.62,6.9,8.61,875.7,31.42
4759719,-0.05,-0.06,1.11,-2.75,6.41,8.54,875.69,31.41
4759757,-0.05,-0.06,1.11,-2.38,7.57,8.61,875.74,31.43
4759807,-0.05,-0.07,1.06,-2.08,6.53,8.85,875.75,31.41
4759845,-0.06,-0.05,1.06,-1.77,6.96,8.61,875.81,31.43
4759883,-0.05,-0.07,0.98,-1.59,6.84,8.79,875.76,31.4
4759921,-0.05,-0.06,0.99,-1.4,6.23,9.16,875.73,31.41
4759959,-0.05,-0.07,0.97,-1.53,6.29,9.16,875.84,31.43
4759997,-0.05,-0.06,1.05,-1.46,5.68,9.09,875.74,31.4
4760036,-0.06,-0.06,1.07,-1.46,6.77,9.16,875.75,31.41
4760074,-0.04,-0.05,1.15,-1.77,6.1,9.28,875.7,31.42
4760112,-0.05,-0.05,1.22,-1.65,6.16,9.28,875.81,31.43
4760162,-0.05,-0.04,1.28,-1.71,6.29,9.22,875.71,31.41
4760200,-0.06,-0.03,1.36,-1.4,7.87,9.16,875.73,31.41
4760238,-0.05,-0.05,1.36,-0.98,8.61,8.85,875.72,31.4
4760276,-0.04,-0.03,1.43,-0.98,8.3,8.73,875.76,31.41
4760314,-0.04,-0.03,1.48,-0.98,8.97,9.09,875.75,31.39
4760352,-0.05,-0.03,1.5,-0.61,9.64,9.16,875.75,31.41
4760391,-0.03,-0.02,1.54,-0.37,10.07,9.09,875.76,31.41
4760429,-0.04,-0.03,1.49,-0.06,8.24,9.16,875.83,31.42
4760467,-0.06,-0.04,1.46,0.18,7.81,9.34,875.83,31.41
4760505,-0.03,-0.04,1.44,0.43,6.71,9.4,875.74,31.4
4760555,-0.02,-0.05,1.33,0.31,5.8,9.28,875.8,31.39
4760593,-0.04,-0.04,1.34,0.18,4.39,9.22,875.76,31.41
4760631,-0.05,-0.06,1.27,-0.24,5.25,9.09,875.74,31.4
4760669,-0.05,-0.06,1.26,-0.73,3.91,8.85,875.79,31.41
4760707,-0.04,-0.06,1.29,-0.85,4.94,9.03,875.78,31.41
4760746,-0.06,-0.06,1.27,-0.67,3.85,9.22,875.76,31.4
4760784,-0.06,-0.07,1.25,-0.55,5.98,8.91,875.78,31.4
4760822,-0.05,-0.07,1.23,-0.55,6.47,9.03,875.8,31.4
4760860,-0.06,-0.07,1.23,-0.49,6.96,9.16,875.81,31.41
4760910,-0.08,-0.07,1.2,-0.31,7.45,9.16,875.83,31.39
4760948,-0.05,-0.07,1.22,-0.49,8.91,9.09,875.78,31.4
4760986,-0.04,-0.06,1.2,-0.43,8.3,9.28,875.82,31.41
4761024,-0.06,-0.06,1.21,-0.55,8.12,9.52,875.77,31.39
4761062,-0.06,-0.08,1.19,-0.67,8.97,9.64,875.78,31.41
4761100,-0.06,-0.06,1.22,-1.04,9.52,9.77,875.8,31.43
4761139,-0.08,-0.07,1.16,-0.73,9.34,10.13,875.79,31.42
4761177,-0.04,-0.07,1.19,-1.16,8.67,9.89,875.8,31.41
4761215,-0.04,-0.07,1.2,-0.98,9.16,10.13,875.82,31.42
4761253,-0.02,-0.07,1.22,-1.16,9.4,10.44,875.76,31.41
4761303,-0.04,-0.06,1.23,-1.1,9.58,10.44,875.71,31.4
4761341,-0.04,-0.07,1.23,-1.28,8.54,10.68,875.75,31.4
4761379,-0.05,-0.07,1.28,-0.98,8.42,10.68,875.78,31.41
4761418,-0.02,-0.08,1.21,-1.1,8.3,10.62,875.81,31.41
4761456,-0.0,-0.07,1.25,-1.22,9.22,10.74,875.81,31.42
4761494,-0.01,-0.06,1.22,-0.98,9.83,10.86,875.81,31.41
4761532,-0.02,-0.06,1.23,-0.85,9.03,10.68,875.8,31.41
4761570,-0.02,-0.07,1.22,-0.85,9.83,10.31,875.75,31.41
4761608,-0.01,-0.07,1.22,-0.98,9.22,10.31,875.74,31.41
4761658,0.01,-0.08,1.24,-0.67,9.64,10.19,875.75,31.4
4761697,-0.01,-0.06,1.28,-0.98,8.06,9.95,875.76,31.4
4761735,-0.01,-0.06,1.3,-0.73,9.22,10.07,875.78,31.42
4761773,-0.03,-0.08,1.24,-0.73,8.91,9.95,875.74,31.41
4761811,-0.03,-0.05,1.34,-0.31,8.73,9.83,875.79,31.39
4761849,-0.01,-0.08,1.24,0.0,8.61,9.77,875.78,31.42
4761887,-0.03,-0.06,1.24,0.24,8.3,9.58,875.77,31.42
4761925,0.01,-0.07,1.22,0.73,10.8,9.58,875.74,31.41
4761964,-0.0,-0.09,1.18,1.4,10.68,9.64,875.76,31.41
4762014,-0.03,-0.08,1.04,1.46,10.38,9.52,875.72,31.4
4762052,-0.02,-0.07,1.02,1.53,11.17,9.28,875.69,31.39
4762090,-0.01,-0.07,0.98,1.34,11.11,9.46,875.74,31.42
4762128,-0.01,-0.09,1.0,1.4,10.07,9.34,875.7,31.41
4762166,-0.03,-0.09,0.99,1.22,10.74,9.22,875.67,31.4
4762204,-0.0,-0.08,1.04,1.22,10.44,9.16,875.67,31.41
4762242,-0.0,-0.08,1.04,1.04,11.72,9.28,875.64,31.4
4762281,-0.01,-0.09,1.02,0.98,11.54,9.16,875.61,31.41
4762319,-0.02,-0.09,1.01,0.85,12.08,9.03,875.67,31.4
4762357,-0.0,-0.08,1.0,0.85,12.02,8.91,875.67,31.41
4762433,-0.01,-0.08,1.02,0.92,12.02,8.79,875.63,31.37
4762471,0.01,-0.08,1.06,0.67,11.84,8.79,875.62,31.4
4762509,0.02,-0.08,1.08,0.79,12.45,8.73,875.6,31.39
4762599,0.0,-0.07,1.08,0.73,12.27,8.67,875.61,31.36
4762637,0.02,-0.09,1.08,0.67,12.21,8.48,875.63,31.37
4762675,0.01,-0.08,1.08,0.92,11.6,8.36,875.64,31.37
4762713,0.01,-0.08,1.06,1.04,11.41,8.36,875.6,31.39
4762751,0.01,-0.08,1.07,0.98,11.72,8.3,875.58,31.37
4762789,0.02,-0.08,1.05,1.34,11.6,8.06,875.62,31.38
4762828,0.01,-0.08,1.03,1.34,11.05,8.06,875.57,31.38
4762877,0.0,-0.09,0.98,1.34,11.23,7.93,875.62,31.37
4762916,0.03,-0.08,1.0,1.4,10.8,7.75,875.59,31.38
4762954,0.02,-0.09,0.95,1.22,11.41,7.69,875.51,31.37
4762992,0.02,-0.07,0.99,1.04,9.52,7.45,875.53,31.36
4763030,0.03,-0.09,1.0,1.22,10.8,7.39,875.57,31.38
4763068,0.02,-0.09,0.99,0.85,8.79,7.32,875.54,31.38
4763107,0.03,-0.07,1.06,0.73,7.39,6.96,875.6,31.38
4763145,0.03,-0.1,1.0,0.67,6.47,6.77,875.6,31.38
4763183,0.04,-0.09,1.02,0.43,4.7,6.16,875.55,31.38
4763233,0.05,-0.09,0.99,0.31,4.09,5.86,875.68,31.38
4763271,0.05,-0.08,1.01,0.06,2.5,5.62,875.63,31.38
4763309,0.02,-0.09,0.99,0.0,2.08,5.37,875.63,31.39
4763347,0.02,-0.09,0.99,-0.31,0.73,5.13,875.62,31.37
4763385,0.02,-0.09,1.02,-0.61,-0.37,4.64,875.63,31.38
4763423,0.03,-0.09,1.0,-0.61,-0.73,4.15,875.6,31.39
4763461,0.02,-0.09,1.02,-0.85,-0.18,4.21,875.6,31.37
4763500,0.03,-0.1,0.97,-0.92,0.49,3.6,875.59,31.38
4763538,-0.01,-0.09,1.0,-0.79,0.06,3.42,875.54,31.39
4763576,0.01,-0.1,0.98,-0.98,1.71,2.81,875.56,31.39
4763626,0.01,-0.09,0.99,-0.85,1.71,2.56,875.53,31.37
4763664,0.01,-0.09,1.0,-0.85,2.44,2.14,875.57,31.37
4763702,0.02,-0.09,1.04,-0.98,2.32,1.83,875.56,31.39
4763740,0.02,-0.08,1.07,-0.98,2.5,1.65,875.59,31.37
4763778,0.01,-0.08,1.08,-0.67,2.75,1.34,875.48,31.38
4763816,-0.01,-0.08,1.1,-0.73,2.69,1.16,875.5,31.37
4763854,0.0,-0.08,1.1,-0.67,2.5,0.79,875.54,31.36
4763893,0.01,-0.08,1.12,-0.31,2.44,0.49,875.47,31.37
4763931,-0.01,-0.08,1.13,-0.18,2.56,0.18,875.51,31.38
4763969,0.0,-0.08,1.14,0.06,3.17,0.06,875.56,31.39
4764019,-0.01,-0.07,1.15,0.18,2.99,-0.12,875.55,31.38
4764057,-0.01,-0.08,1.18,0.37,2.75,-0.43,875.54,31.37
4764095,-0.01,-0.08,1.15,0.49,3.3,-0.49,875.52,31.38
4764133,-0.01,-0.07,1.14,0.37,3.17,-0.67,875.5,31.38
4764171,-0.02,-0.08,1.08,0.49,3.17,-0.73,875.53,31.4
4764209,-0.01,-0.08,1.04,0.61,3.42,-0.67,875.53,31.39
4764247,-0.0,-0.08,1.03,0.67,3.91,-0.85,875.45,31.39
4764285,-0.02,-0.08,1.0,0.61,3.78,-0.98,875.48,31.4
4764323,-0.02,-0.08,1.0,0.85,4.82,-1.1,875.46,31.39
4764373,-0.03,-0.08,1.0,0.67,5.07,-1.04,875.45,31.37
4764411,-0.03,-0.08,1.02,0.67,4.33,-1.16,875.51,31.4
4764449,-0.04,-0.08,1.03,0.43,4.33,-1.16,875.52,31.4
4764488,-0.03,-0.08,1.02,0.49,4.52,-1.22,875.45,31.39
4764526,-0.03,-0.07,1.04,0.55,4.58,-1.04,875.44,31.4
4764564,-0.03,-0.08,1.02,0.31,4.46,-1.16,875.42,31.39
4764602,-0.04,-0.07,1.02,0.24,4.7,-1.1,875.46,31.4
4764640,-0.04,-0.08,1.02,0.18,5.0,-1.1,875.44,31.39
4764678,-0.05,-0.08,1.03,0.06,4.7,-1.16,875.44,31.4
4764716,-0.05,-0.08,1.07,0.31,4.88,-0.98,875.39,31.4
4764766,-0.05,-0.08,1.06,0.49,5.37,-0.92,875.4,31.39
4764804,-0.05,-0.07,1.08,0.31,4.82,-0.67,875.34,31.38
4764842,-0.05,-0.07,1.08,0.61,4.58,-0.55,875.36,31.39
4764880,-0.06,-0.07,1.09,0.92,4.27,-0.61,875.34,31.39
4764919,-0.06,-0.08,1.08,1.22,4.21,-0.37,875.32,31.41
4764957,-0.06,-0.07,1.09,1.28,4.03,-0.18,875.32,31.42
4764995,-0.05,-0.07,1.1,1.53,4.03,-0.24,875.31,31.41
4765033,-0.07,-0.07,1.08,1.77,4.21,-0.24,875.33,31.42
4765071,-0.06,-0.07,1.09,2.01,4.21,0.12,875.32,31.41
4765121,-0.07,-0.07,1.04,2.2,4.33,0.18,875.31,31.41
4765159,-0.08,-0.07,1.05,2.26,4.15,0.18,875.31,31.4
4765197,-0.06,-0.07,1.02,2.44,4.39,0.31,875.28,31.41
4765235,-0.06,-0.07,0.99,2.2,4.58,0.43,875.21,31.41
4765274,-0.06,-0.07,0.97,2.2,4.7,0.73,875.23,31.41
4765312,-0.07,-0.07,0.98,2.26,4.7,0.85,875.28,31.41
4765350,-0.07,-0.07,0.97,2.08,5.07,0.92,875.2,31.41
4765388,-0.07,-0.07,0.96,1.95,4.82,1.1,875.21,31.41
4765426,-0.08,-0.07,0.98,2.01,5.19,1.16,875.22,31.4
4765464,-0.07,-0.08,0.97,1.77,5.37,1.4,875.13,31.41
4765540,-0.08,-0.07,0.98,1.59,5.49,1.77,875.21,31.39
4765578,-0.07,-0.07,0.96,1.16,6.1,1.95,875.13,31.4
4765617,-0.07,-0.06,0.98,1.28,5.49,1.95,875.11,31.4
4765706,-0.08,-0.07,1.01,1.22,5.31,2.44,875.1,31.36
4765744,-0.06,-0.07,1.01,1.46,5.31,2.69,875.09,31.38
4765782,-0.07,-0.07,1.03,1.46,4.88,2.81,875.1,31.39
4765821,-0.06,-0.07,1.05,1.59,4.76,2.87,875.06,31.38
4765859,-0.06,-0.07,1.04,1.65,5.31,3.05,875.07,31.4
4765897,-0.06,-0.07,1.03,1.77,4.64,3.23,875.08,31.38
4765947,-0.07,-0.06,1.03,2.01,4.58,3.17,875.04,31.38
4765985,-0.07,-0.07,1.04,1.95,4.64,3.3,875.06,31.38
4766023,-0.07,-0.06,1.02,2.26,4.52,3.42,875.03,31.38
4766061,-0.08,-0.06,1.03,2.08,4.21,3.66,875.02,31.39
4766099,-0.08,-0.07,0.99,2.5,4.7,3.85,875.06,31.39
4766137,-0.07,-0.06,0.99,2.38,4.33,3.66,875.02,31.39
4766176,-0.07,-0.07,0.99,2.32,4.27,3.97,875.0,31.38
4766214,-0.07,-0.07,0.97,2.38,4.27,4.15,875.0,31.36
4766252,-0.07,-0.07,0.97,1.95,4.76,4.15,875.04,31.37
4766290,-0.07,-0.07,0.98,2.32,4.7,4.27,875.02,31.38
4766340,-0.05,-0.08,0.97,2.14,4.21,4.33,874.97,31.35
4766378,-0.07,-0.06,0.99,2.32,4.03,4.52,874.93,31.34
4766416,-0.06,-0.07,0.96,2.56,4.21,4.58,874.96,31.37
4766454,-0.05,-0.07,0.97,2.5,3.85,4.7,874.88,31.35
4766492,-0.05,-0.07,0.95,2.32,3.91,4.58,874.94,31.35
4766530,-0.06,-0.07,0.96,2.32,3.11,4.76,874.94,31.35
4766569,-0.06,-0.08,0.96,2.08,3.36,4.76,874.92,31.35
4766607,-0.06,-0.07,0.94,2.32,2.32,4.82,874.88,31.35
4766645,-0.06,-0.07,0.92,2.38,2.32,4.76,874.85,31.35
4766683,-0.05,-0.07,0.94,2.26,1.59,4.82,874.9,31.35
4766733,-0.04,-0.07,0.96,2.2,1.71,4.94,874.79,31.34
4766771,-0.06,-0.08,0.94,2.01,0.37,5.07,874.83,31.35
4766809,-0.06,-0.07,0.96,2.14,0.61,4.88,874.83,31.34
4766847,-0.06,-0.08,0.94,1.89,1.04,4.88,874.8,31.34
4766885,-0.06,-0.07,0.93,1.77,0.98,4.76,874.88,31.34
4766923,-0.06,-0.06,0.96,2.01,1.34,4.94,874.78,31.34
4766962,-0.04,-0.08,0.91,1.95,1.4,5.0,874.84,31.33
4767000,-0.06,-0.06,0.93,1.89,1.46,4.88,874.79,31.33
4767038,-0.05,-0.07,0.91,2.01,2.44,4.82,874.8,31.34
4767088,-0.05,-0.07,0.95,1.95,2.32,4.7,874.75,31.33
4767126,-0.04,-0.07,0.93,1.89,2.08,4.7,874.78,31.35
4767164,-0.03,-0.07,1.0,1.71,1.89,4.64,874.75,31.34
4767202,-0.04,-0.08,1.01,1.71,2.56,4.46,874.72,31.35
4767240,-0.05,-0.07,1.01,1.46,1.71,4.7,874.75,31.35
4767279,-0.06,-0.07,0.99,1.34,1.22,4.46,874.73,31.34
4767317,-0.05,-0.08,0.97,1.16,1.22,4.39,874.68,31.34
4767355,-0.04,-0.07,0.91,0.98,0.92,4.21,874.74,31.34
4767393,-0.04,-0.07,0.93,1.16,0.43,4.27,874.7,31.34
4767431,-0.04,-0.08,0.92,1.04,0.92,4.15,874.63,31.35
4767481,-0.04,-0.07,0.94,0.79,0.24,3.91,874.68,31.34
4767519,-0.05,-0.07,0.98,0.92,1.77,3.91,874.63,31.34
4767557,-0.05,-0.07,0.99,0.92,1.77,3.78,874.65,31.35
4767595,-0.05,-0.06,1.04,0.92,2.2,3.6,874.67,31.35
4767633,-0.03,-0.07,1.03,0.92,2.56,3.54,874.64,31.36
4767672,-0.04,-0.07,1.06,0.73,2.62,3.54,874.67,31.35
4767710,-0.06,-0.07,1.03,1.04,2.2,3.42,874.67,31.34
4767748,-0.06,-0.07,0.98,1.1,2.14,3.42,874.6,31.34
4767786,-0.05,-0.06,0.99,1.16,1.53,3.11,874.61,31.34
4767824,-0.04,-0.07,0.97,1.04,0.85,3.36,874.57,31.36
4767874,-0.04,-0.07,0.99,1.1,0.18,3.11,874.64,31.33
4767912,-0.04,-0.07,0.96,0.79,0.61,3.17,874.53,31.35
4767950,-0.05,-0.06,1.0,0.79,-0.55,3.11,874.54,31.35
4767988,-0.05,-0.07,1.02,0.92,-0.85,3.23,874.51,31.35
4768026,-0.07,-0.08,1.0,0.61,-0.31,2.87,874.55,31.36
4768065,-0.07,-0.06,1.05,0.85,-0.67,2.99,874.54,31.36
4768103,-0.06,-0.06,1.05,0.85,-0.85,2.93,874.5,31.35
4768141,-0.07,-0.06,1.08,0.55,-0.92,2.99,874.48,31.34
4768179,-0.07,-0.06,1.06,0.37,-0.43,2.81,874.47,31.35
4768229,-0.06,-0.06,1.09,0.31,-0.67,2.99,874.51,31.35
4768267,-0.07,-0.07,1.07,0.43,-1.28,2.93,874.53,31.34
4768305,-0.08,-0.06,1.07,0.37,-2.08,3.05,874.42,31.35
4768343,-0.07,-0.06,1.08,0.49,-1.65,3.11,874.4,31.35
4768381,-0.07,-0.06,1.04,0.06,-2.2,3.05,874.37,31.34
4768420,-0.08,-0.06,1.02,0.06,-2.62,3.36,874.38,31.34
4768458,-0.08,-0.06,1.0,0.0,-2.44,3.36,874.4,31.34
4768496,-0.09,-0.06,1.0,0.06,-1.83,3.36,874.43,31.34
4768534,-0.08,-0.06,0.98,0.12,-0.85,3.54,874.41,31.35
4768572,-0.1,-0.06,1.0,0.24,-0.49,3.48,874.45,31.36
4768648,-0.08,-0.06,0.99,0.31,0.55,3.78,874.38,31.31
4768686,-0.1,-0.07,0.98,0.06,1.59,3.97,874.31,31.32
4768724,-0.1,-0.06,0.96,-0.24,0.92,4.15,874.32,31.33
4768814,-0.09,-0.07,0.93,-0.49,1.65,4.52,874.33,31.29
4768852,-0.09,-0.06,0.96,-0.55,1.53,4.76,874.32,31.3
4768890,-0.09,-0.06,0.96,-0.49,0.98,4.88,874.29,31.31
4768928,-0.08,-0.07,0.98,-0.61,0.73,5.19,874.31,31.31
4768966,-0.09,-0.06,0.97,-0.67,0.67,5.49,874.29,31.3
4769004,-0.09,-0.07,0.99,-0.67,0.49,5.62,874.3,31.3
4769054,-0.08,-0.07,1.0,-0.67,0.55,5.74,874.27,31.3
4769092,-0.08,-0.07,1.02,-0.67,-0.06,5.86,874.29,31.31
4769130,-0.07,-0.07,1.01,-0.85,0.31,6.23,874.25,31.31
4769169,-0.08,-0.06,1.03,-0.98,-0.37,6.41,874.25,31.31
4769207,-0.09,-0.06,1.07,-0.92,-0.85,6.41,874.24,31.3
4769245,-0.12,-0.06,1.05,-1.1,-0.85,6.59,874.23,31.3
4769283,-0.07,-0.06,1.09,-1.22,-0.85,6.71,874.24,31.31
4769321,-0.08,-0.06,1.1,-1.34,-0.79,6.71,874.21,31.32
4769359,-0.08,-0.06,1.14,-1.34,-1.1,6.65,874.16,31.32
4769397,-0.08,-0.06,1.12,-1.34,-0.92,6.9,874.24,31.33
4769447,-0.07,-0.05,1.15,-1.22,-0.61,6.84,874.17,31.32
4769485,-0.08,-0.05,1.16,-1.16,-0.73,6.96,874.2,31.33
4769523,-0.07,-0.06,1.14,-1.16,-0.55,7.02,874.17,31.32
4769562,-0.08,-0.06,1.13,-1.22,-0.79,7.08,874.18,31.33
4769600,-0.08,-0.05,1.17,-1.53,-1.1,7.32,874.14,31.32
4769638,-0.08,-0.05,1.19,-1.53,-0.61,7.2,874.17,31.33
4769676,-0.09,-0.05,1.18,-1.34,-1.04,7.26,874.12,31.32
4769714,-0.07,-0.05,1.22,-1.46,-0.79,7.63,874.14,31.32
4769752,-0.08,-0.05,1.16,-1.4,-1.16,7.39,874.09,31.32
4769802,-0.09,-0.05,1.16,-1.34,-1.34,7.69,874.08,31.3
4769840,-0.08,-0.06,1.12,-1.53,-1.28,7.63,874.1,31.32
4769878,-0.08,-0.05,1.16,-1.71,-1.83,7.81,874.04,31.31
4769917,-0.09,-0.05,1.13,-1.95,-1.65,8.0,874.02,31.31
4769955,-0.08,-0.06,1.15,-2.2,-1.95,8.12,874.0,31.32
4769993,-0.08,-0.05,1.11,-2.5,-1.4,8.06,874.04,31.33
4770031,-0.07,-0.05,1.11,-2.56,-1.83,8.18,874.02,31.33
4770069,-0.08,-0.06,1.1,-2.5,-2.81,8.36,874.0,31.33
4770107,-0.08,-0.06,1.07,-2.75,-2.69,8.48,873.97,31.33
4770157,-0.07,-0.05,1.08,-2.99,-2.81,8.85,874.03,31.31
4770195,-0.08,-0.06,1.07,-3.23,-3.17,8.91,874.03,31.32
4770233,-0.09,-0.06,1.06,-3.54,-3.3,9.03,874.0,31.33
4770271,-0.07,-0.06,1.09,-3.78,-3.42,9.09,873.99,31.32
4770310,-0.06,-0.06,1.1,-3.78,-2.81,9.22,873.95,31.32
4770348,-0.08,-0.05,1.1,-4.03,-3.05,9.22,873.88,31.32
4770386,-0.08,-0.05,1.13,-4.15,-2.69,9.03,873.97,31.32
4770424,-0.07,-0.06,1.13,-4.21,-2.2,9.16,873.97,31.32
4770462,-0.08,-0.06,1.14,-4.46,-2.62,9.03,873.94,31.34
4770500,-0.09,-0.05,1.18,-4.64,-2.01,9.16,873.87,31.32
4770550,-0.07,-0.05,1.18,-4.76,-1.65,9.34,873.89,31.31
4770588,-0.07,-0.04,1.18,-4.94,-1.53,9.28,873.86,31.31
4770627,-0.08,-0.05,1.21,-4.7,-1.28,9.22,873.87,31.33
4770665,-0.08,-0.05,1.18,-4.88,-0.98,9.22,873.83,31.33
4770703,-0.07,-0.04,1.21,-4.82,-1.1,9.28,873.83,31.34
4770741,-0.06,-0.04,1.19,-4.7,-1.28,9.22,873.83,31.33
4770779,-0.07,-0.04,1.17,-4.76,-1.04,9.28,873.81,31.32
4770817,-0.06,-0.04,1.21,-4.88,-0.49,9.34,873.86,31.33
4770855,-0.06,-0.05,1.17,-4.64,-0.18,9.28,873.81,31.33
4770905,-0.08,-0.04,1.18,-4.64,-0.61,9.34,873.86,31.33
4770943,-0.06,-0.04,1.16,-4.64,0.06,9.28,873.79,31.32
4770982,-0.05,-0.04,1.17,-4.76,-0.73,9.28,873.83,31.33
4771020,-0.06,-0.04,1.17,-4.76,-0.49,9.4,873.78,31.33
4771058,-0.06,-0.05,1.15,-4.7,-0.79,9.4,873.77,31.33
4771096,-0.06,-0.04,1.17,-4.7,-0.73,9.46,873.8,31.33
4771134,-0.06,-0.04,1.15,-4.76,-0.85,9.58,873.72,31.33
4771172,-0.07,-0.05,1.17,-4.76,-0.55,9.4,873.75,31.34
4771210,-0.06,-0.04,1.15,-4.7,-0.18,9.64,873.73,31.33
4771260,-0.05,-0.04,1.16,-4.46,-0.31,9.77,873.73,31.33
4771298,-0.06,-0.04,1.14,-4.52,0.12,9.64,873.69,31.33
4771336,-0.05,-0.03,1.18,-4.39,0.18,9.7,873.68,31.34
4771375,-0.06,-0.05,1.19,-4.21,0.49,9.83,873.67,31.34
4771413,-0.06,-0.04,1.18,-3.97,0.79,9.89,873.66,31.33
4771451,-0.07,-0.05,1.15,-3.72,1.34,9.95,873.69,31.34
4771489,-0.06,-0.04,1.14,-3.66,1.46,10.19,873.7,31.33
4771527,-0.06,-0.04,1.14,-3.42,1.46,10.07,873.64,31.33
4771565,-0.05,-0.05,1.07,-3.11,2.08,10.19,873.6,31.34
4771603,-0.06,-0.04,1.09,-3.23,2.32,10.13,873.55,31.34
4771679,-0.04,-0.05,1.1,-3.05,2.44,10.25,873.59,31.31
4771718,-0.06,-0.04,1.14,-3.05,3.6,10.25,873.52,31.31
4771756,-0.06,-0.04,1.14,-2.99,4.52,10.13,873.59,31.32
4771845,-0.05,-0.03,1.17,-2.69,4.76,10.68,873.53,31.29
4771883,-0.04,-0.05,1.15,-2.56,4.15,10.68,873.47,31.3
4771922,-0.05,-0.03,1.14,-2.62,3.54,10.93,873.44,31.3
4771960,-0.04,-0.04,1.15,-2.5,3.3,10.99,873.46,31.3
4771998,-0.04,-0.04,1.15,-2.5,3.91,11.11,873.46,31.3
4772036,-0.05,-0.04,1.14,-2.38,3.3,11.23,873.47,31.29
4772086,-0.05,-0.04,1.13,-2.38,3.66,11.29,873.46,31.3
4772124,-0.04,-0.04,1.12,-2.32,2.99,11.23,873.49,31.3
4772162,-0.04,-0.04,1.06,-2.56,2.32,11.41,873.46,31.29
4772200,-0.04,-0.04,1.04,-2.75,2.32,11.41,873.41,31.29
4772238,-0.04,-0.05,0.98,-2.87,1.4,11.47,873.39,31.31
4772276,-0.03,-0.05,0.99,-3.17,0.92,11.72,873.46,31.31
4772315,-0.04,-0.06,0.94,-3.17,0.37,12.02,873.47,31.32
4772353,-0.04,-0.04,0.95,-3.42,0.06,11.84,873.43,31.32
4772391,-0.05,-0.05,0.92,-3.6,0.24,11.96,873.46,31.32
4772441,-0.03,-0.05,0.91,-4.03,-0.49,12.08,873.51,31.33
4772479,-0.04,-0.04,0.93,-4.64,-0.12,11.96,873.37,31.3
4772517,-0.02,-0.05,0.93,-5.0,0.24,11.9,873.41,31.33
4772555,-0.03,-0.06,0.91,-5.25,0.92,11.9,873.4,31.33
4772593,-0.03,-0.04,0.94,-5.43,1.28,11.72,873.41,31.32
4772631,0.01,-0.05,1.01,-5.55,1.71,11.35,873.42,31.33
4772670,-0.0,-0.04,1.0,-5.68,1.83,11.54,873.36,31.33
4772708,-0.02,-0.04,1.07,-5.49,2.08,11.41,873.35,31.33
4772746,-0.0,-0.05,1.09,-5.43,2.81,10.93,873.4,31.34
4772796,-0.01,-0.02,1.11,-5.07,2.93,10.99,873.34,31.33
4772834,-0.02,-0.04,1.02,-5.13,4.82,10.93,873.36,31.33
4772872,-0.01,-0.03,1.05,-5.19,4.52,10.44,873.29,31.33
4772910,-0.02,-0.05,0.98,-5.13,5.55,10.25,873.29,31.31
4772948,-0.01,-0.06,0.97,-4.94,5.07,10.07,873.33,31.34
4772987,-0.02,-0.04,0.99,-4.7,5.68,9.89,873.32,31.33
4773025,-0.01,-0.06,0.94,-4.27,4.94,9.83,873.31,31.33
4773063,-0.04,-0.03,0.99,-4.09,4.88,9.83,873.27,31.34
4773101,-0.01,-0.05,0.99,-3.85,5.92,9.7,873.35,31.34
4773139,-0.01,-0.05,1.04,-3.85,4.82,9.64,873.29,31.33
4773189,-0.02,-0.03,1.11,-3.66,4.33,9.7,873.32,31.33
4773227,-0.02,-0.04,1.1,-3.72,4.58,9.52,873.25,31.33
4773265,-0.03,-0.03,1.12,-3.78,4.58,9.34,873.23,31.35
4773303,-0.03,-0.03,1.1,-3.42,5.31,9.4,873.28,31.34
4773342,-0.02,-0.03,1.07,-3.11,5.31,9.28,873.3,31.36
4773380,-0.04,-0.04,1.02,-2.99,6.41,9.16,873.24,31.34
4773418,-0.03,-0.03,1.03,-2.75,6.29,9.03,873.3,31.37
4773456,-0.01,-0.04,1.05,-2.62,5.98,8.97,873.27,31.36
4773494,-0.02,-0.06,1.03,-2.32,6.1,8.97,873.3,31.36
4773544,-0.03,-0.04,1.05,-2.44,6.1,9.03,873.31,31.36
4773582,-0.03,-0.04,0.97,-2.62,5.92,9.09,873.33,31.36
4773620,-0.04,-0.03,0.99,-2.93,4.39,8.97,873.27,31.37
4773659,-0.02,-0.04,0.97,-2.99,5.0,9.03,873.24,31.36
4773697,-0.02,-0.04,1.0,-3.3,4.52,8.85,873.27,31.37
4773735,-0.04,-0.04,1.01,-3.17,4.46,9.09,873.25,31.36
4773773,-0.03,-0.04,1.03,-3.11,3.72,9.03,873.23,31.37
4773811,-0.03,-0.03,1.04,-3.23,4.76,9.09,873.28,31.36
4773849,-0.04,-0.04,1.0,-3.05,4.94,8.97,873.3,31.35
4773888,-0.04,-0.05,1.0,-2.69,4.82,8.85,873.29,31.36
4773937,-0.04,-0.03,0.95,-2.87,5.55,8.61,873.25,31.34
4773976,-0.03,-0.02,1.01,-2.75,5.62,8.79,873.33,31.34
4774014,-0.04,-0.03,1.01,-2.69,5.55,8.85,873.27,31.35
4774052,-0.05,-0.04,1.04,-2.62,6.29,8.79,873.24,31.35
4774090,-0.04,-0.04,1.08,-2.44,6.35,8.73,873.23,31.35
4774128,-0.04,-0.03,1.09,-2.5,6.41,8.73,873.24,31.35
4774166,-0.05,-0.02,1.08,-2.56,6.77,8.79,873.24,31.34
4774205,-0.04,-0.03,1.08,-2.2,7.2,8.91,873.3,31.35
4774243,-0.04,-0.03,1.06,-2.26,7.26,8.85,873.26,31.35
4774293,-0.03,-0.03,1.07,-2.26,6.53,8.97,873.32,31.34
4774331,-0.05,-0.04,1.01,-2.08,6.35,9.03,873.28,31.34
4774369,-0.05,-0.04,1.04,-2.26,6.16,9.16,873.26,31.34
4774407,-0.04,-0.04,1.01,-2.14,6.29,9.09,873.29,31.34
4774445,-0.04,-0.04,0.99,-2.32,5.0,9.34,873.3,31.34
4774483,-0.04,-0.03,1.0,-2.5,4.46,9.16,873.34,31.36
4774521,-0.04,-0.03,1.0,-2.5,4.64,9.09,873.33,31.34
4774560,-0.03,-0.04,1.03,-2.87,4.09,9.28,873.25,31.34
4774598,-0.05,-0.04,1.02,-2.56,4.52,9.34,873.31,31.33
4774636,-0.05,-0.03,1.03,-2.62,4.58,9.28,873.28,31.35
4774712,-0.05,-0.02,1.03,-2.44,4.58,9.34,873.3,31.31
4774750,-0.05,-0.03,1.04,-2.32,5.13,9.28,873.29,31.32
4774788,-0.05,-0.03,1.03,-2.62,5.19,9.34,873.33,31.32
4774877,-0.05,-0.03,1.02,-2.62,5.31,9.52,873.29,31.29
4774916,-0.05,-0.02,1.06,-2.56,4.94,9.7,873.4,31.32
4774954,-0.06,-0.03,1.03,-2.62,5.31,9.77,873.29,31.3
4774992,-0.05,-0.03,1.06,-2.93,4.88,9.7,873.37,31.31
4775030,-0.05,-0.02,1.06,-2.56,5.31,9.7,873.34,31.3
4775068,-0.05,-0.02,1.07,-2.75,5.19,9.77,873.33,31.31
4775118,-0.05,-0.03,1.08,-2.56,5.62,9.89,873.36,31.3
4775156,-0.06,-0.04,1.08,-2.56,5.25,10.01,873.41,31.3
4775194,-0.06,-0.02,1.11,-2.38,4.88,10.07,873.39,31.31
4775233,-0.04,-0.02,1.08,-2.81,5.13,10.25,873.43,31.32
4775271,-0.05,-0.01,1.12,-2.75,4.7,10.13,873.39,31.31
4775309,-0.05,-0.02,1.1,-2.69,5.37,10.19,873.39,31.3
4775347,-0.04,-0.02,1.15,-2.81,4.52,10.31,873.46,31.31
4775385,-0.05,-0.02,1.14,-2.62,5.68,10.38,873.47,31.32
4775423,-0.05,-0.02,1.13,-2.81,5.13,10.44,873.45,31.32
4775461,-0.05,-0.02,1.15,-2.5,5.98,10.38,873.46,31.31
4775511,-0.04,-0.03,1.11,-2.81,5.92,10.44,873.46,31.3
4775549,-0.04,-0.02,1.11,-2.75,6.29,10.31,873.47,31.31
4775588,-0.03,-0.02,1.1,-2.62,6.04,10.19,873.52,31.33
4775626,-0.04,-0.02,1.11,-2.56,6.1,10.25,873.54,31.33
4775664,-0.04,-0.03,1.09,-2.81,6.47,10.25,873.53,31.33
4775702,-0.04,-0.03,1.13,-2.69,6.29,10.13,873.53,31.33
4775740,-0.04,-0.03,1.12,-2.56,6.71,9.89,873.53,31.33
4775778,-0.04,-0.02,1.06,-2.69,6.9,9.83,873.55,31.33
4775817,-0.04,-0.03,1.07,-2.5,6.65,9.89,873.53,31.33
4775866,-0.04,-0.03,1.08,-2.5,6.71,9.95,873.57,31.32
4775905,-0.03,-0.04,1.04,-2.44,6.96,9.83,873.59,31.32
4775943,-0.04,-0.04,1.03,-2.5,7.57,9.83,873.63,31.32
4775981,-0.04,-0.03,1.05,-2.44,7.87,9.52,873.57,31.33
4776019,-0.04,-0.04,1.04,-2.56,7.57,9.7,873.58,31.31
4776057,-0.05,-0.04,1.05,-2.81,7.69,9.89,873.65,31.33
4776095,-0.03,-0.04,1.05,-2.69,8.24,9.89,873.63,31.33
4776133,-0.05,-0.04,1.04,-3.11,7.87,9.83,873.65,31.33
4776172,-0.05,-0.03,1.02,-3.11,7.63,10.13,873.69,31.33
4776221,-0.03,-0.02,1.06,-3.17,6.77,10.01,873.65,31.32
4776259,-0.04,-0.03,1.08,-3.17,6.59,10.07,873.64,31.32
4776298,-0.05,-0.03,1.11,-3.48,5.43,10.31,873.68,31.33
4776336,-0.04,-0.05,1.11,-3.23,6.35,10.19,873.69,31.32
4776374,-0.03,-0.04,1.11,-3.36,6.1,10.07,873.73,31.32
4776412,-0.04,-0.02,1.1,-3.36,6.53,10.07,873.73,31.32
4776450,-0.04,-0.02,1.07,-3.11,6.77,10.01,873.76,31.33
4776488,-0.04,-0.03,1.09,-3.17,6.96,9.89,873.81,31.32
4776527,-0.05,-0.03,1.09,-3.11,7.08,9.83,873.76,31.31
4776565,-0.04,-0.03,1.12,-3.05,7.26,9.83,873.7,31.3
4776615,-0.04,-0.03,1.12,-2.69,7.75,9.7,873.79,31.3
4776653,-0.05,-0.02,1.15,-2.44,8.0,9.7,873.81,31.3
4776691,-0.04,-0.03,1.1,-2.5,8.54,9.77,873.85,31.31
4776729,-0.05,-0.02,1.1,-2.14,8.54,9.52,873.83,31.31
4776767,-0.05,-0.02,1.06,-2.2,9.7,9.46,873.81,31.31
4776805,-0.05,-0.02,1.08,-1.89,9.52,9.4,873.84,31.3
4776844,-0.04,-0.03,1.06,-2.01,10.86,9.4,873.93,31.33
4776882,-0.04,-0.03,1.08,-1.83,11.35,9.22,873.87,31.3
4776920,-0.04,-0.02,1.09,-1.59,11.66,9.34,873.88,31.31
4776970,-0.05,-0.03,1.1,-1.46,12.39,9.22,873.91,31.3
4777008,-0.04,-0.02,1.1,-1.4,13.24,9.03,873.91,31.3
4777046,-0.04,-0.01,1.14,-1.34,13.31,9.34,873.84,31.29
4777084,-0.04,-0.02,1.13,-1.22,13.31,9.22,873.87,31.3
4777122,-0.04,-0.0,1.19,-1.28,12.63,9.28,873.9,31.3
4777161,-0.03,-0.01,1.22,-0.98,11.9,9.46,873.93,31.3
4777199,-0.02,-0.02,1.22,-1.1,10.31,9.46,873.92,31.3
4777237,-0.03,-0.0,1.25,-0.98,8.85,9.52,873.92,31.3
4777275,-0.04,-0.0,1.27,-0.67,6.53,9.77,873.91,31.28
4777313,-0.04,-0.01,1.19,-0.92,4.76,9.83,873.95,31.31
4777363,-0.04,0.0,1.26,-0.67,2.69,9.77,873.96,31.29
4777401,-0.05,-0.02,1.19,-0.98,1.28,10.07,873.93,31.29
4777439,-0.05,-0.0,1.22,-1.22,0.12,10.19,873.98,31.31
4777478,-0.05,-0.02,1.18,-1.1,-0.18,10.01,873.97,31.3
4777516,-0.04,-0.01,1.19,-0.98,-0.92,10.01,874.07,31.32
4777554,-0.04,-0.01,1.16,-0.92,-1.1,9.95,874.03,31.3
4777592,-0.05,-0.02,1.14,-0.92,-1.71,9.83,874.07,31.31
4777630,-0.06,-0.02,1.14,-0.92,-1.95,9.83,874.05,31.3
4777668,-0.05,-0.03,1.1,-0.85,-1.65,9.7,874.11,31.29
4777744,-0.06,-0.03,1.05,-1.04,-0.12,9.4,874.1,31.27
4777782,-0.06,-0.03,1.08,-1.1,-0.12,9.28,874.11,31.29
4777820,-0.06,-0.03,1.06,-1.22,1.65,9.09,874.14,31.29
4777984,-0.05,-0.04,1.09,-1.89,3.3,9.03,874.2,31.25
4778023,-0.06,-0.03,1.06,-2.14,3.78,9.03,874.25,31.26
4778061,-0.07,-0.03,1.09,-2.08,3.97,9.16,874.21,31.25
4778099,-0.05,-0.04,1.04,-2.14,4.39,8.97,874.24,31.26
4778137,-0.06,-0.03,1.07,-2.2,4.33,8.91,874.27,31.27
4778175,-0.05,-0.04,1.01,-2.5,5.43,9.22,874.29,31.29
4778225,-0.04,-0.04,1.06,-2.44,5.0,9.16,874.28,31.29
4778263,-0.05,-0.04,1.02,-2.32,5.07,9.22,874.31,31.28
4778301,-0.05,-0.04,1.03,-2.69,4.7,9.46,874.31,31.29
4778339,-0.05,-0.04,1.02,-2.81,5.0,9.16,874.34,31.3
4778377,-0.03,-0.03,1.05,-2.75,4.15,9.09,874.34,31.3
4778416,-0.04,-0.04,1.04,-3.23,3.66,9.58,874.31,31.29
4778454,-0.04,-0.03,1.09,-3.42,2.69,9.46,874.33,31.31
4778492,-0.04,-0.04,1.09,-3.54,3.42,9.09,874.39,31.31
4778530,-0.04,-0.03,1.14,-3.6,2.44,9.28,874.39,31.31
4778568,-0.04,-0.03,1.17,-3.36,2.44,9.28,874.45,31.32
4778618,-0.05,-0.03,1.14,-3.36,2.26,8.91,874.42,31.3
4778656,-0.04,-0.03,1.18,-3.36,2.14,9.03,874.43,31.31
4778694,-0.05,-0.03,1.13,-3.54,2.14,8.85,874.39,31.31
4778732,-0.07,-0.02,1.15,-3.3,1.89,9.03,874.44,31.29
4778771,-0.05,-0.03,1.14,-2.99,2.5,8.79,874.46,31.3
4778809,-0.05,-0.03,1.18,-3.23,2.38,8.67,874.43,31.3
4778847,-0.04,-0.04,1.13,-3.23,3.11,8.48,874.49,31.3
4778885,-0.06,-0.03,1.14,-3.17,3.36,8.3,874.48,31.3
4778923,-0.04,-0.03,1.1,-3.36,4.64,8.36,874.51,31.3
4778973,-0.05,-0.02,1.14,-3.6,4.21,8.18,874.45,31.3
4779011,-0.06,-0.03,1.09,-3.66,5.25,8.12,874.51,31.31
4779049,-0.06,-0.02,1.15,-3.48,5.19,8.12,874.57,31.31
4779087,-0.04,-0.02,1.18,-3.3,5.62,8.0,874.58,31.31
4779126,-0.05,-0.02,1.2,-3.42,4.27,8.0,874.54,31.31
4779164,-0.06,-0.03,1.16,-3.23,5.37,7.81,874.6,31.32
4779202,-0.05,-0.02,1.17,-2.93,4.82,7.93,874.6,31.32
4779240,-0.05,-0.02,1.17,-2.75,5.0,7.93,874.63,31.31
4779278,-0.04,-0.01,1.16,-2.99,4.27,7.87,874.57,31.32
4779316,-0.07,-0.01,1.17,-2.62,3.48,7.87,874.61,31.31
4779366,-0.06,-0.03,1.13,-2.32,3.54,7.87,874.63,31.3
4779404,-0.05,-0.02,1.18,-2.32,3.3,7.87,874.6,31.3
4779443,-0.04,-0.01,1.17,-2.08,3.48,7.87,874.59,31.31
4779481,-0.05,-0.01,1.19,-2.2,3.17,7.69,874.57,31.31
4779519,-0.06,-0.01,1.23,-2.26,3.78,7.69,874.59,31.32
4779557,-0.05,-0.0,1.26,-2.5,3.54,7.75,874.57,31.32
4779595,-0.05,0.0,1.28,-2.56,2.81,7.51,874.57,31.31
4779633,-0.06,0.01,1.29,-2.56,2.08,7.75,874.6,31.33
4779671,-0.06,0.01,1.31,-2.62,1.65,7.93,874.59,31.33
4779721,-0.05,0.0,1.36,-2.2,-0.24,8.06,874.65,31.32
4779759,-0.05,-0.01,1.33,-1.65,-0.67,8.0,874.6,31.32
4779798,-0.07,0.0,1.28,-1.71,-1.04,7.93,874.68,31.32
4779836,-0.04,-0.0,1.27,-1.77,-0.98,8.0,874.65,31.33
4779874,-0.04,-0.01,1.23,-1.59,-2.5,8.18,874.71,31.32
4779912,-0.07,-0.01,1.23,-1.71,-2.56,8.06,874.69,31.32
4779950,-0.06,-0.02,1.18,-1.71,-2.14,8.12,874.73,31.34
4779988,-0.05,-0.0,1.22,-1.71,-2.75,8.06,874.68,31.32
4780027,-0.06,-0.01,1.19,-1.46,-2.81,8.06,874.73,31.33
4780065,-0.07,-0.02,1.18,-1.71,-2.87,8.3,874.78,31.33
4780114,-0.07,-0.03,1.16,-1.77,-2.5,8.18,874.77,31.32
4780153,-0.07,-0.03,1.14,-1.77,-3.11,8.18,874.77,31.31
4780191,-0.07,-0.02,1.14,-1.95,-2.62,8.36,874.82,31.32
4780229,-0.07,-0.03,1.11,-2.2,-2.2,8.36,874.84,31.34
4780267,-0.07,-0.02,1.11,-2.38,-1.95,8.36,874.84,31.32
4780305,-0.08,-0.0,1.1,-2.38,-1.22,8.42,874.86,31.33
4780344,-0.07,-0.03,1.12,-2.56,-0.67,8.48,874.86,31.33
4780382,-0.07,-0.02,1.12,-2.87,0.43,8.3,874.84,31.33
4780420,-0.08,-0.02,1.15,-2.99,0.73,8.3,874.81,31.32
4780470,-0.07,-0.03,1.12,-3.48,2.2,8.48,874.87,31.32
4780508,-0.07,-0.02,1.15,-3.42,3.23,8.54,874.83,31.3
4780546,-0.07,-0.02,1.13,-3.6,4.33,8.85,874.88,31.31
4780584,-0.07,-0.02,1.18,-3.54,4.64,8.79,874.9,31.33
4780623,-0.06,-0.02,1.18,-3.11,5.68,9.03,874.93,31.34
4780661,-0.06,-0.02,1.21,-3.05,4.82,9.28,874.97,31.32
4780699,-0.05,-0.02,1.21,-2.81,5.37,9.34,874.91,31.33
4780737,-0.05,-0.01,1.19,-2.81,4.58,9.22,874.93,31.31
4780775,-0.05,-0.01,1.24,-2.87,4.33,9.64,874.95,31.32
4780851,-0.07,-0.02,1.23,-2.75,3.91,9.46,874.92,31.29
4780889,-0.05,-0.02,1.22,-2.56,3.97,9.64,874.99,31.3
4780927,-0.06,-0.01,1.25,-2.5,2.62,9.77,874.98,31.32
4781017,-0.06,-0.01,1.26,-2.75,3.6,9.77,874.97,31.29
4781055,-0.05,-0.03,1.23,-2.87,3.36,10.01,875.01,31.29
4781093,-0.07,-0.02,1.22,-2.93,3.05,10.01,875.0,31.3
4781132,-0.08,-0.02,1.21,-2.81,4.76,9.89,875.0,31.31
4781170,-0.05,-0.03,1.2,-2.81,4.94,9.89,874.99,31.31
4781208,-0.06,-0.01,1.23,-2.62,4.94,9.89,875.05,31.3
4781246,-0.07,-0.06,1.16,-2.32,6.41,10.01,875.07,31.3
4781296,-0.06,-0.02,1.18,-2.5,6.9,9.89,875.04,31.28
4781334,-0.05,-0.03,1.16,-2.44,7.26,10.01,875.02,31.3
4781372,-0.07,-0.04,1.13,-2.32,6.65,10.19,875.1,31.31
4781411,-0.07,-0.04,1.12,-2.32,7.57,10.38,875.09,31.3
4781449,-0.04,-0.04,1.13,-2.32,6.29,10.5,875.12,31.31
4781487,-0.06,-0.04,1.1,-2.38,6.04,10.8,875.1,31.3
4781525,-0.06,-0.04,1.09,-2.75,5.13,10.93,875.1,31.3
4781563,-0.06,-0.03,1.16,-2.75,5.0,10.99,875.05,31.3
4781601,-0.05,-0.03,1.14,-3.3,4.21,10.99,875.08,31.3
4781651,-0.05,-0.02,1.2,-3.72,3.78,11.23,875.08,31.29
4781689,-0.06,-0.03,1.22,-4.21,3.97,11.17,875.17,31.3
4781728,-0.03,-0.02,1.32,-4.88,4.03,11.17,875.11,31.3
4781766,-0.05,-0.02,1.35,-4.76,4.58,11.17,875.11,31.31
4781804,-0.06,-0.01,1.35,-4.76,5.0,11.05,875.16,31.3
4781842,-0.05,0.0,1.36,-4.58,5.49,10.93,875.13,31.3
4781880,-0.04,-0.01,1.36,-4.52,5.98,10.93,875.14,31.3
4781918,-0.05,-0.03,1.28,-4.46,5.55,11.05,875.16,31.29
4781957,-0.04,-0.01,1.32,-4.39,4.94,10.86,875.16,31.31
4781995,-0.05,-0.02,1.31,-4.39,6.35,10.8,875.19,31.3
4782045,-0.04,-0.01,1.33,-3.91,5.86,10.62,875.2,31.3
4782083,-0.05,-0.03,1.28,-3.78,6.65,10.74,875.18,31.31
4782121,-0.03,-0.03,1.29,-3.85,6.23,10.68,875.19,31.29
4782159,-0.03,-0.02,1.29,-3.54,6.47,10.56,875.23,31.3
4782198,-0.05,-0.01,1.28,-3.6,5.43,10.62,875.22,31.3
4782236,-0.05,-0.02,1.25,-3.48,5.49,10.86,875.16,31.3
4782274,-0.04,-0.02,1.28,-3.6,5.13,10.8,875.22,31.3
4782312,-0.05,-0.03,1.29,-3.54,4.94,10.8,875.25,31.29
4782350,-0.04,-0.03,1.22,-3.48,3.91,10.74,875.3,31.3
4782400,-0.04,-0.02,1.27,-3.36,2.87,10.86,875.28,31.29
4782438,-0.05,-0.04,1.18,-3.85,2.99,10.8,875.25,31.29
4782477,-0.06,-0.02,1.27,-3.66,1.4,10.93,875.29,31.29
4782515,-0.04,-0.04,1.24,-3.78,1.83,11.05,875.34,31.3
4782553,-0.05,-0.03,1.26,-4.09,0.92,10.99,875.27,31.3
4782591,-0.04,-0.03,1.24,-4.03,2.2,10.99,875.3,31.3
4782629,-0.03,-0.04,1.2,-4.27,1.28,10.93,875.29,31.3
4782667,-0.05,-0.03,1.19,-4.58,1.59,11.05,875.29,31.3
4782706,-0.05,-0.03,1.14,-5.0,1.71,11.17,875.32,31.3
4782755,-0.07,-0.03,1.17,-4.88,2.14,10.99,875.37,31.29
4782793,-0.05,-0.04,1.14,-5.31,1.83,10.99,875.3,31.29
4782832,-0.05,-0.04,1.2,-5.55,2.14,10.8,875.29,31.29
4782870,-0.04,-0.03,1.18,-5.86,3.78,10.86,875.35,31.3
4782908,-0.04,-0.02,1.21,-5.86,4.21,10.68,875.31,31.3
4782946,-0.06,-0.03,1.21,-5.86,5.07,10.62,875.4,31.31
4782984,-0.05,-0.03,1.22,-5.98,5.13,10.5,875.38,31.29
4783022,-0.04,-0.03,1.25,-5.86,6.1,10.38,875.35,31.29
4783061,-0.04,-0.03,1.26,-5.86,6.04,10.44,875.39,31.3
4783110,-0.02,-0.02,1.3,-5.74,6.16,10.31,875.3,31.28
4783149,-0.03,-0.01,1.34,-5.55,5.68,10.44,875.34,31.29
4783187,-0.03,-0.02,1.32,-5.8,5.31,10.38,875.27,31.29
4783225,-0.03,-0.01,1.36,-5.86,4.39,10.25,875.33,31.3
4783263,-0.02,-0.02,1.32,-5.74,4.03,10.31,875.34,31.3
4783301,-0.02,-0.0,1.37,-5.74,1.65,10.62,875.3,31.3
4783339,-0.05,-0.01,1.3,-5.68,1.1,10.5,875.4,31.29
4783378,-0.03,-0.03,1.23,-5.68,-0.24,10.86,875.44,31.3
4783416,-0.02,-0.04,1.25,-5.31,-0.43,10.62,875.44,31.3
4783454,-0.04,-0.06,1.13,-5.25,-2.01,10.8,875.47,31.29
4783504,-0.07,-0.04,1.05,-5.0,-2.26,11.05,875.46,31.27
4783542,-0.04,-0.05,0.97,-4.7,-2.38,10.68,875.5,31.29
4783580,-0.02,-0.04,0.97,-5.13,-2.87,10.68,875.46,31.28
4783618,-0.05,-0.05,0.94,-5.07,-1.53,10.68,875.5,31.29
4783657,-0.06,-0.07,0.9,-5.07,-0.43,10.38,875.52,31.29
4783695,-0.04,-0.06,0.96,-5.31,0.67,9.95,875.49,31.3
4783733,-0.05,-0.04,0.95,-5.43,2.69,10.19,875.56,31.27
4783771,-0.06,-0.05,0.96,-5.55,3.85,10.07,875.46,31.28
4783809,-0.06,-0.06,0.99,-5.8,4.03,9.83,875.4,31.28
4783885,-0.04,-0.04,1.09,-5.92,4.94,10.13,875.5,31.25
4783923,-0.05,-0.04,1.11,-5.68,5.07,9.77,875.48,31.26
4783961,-0.05,-0.03,1.16,-5.62,4.33,10.01,875.5,31.26
4784051,-0.05,-0.02,1.18,-5.62,3.85,10.25,875.47,31.23
4784089,-0.05,-0.01,1.2,-5.31,4.46,10.13,875.48,31.25
4784127,-0.07,-0.01,1.22,-5.37,4.15,10.13,875.49,31.25
4784165,-0.05,-0.01,1.28,-5.13,4.39,10.01,875.52,31.26
4784203,-0.04,-0.01,1.28,-5.13,4.39,10.01,875.48,31.26
4784242,-0.07,-0.0,1.35,-4.94,5.19,10.25,875.52,31.25
4784291,-0.05,-0.02,1.33,-4.46,5.8,10.19,875.47,31.25
4784330,-0.06,0.0,1.34,-3.97,5.92,10.19,875.48,31.25
4784368,-0.05,0.0,1.3,-3.91,6.1,10.25,875.5,31.26
4784406,-0.05,-0.0,1.35,-3.72,5.31,10.31,875.46,31.27
4784444,-0.05,-0.01,1.33,-3.42,6.04,10.01,875.43,31.26
4784482,-0.05,-0.01,1.37,-3.17,5.74,10.31,875.54,31.26
4784520,-0.05,-0.02,1.34,-2.81,6.59,10.44,875.51,31.27
4784559,-0.05,0.0,1.35,-2.75,5.68,10.38,875.51,31.28
4784597,-0.07,-0.01,1.33,-2.69,6.04,10.5,875.57,31.28
4784635,-0.06,-0.03,1.27,-2.5,5.37,10.38,875.53,31.27
4784685,-0.06,-0.02,1.25,-2.62,5.49,10.5,875.59,31.27
4784723,-0.05,-0.03,1.2,-2.62,5.86,10.44,875.59,31.27
4784761,-0.05,-0.02,1.21,-2.69,5.86,10.62,875.6,31.27
4784799,-0.06,-0.03,1.19,-2.5,6.04,10.56,875.56,31.26
4784837,-0.06,-0.03,1.22,-2.69,5.43,10.5,875.55,31.26
4784876,-0.04,-0.03,1.24,-2.75,5.8,10.74,875.55,31.27
4784914,-0.05,-0.02,1.21,-3.05,5.49,10.86,875.61,31.27
4784952,-0.06,-0.02,1.22,-3.36,5.49,10.99,875.63,31.27
4784990,-0.06,-0.02,1.21,-3.3,5.19,10.93,875.6,31.28
4785040,-0.06,-0.02,1.27,-3.42,5.07,10.93,875.55,31.27
4785078,-0.06,-0.02,1.23,-3.72,5.37,10.93,875.6,31.29
4785116,-0.06,-0.0,1.29,-3.85,4.76,11.11,875.53,31.27
4785154,-0.06,-0.01,1.29,-3.6,5.07,11.17,875.61,31.27
4785192,-0.05,-0.02,1.28,-3.6,4.58,11.11,875.63,31.28
4785231,-0.06,-0.01,1.3,-3.66,4.94,11.35,875.65,31.3
4785269,-0.06,-0.02,1.27,-3.72,5.07,11.54,875.64,31.29
4785307,-0.06,-0.01,1.26,-3.66,4.76,11.47,875.65,31.28
4785345,-0.05,-0.02,1.24,-3.48,4.64,11.41,875.59,31.29
4785395,-0.06,-0.03,1.21,-3.3,5.25,11.72,875.65,31.28
4785433,-0.04,-0.03,1.22,-3.54,4.82,11.66,875.6,31.27
4785471,-0.04,-0.02,1.23,-3.6,4.82,11.47,875.59,31.27
4785510,-0.06,-0.02,1.2,-3.66,5.13,11.6,875.62,31.27
4785548,-0.05,-0.02,1.25,-3.66,6.35,11.47,875.64,31.27
4785586,-0.04,-0.02,1.3,-3.6,6.23,11.41,875.64,31.27
4785624,-0.04,-0.01,1.33,-3.6,6.29,11.47,875.67,31.28
4785662,-0.05,-0.01,1.3,-3.85,6.04,11.54,875.66,31.27
4785701,-0.05,-0.0,1.37,-3.66,5.0,11.72,875.65,31.26
4785739,-0.04,-0.03,1.29,-3.6,5.37,11.54,875.66,31.27
4785789,-0.05,-0.02,1.3,-3.42,4.64,12.02,875.68,31.25
4785827,-0.04,-0.03,1.22,-3.36,5.13,11.78,875.69,31.26
4785865,-0.05,-0.02,1.22,-3.48,4.33,11.9,875.7,31.27
4785903,-0.04,-0.02,1.24,-3.23,4.82,11.9,875.69,31.27
4785942,-0.05,-0.03,1.2,-3.23,4.09,11.84,875.75,31.28
4785980,-0.05,-0.02,1.26,-3.54,3.78,12.02,875.68,31.27
4786018,-0.04,-0.04,1.21,-3.54,4.58,11.9,875.67,31.26
4786056,-0.05,-0.02,1.22,-3.72,4.27,11.84,875.69,31.28
4786094,-0.05,-0.03,1.2,-3.6,4.64,11.78,875.7,31.27
4786144,-0.05,-0.03,1.18,-4.09,4.52,11.78,875.75,31.26
4786183,-0.05,-0.03,1.2,-4.21,5.19,11.96,875.79,31.26
4786221,-0.04,-0.04,1.18,-4.09,5.31,11.78,875.73,31.28
4786259,-0.04,-0.03,1.22,-4.58,5.19,11.9,875.71,31.27
4786297,-0.04,-0.03,1.19,-4.39,5.55,11.9,875.75,31.27
4786335,-0.06,-0.03,1.23,-4.39,5.37,11.72,875.73,31.27
4786373,-0.05,-0.04,1.21,-4.39,6.16,11.66,875.72,31.28
4786412,-0.02,-0.03,1.23,-4.58,5.92,11.6,875.72,31.27
4786450,-0.04,-0.03,1.22,-4.52,6.77,11.84,875.72,31.28
4786500,-0.03,-0.02,1.23,-4.39,6.47,11.47,875.76,31.27
4786538,-0.03,-0.03,1.26,-4.21,6.96,11.54,875.77,31.27
4786576,-0.04,-0.03,1.27,-4.27,6.9,11.47,875.71,31.27
4786614,-0.05,-0.02,1.31,-4.03,6.71,11.54,875.74,31.27
4786652,-0.05,-0.02,1.32,-3.91,6.65,11.41,875.73,31.26
4786690,-0.05,-0.01,1.31,-4.15,6.23,11.6,875.71,31.27
4786729,-0.04,-0.0,1.33,-3.85,6.1,11.47,875.76,31.28
4786767,-0.04,-0.02,1.32,-3.78,5.86,11.54,875.72,31.27
4786805,-0.06,-0.02,1.32,-3.72,6.1,11.72,875.73,31.26
4786843,-0.05,-0.01,1.34,-3.48,6.41,11.72,875.71,31.27
4786919,-0.05,-0.01,1.37,-3.23,6.1,11.9,875.71,31.25
4786957,-0.06,-0.01,1.41,-3.23,6.77,11.66,875.68,31.24
4786995,-0.05,-0.02,1.37,-3.17,7.51,11.72,875.74,31.25
4787085,-0.05,-0.02,1.35,-2.99,6.35,12.02,875.71,31.23
4787123,-0.05,-0.02,1.34,-2.99,5.98,12.02,875.7,31.24
4787161,-0.04,-0.03,1.33,-2.99,5.8,12.02,875.75,31.24
4787199,-0.04,-0.03,1.31,-2.99,5.13,12.21,875.74,31.24
4787237,-0.04,-0.03,1.29,-2.99,4.15,12.21,875.72,31.25
4787275,-0.03,-0.04,1.24,-3.11,3.97,12.33,875.78,31.25
4787325,-0.05,-0.04,1.21,-3.3,3.66,12.15,875.78,31.24
4787363,-0.04,-0.05,1.15,-3.54,3.78,12.02,875.79,31.26
4787401,-0.05,-0.06,1.09,-3.66,3.54,12.27,875.83,31.26
4787440,-0.05,-0.06,1.03,-3.91,3.54,12.02,875.79,31.25
4787478,-0.03,-0.06,1.0,-4.15,3.72,11.96,875.81,31.24
4787516,-0.04,-0.05,1.0,-4.33,3.48,11.84,875.81,31.26
4787554,-0.05,-0.05,1.03,-4.7,3.6,11.9,875.78,31.26
4787592,-0.02,-0.05,1.07,-4.94,3.78,11.78,875.78,31.26
4787630,-0.03,-0.05,1.12,-5.19,3.48,11.72,875.81,31.25
4787680,-0.04,-0.05,1.16,-5.49,3.23,11.9,875.74,31.25
4787718,-0.03,-0.05,1.23,-5.43,3.6,11.54,875.76,31.25
4787757,-0.03,-0.04,1.23,-5.55,3.3,11.41,875.74,31.25
4787795,-0.03,-0.04,1.21,-5.68,3.05,11.66,875.78,31.24
4787833,-0.04,-0.04,1.19,-5.68,4.09,11.35,875.81,31.26
4787871,-0.03,-0.04,1.22,-5.62,3.66,11.11,875.74,31.25
4787909,-0.03,-0.04,1.26,-5.74,3.91,11.23,875.72,31.25
4787947,-0.02,-0.03,1.29,-5.62,4.39,10.68,875.69,31.25
4787986,-0.03,-0.03,1.37,-5.19,4.7,10.56,875.71,31.26
4788035,-0.03,-0.04,1.36,-5.0,5.0,10.62,875.75,31.26
4788073,-0.02,-0.03,1.43,-4.76,4.7,10.44,875.78,31.27
4788112,-0.04,-0.03,1.38,-4.21,5.37,10.44,875.7,31.27
4788150,-0.03,-0.02,1.4,-3.72,4.88,10.25,875.71,31.27
4788188,-0.02,-0.02,1.42,-3.6,5.19,9.95,875.69,31.26
4788226,-0.01,-0.03,1.42,-3.6,5.68,10.07,875.76,31.26
4788264,-0.02,-0.04,1.46,-3.42,5.55,10.07,875.62,31.26
4788302,-0.04,-0.02,1.46,-3.3,5.62,9.77,875.74,31.27
4788341,-0.03,-0.02,1.46,-3.11,5.74,9.83,875.64,31.26
4788379,-0.03,-0.03,1.48,-2.75,4.7,9.58,875.69,31.26
4788428,-0.03,-0.04,1.43,-2.62,5.98,9.28,875.59,31.25
4788467,-0.02,-0.03,1.44,-3.05,5.07,9.34,875.65,31.25
4788505,-0.03,-0.02,1.44,-3.23,4.82,9.64,875.68,31.26
4788543,-0.03,-0.04,1.4,-2.93,4.76,9.34,875.7,31.27
4788581,-0.05,-0.03,1.39,-2.99,4.03,9.4,875.65,31.26
4788619,-0.03,-0.05,1.39,-2.93,4.09,9.16,875.68,31.26
4788657,-0.02,-0.04,1.31,-2.99,3.66,8.85,875.68,31.25
4788695,-0.05,-0.04,1.29,-2.87,4.03,9.16,875.69,31.26
4788734,-0.02,-0.06,1.26,-3.17,4.7,8.97,875.67,31.26
4788783,-0.04,-0.05,1.27,-3.3,4.58,8.85,875.68,31.25
4788822,-0.05,-0.05,1.25,-3.17,4.58,8.79,875.67,31.25
4788860,-0.05,-0.05,1.21,-3.11,4.7,8.42,875.67,31.26
4788898,-0.02,-0.05,1.27,-3.23,4.15,8.42,875.66,31.26
4788936,-0.0,-0.05,1.26,-3.54,4.27,8.61,875.64,31.25
4788974,-0.04,-0.05,1.24,-3.78,3.54,8.54,875.64,31.26
4789012,-0.05,-0.05,1.26,-3.6,3.66,8.54,875.59,31.25
4789050,-0.01,-0.05,1.28,-3.48,2.2,8.36,875.61,31.25
4789089,-0.03,-0.05,1.28,-3.6,1.53,8.54,875.59,31.24
4789127,-0.03,-0.06,1.25,-3.54,1.16,8.42,875.59,31.25
4789177,-0.03,-0.05,1.25,-3.23,0.92,8.24,875.62,31.24
4789215,-0.03,-0.04,1.24,-3.42,0.18,8.36,875.55,31.25
4789253,-0.04,-0.05,1.21,-3.17,0.61,8.12,875.58,31.25
4789291,-0.03,-0.05,1.21,-3.36,0.24,8.06,875.59,31.26
4789329,-0.03,-0.05,1.21,-3.3,1.16,8.18,875.6,31.25
4789367,-0.03,-0.05,1.16,-3.23,0.37,7.87,875.52,31.26
4789406,-0.03,-0.04,1.18,-3.36,0.55,7.81,875.49,31.26
4789444,-0.03,-0.05,1.15,-3.6,0.55,7.69,875.52,31.26
4789482,-0.02,-0.05,1.16,-3.85,0.98,7.63,875.52,31.27
4789532,-0.04,-0.06,1.17,-4.03,1.83,7.51,875.5,31.25
4789570,-0.04,-0.04,1.18,-4.15,1.4,7.39,875.52,31.27
4789608,-0.04,-0.04,1.2,-4.03,1.1,7.39,875.47,31.26
4789646,-0.04,-0.05,1.14,-4.27,1.95,7.26,875.55,31.26
4789684,-0.04,-0.03,1.19,-4.39,1.77,7.14,875.48,31.26
4789722,-0.04,-0.05,1.19,-4.27,2.62,7.14,875.44,31.26
4789761,-0.04,-0.05,1.19,-4.27,2.56,7.02,875.46,31.26
4789799,-0.03,-0.04,1.23,-4.39,2.69,7.02,875.39,31.26
4789837,-0.05,-0.04,1.24,-4.52,2.56,7.14,875.37,31.27
4789875,-0.06,-0.03,1.23,-4.76,2.93,7.08,875.42,31.26
4789951,-0.03,-0.04,1.27,-4.27,4.09,6.77,875.35,31.24
4789989,-0.03,-0.04,1.26,-4.27,4.39,6.71,875.42,31.26
4790027,-0.04,-0.05,1.23,-4.09,5.37,6.65,875.38,31.26
4790116,-0.04,-0.04,1.24,-3.6,6.23,6.65,875.34,31.22
4790155,-0.05,-0.06,1.22,-3.42,6.35,6.53,875.27,31.22
4790193,-0.06,-0.03,1.25,-3.17,5.98,6.47,875.32,31.23
4790231,-0.04,-0.04,1.25,-2.99,6.04,6.59,875.27,31.24
4790269,-0.05,-0.03,1.23,-3.05,6.16,6.59,875.33,31.24
4790307,-0.08,-0.03,1.24,-2.69,5.86,6.71,875.3,31.25
4790357,-0.07,-0.05,1.18,-2.75,6.1,6.71,875.27,31.24
4790395,-0.06,-0.04,1.19,-2.26,5.92,6.59,875.27,31.24
4790433,-0.06,-0.04,1.16,-2.44,6.53,7.02,875.24,31.25
4790471,-0.07,-0.03,1.15,-2.5,6.59,7.08,875.24,31.24
4790510,-0.09,-0.05,1.11,-2.32,6.65,7.14,875.24,31.26
4790548,-0.08,-0.05,1.12,-2.32,6.77,7.26,875.23,31.25
4790586,-0.06,-0.05,1.1,-2.2,7.45,7.2,875.22,31.25
4790624,-0.07,-0.05,1.07,-2.26,6.77,7.51,875.19,31.26
4790662,-0.08,-0.05,1.06,-2.32,6.65,7.75,875.21,31.26
4790700,-0.07,-0.06,1.05,-2.2,6.59,7.75,875.15,31.26
4790750,-0.09,-0.05,1.05,-2.32,6.16,8.06,875.22,31.23
4790788,-0.08,-0.06,1.02,-2.32,5.68,8.24,875.17,31.25
4790826,-0.08,-0.05,1.02,-2.38,5.62,8.42,875.11,31.24
4790865,-0.08,-0.06,1.0,-2.44,5.37,8.36,875.14,31.24
4790903,-0.06,-0.05,1.01,-2.99,4.88,8.61,875.09,31.24
4790941,-0.07,-0.05,1.01,-2.81,5.31,8.91,875.13,31.23
4790979,-0.07,-0.06,1.02,-2.81,4.39,9.09,875.1,31.23
4791017,-0.07,-0.06,1.03,-3.05,4.58,9.09,875.1,31.23
4791055,-0.07,-0.06,1.03,-2.75,3.54,9.16,875.08,31.23
4791105,-0.07,-0.05,1.03,-2.87,3.72,9.34,875.09,31.22
4791143,-0.07,-0.05,1.02,-2.99,3.11,9.46,875.04,31.22
4791182,-0.09,-0.05,1.05,-3.17,3.3,9.64,875.07,31.22
4791220,-0.07,-0.05,1.04,-3.23,2.99,9.64,875.05,31.24
4791258,-0.07,-0.05,1.06,-3.42,2.93,9.77,875.05,31.23
4791296,-0.06,-0.05,1.06,-3.23,3.36,9.83,875.03,31.22
4791334,-0.06,-0.05,1.06,-3.3,3.11,10.01,875.02,31.23
4791373,-0.07,-0.05,1.07,-3.3,3.48,10.07,875.02,31.23
4791411,-0.06,-0.05,1.06,-3.11,3.6,10.01,875.03,31.22
4791449,-0.06,-0.05,1.06,-3.36,3.36,10.25,875.0,31.23
4791499,-0.07,-0.04,1.08,-3.36,3.36,10.25,874.99,31.2
4791537,-0.06,-0.04,1.1,-3.23,3.6,10.13,874.9,31.21
4791575,-0.05,-0.04,1.12,-3.17,4.39,9.95,874.95,31.22
4791613,-0.05,-0.04,1.15,-2.99,5.0,10.01,875.03,31.22
4791652,-0.06,-0.05,1.14,-2.75,5.25,10.19,874.94,31.23
4791690,-0.06,-0.04,1.15,-2.75,5.43,10.19,874.92,31.24
4791728,-0.06,-0.04,1.11,-2.62,5.98,10.01,874.9,31.23
4791766,-0.06,-0.04,1.11,-2.26,6.29,10.07,874.89,31.24
4791804,-0.05,-0.03,1.13,-1.83,7.32,10.13,874.9,31.23
4791854,-0.04,-0.04,1.12,-1.34,7.81,10.13,874.89,31.22
4791892,-0.07,-0.04,1.14,-1.22,7.75,10.31,874.88,31.24
4791930,-0.05,-0.05,1.11,-0.92,7.63,10.44,874.91,31.24
4791969,-0.06,-0.04,1.13,-0.79,7.2,10.56,874.84,31.23
4792007,-0.04,-0.05,1.07,-0.61,7.08,10.5,874.87,31.23
4792045,-0.05,-0.04,1.07,-0.61,6.41,10.62,874.9,31.23
4792083,-0.05,-0.04,1.05,-0.37,6.29,10.68,874.84,31.24
4792121,-0.05,-0.06,1.01,-0.73,5.92,10.86,874.81,31.23
4792160,-0.05,-0.05,1.03,-0.61,5.92,10.93,874.91,31.23
4792209,-0.05,-0.05,1.02,-0.85,6.16,10.86,874.86,31.22
4792248,-0.05,-0.04,1.05,-1.28,6.29,10.74,874.92,31.23
4792286,-0.04,-0.05,1.05,-1.28,6.77,10.74,874.88,31.25
4792324,-0.04,-0.05,1.05,-1.46,6.84,10.86,874.82,31.23
4792362,-0.03,-0.04,1.05,-1.71,6.53,11.05,874.88,31.24
4792400,-0.06,-0.05,1.04,-1.83,6.65,11.05,874.82,31.24
4792438,-0.05,-0.04,1.06,-1.77,6.47,10.86,874.85,31.24
4792476,-0.03,-0.05,1.05,-2.01,6.04,10.93,874.77,31.23
4792515,-0.03,-0.04,1.07,-2.32,5.43,10.74,874.85,31.24
4792553,-0.04,-0.04,1.05,-2.14,5.43,10.99,874.78,31.23
4792603,-0.03,-0.05,1.09,-2.26,5.31,10.93,874.81,31.22
4792641,-0.05,-0.04,1.06,-2.08,5.25,10.93,874.81,31.23
4792679,-0.03,-0.05,1.05,-2.32,4.76,10.86,874.8,31.23
4792717,-0.04,-0.04,1.07,-2.32,5.31,10.74,874.76,31.23
4792755,-0.03,-0.05,1.05,-2.44,4.94,10.74,874.79,31.24
4792794,-0.03,-0.04,1.1,-2.38,5.0,10.5,874.8,31.24
4792832,-0.03,-0.05,1.09,-2.32,6.53,10.5,874.71,31.23
4792870,-0.04,-0.03,1.13,-2.26,5.8,10.19,874.77,31.24
4792908,-0.03,-0.03,1.16,-2.32,6.65,10.19,874.8,31.22
4792984,-0.03,-0.04,1.18,-2.2,6.96,9.95,874.77,31.2
4793022,-0.04,-0.04,1.15,-1.95,7.69,9.83,874.73,31.21
4793060,-0.03,-0.04,1.12,-1.77,7.32,10.13,874.76,31.22
4793150,-0.03,-0.04,1.1,-1.71,7.02,9.64,874.75,31.18
4793188,-0.02,-0.04,1.13,-1.77,6.84,9.7,874.74,31.2
4793226,-0.03,-0.04,1.12,-1.77,6.77,9.7,874.67,31.2
4793264,-0.03,-0.03,1.16,-1.71,7.02,9.52,874.71,31.21
4793302,-0.03,-0.03,1.16,-1.53,6.77,9.58,874.69,31.21
4793341,-0.04,-0.03,1.18,-1.59,5.37,9.64,874.72,31.21
4793390,-0.04,-0.04,1.14,-1.4,5.8,9.58,874.76,31.2
4793429,-0.03,-0.04,1.17,-1.53,4.94,9.58,874.7,31.2
4793467,-0.02,-0.04,1.14,-1.46,4.39,9.7,874.72,31.22
4793505,-0.02,-0.04,1.11,-1.53,4.27,9.46,874.72,31.22
4793543,-0.04,-0.03,1.13,-1.28,4.64,9.52,874.71,31.21
4793581,-0.04,-0.05,1.07,-1.16,5.25,9.4,874.68,31.2
4793619,-0.03,-0.04,1.12,-1.28,5.25,9.4,874.71,31.22
4793657,-0.02,-0.04,1.06,-1.16,5.68,9.28,874.68,31.23
4793696,-0.03,-0.03,1.11,-1.28,4.64,9.28,874.69,31.22
4793734,-0.04,-0.04,1.12,-1.16,4.64,9.28,874.68,31.22
4793784,-0.05,-0.05,1.06,-1.1,4.09,9.22,874.69,31.2
4793822,-0.03,-0.05,1.04,-0.92,4.03,9.28,874.67,31.22
4793860,-0.03,-0.05,1.01,-0.98,4.27,8.97,874.71,31.24
4793898,-0.04,-0.05,0.96,-0.98,4.82,8.91,874.74,31.22
4793936,-0.04,-0.05,0.96,-1.16,4.76,8.85,874.67,31.22
4793974,-0.04,-0.06,0.96,-1.1,5.62,8.61,874.7,31.22
4794012,-0.05,-0.05,0.99,-1.16,5.98,8.67,874.66,31.21
4794051,-0.05,-0.05,1.04,-1.16,6.84,8.54,874.64,31.22
4794089,-0.05,-0.05,1.07,-1.22,7.69,8.61,874.67,31.21
4794139,-0.05,-0.05,1.08,-1.16,8.73,8.61,874.67,31.22
4794177,-0.04,-0.05,1.08,-1.34,8.85,8.3,874.62,31.21
4794215,-0.05,-0.03,1.09,-1.34,8.73,8.42,874.62,31.2
4794253,-0.05,-0.03,1.11,-1.1,8.42,8.54,874.67,31.21
4794291,-0.04,-0.05,1.09,-1.04,8.79,8.48,874.62,31.21
4794330,-0.04,-0.03,1.11,-1.1,8.54,8.54,874.55,31.22
4794368,-0.05,-0.05,1.11,-0.92,8.73,8.97,874.62,31.21
4794406,-0.04,-0.05,1.11,-0.92,8.12,8.73,874.58,31.21
4794444,-0.05,-0.03,1.11,-0.92,7.81,8.61,874.63,31.21
4794482,-0.05,-0.05,1.1,-0.85,7.14,8.85,874.6,31.21
4794532,-0.05,-0.05,1.09,-1.1,6.59,8.85,874.68,31.22
4794570,-0.04,-0.04,1.1,-0.73,6.1,8.73,874.62,31.21
4794608,-0.03,-0.04,1.1,-0.73,5.74,8.97,874.6,31.21
4794646,-0.04,-0.04,1.07,-1.04,5.86,9.03,874.62,31.21
4794685,-0.04,-0.04,1.11,-0.79,5.43,8.91,874.55,31.21
4794723,-0.04,-0.05,1.07,-0.79,5.86,8.73,874.58,31.21
4794761,-0.04,-0.04,1.08,-0.92,4.58,9.03,874.61,31.21
4794799,-0.04,-0.04,1.06,-0.67,5.49,8.67,874.58,31.22
4794837,-0.05,-0.05,1.07,-0.55,5.68,8.67,874.62,31.22
4794887,-0.05,-0.04,1.11,-0.61,5.98,8.67,874.59,31.21
4794925,-0.04,-0.05,1.12,-0.79,5.55,8.36,874.61,31.21
4794963,-0.04,-0.04,1.11,-0.85,6.65,8.3,874.65,31.23
4795001,-0.04,-0.04,1.11,-0.67,7.02,8.24,874.59,31.22
4795039,-0.02,-0.04,1.09,-0.92,6.59,8.0,874.52,31.22
4795078,-0.04,-0.04,1.07,-1.04,5.8,8.06,874.6,31.22
4795116,-0.04,-0.05,1.08,-1.04,6.65,8.36,874.58,31.21
4795154,-0.03,-0.05,1.08,-1.34,6.23,8.06,874.56,31.21
4795192,-0.03,-0.04,1.13,-0.92,5.86,8.0,874.61,31.21
4795230,-0.03,-0.05,1.06,-1.04,6.04,8.0,874.56,31.21
4795280,-0.03,-0.04,1.1,-0.85,6.16,7.81,874.61,31.21
4795318,-0.02,-0.04,1.08,-0.98,6.41,7.75,874.57,31.21
4795356,-0.03,-0.04,1.09,-1.22,5.68,7.87,874.55,31.2
4795394,-0.05,-0.04,1.1,-1.16,6.16,7.57,874.53,31.2
4795432,-0.04,-0.04,1.11,-1.22,6.41,7.51,874.56,31.22
4795471,-0.03,-0.04,1.13,-1.16,6.23,7.39,874.6,31.22
4795509,-0.03,-0.04,1.13,-1.34,6.16,7.39,874.5,31.2
4795547,-0.03,-0.04,1.15,-1.22,6.29,7.14,874.51,31.21
4795585,-0.03,-0.04,1.15,-1.04,6.04,7.2,874.65,31.23
4795635,-0.04,-0.04,1.14,-0.98,5.37,7.02,874.58,31.21
4795673,-0.04,-0.04,1.14,-0.92,5.43,6.96,874.53,31.2
4795711,-0.03,-0.04,1.14,-1.04,5.31,6.65,874.55,31.21
4795749,-0.03,-0.04,1.14,-0.79,5.07,6.77,874.52,31.22
4795788,-0.03,-0.04,1.14,-0.79,4.33,6.59,874.5,31.21
4795826,-0.04,-0.04,1.13,-0.92,4.46,6.47,874.56,31.22
4795864,-0.03,-0.05,1.11,-0.73,4.46,6.41,874.56,31.22
4795902,-0.04,-0.04,1.11,-0.55,4.58,6.35,874.53,31.22
4795940,-0.05,-0.04,1.1,-0.55,4.15,6.1,874.52,31.22
4795978,-0.03,-0.05,1.08,-0.31,4.21,5.92,874.45,31.23
4796054,-0.05,-0.05,1.07,-0.49,4.03,5.86,874.51,31.19
4796092,-0.05,-0.05,1.04,-0.61,3.85,5.92,874.52,31.21
4796130,-0.05,-0.04,1.09,-0.73,4.21,5.68,874.5,31.21
4796220,-0.06,-0.04,1.04,-0.49,3.6,5.62,874.47,31.17
4796258,-0.05,-0.05,1.03,-0.49,3.54,5.8,874.51,31.19
4796296,-0.05,-0.05,1.02,-0.49,3.11,5.68,874.5,31.18
4796334,-0.05,-0.04,1.0,-0.67,3.54,5.55,874.47,31.19
4796373,-0.06,-0.05,1.0,-0.73,3.91,5.68,874.5,31.19
4796411,-0.06,-0.05,1.0,-0.73,3.6,5.74,874.44,31.19
4796460,-0.06,-0.05,1.02,-0.73,3.42,5.74,874.44,31.2
4796499,-0.06,-0.05,1.03,-0.85,4.03,5.86,874.44,31.2
4796537,-0.06,-0.04,1.02,-1.04,4.39,5.8,874.44,31.2
4796575,-0.06,-0.04,1.02,-1.1,4.27,5.62,874.41,31.21
4796613,-0.07,-0.04,1.04,-0.98,3.72,5.86,874.37,31.2
4796651,-0.06,-0.05,1.06,-1.1,4.94,5.8,874.44,31.19
4796689,-0.07,-0.03,1.07,-1.04,5.07,5.68,874.37,31.2
4796727,-0.07,-0.02,1.08,-0.67,5.68,5.86,874.39,31.2
4796766,-0.07,-0.04,1.06,-0.73,6.23,5.68,874.37,31.22
4796804,-0.08,-0.03,1.1,-0.37,6.29,5.68,874.44,31.22
4796854,-0.08,-0.04,1.06,0.0,6.65,6.04,874.39,31.2
4796892,-0.08,-0.03,1.06,0.06,6.04,6.1,874.41,31.2
4796930,-0.09,-0.03,1.03,0.24,6.16,6.23,874.43,31.22
4796968,-0.07,-0.03,1.04,0.37,5.86,6.65,874.39,31.21
4797006,-0.07,-0.04,1.04,0.49,5.07,6.71,874.38,31.21
4797044,-0.07,-0.04,1.01,0.43,5.43,6.84,874.39,31.22
4797082,-0.07,-0.04,1.01,0.43,5.62,6.84,874.41,31.22
4797121,-0.07,-0.04,0.98,0.37,5.0,6.96,874.37,31.21
4797159,-0.07,-0.04,0.97,0.18,4.46,7.02,874.41,31.22
4797209,-0.07,-0.05,0.95,-0.24,4.7,6.96,874.37,31.21
4797247,-0.06,-0.04,0.97,-0.49,4.58,7.14,874.39,31.21
4797285,-0.06,-0.04,0.97,-0.55,5.07,7.39,874.39,31.22
4797323,-0.07,-0.04,0.99,-0.79,5.0,7.08,874.36,31.22
4797361,-0.07,-0.04,1.01,-0.85,4.88,7.45,874.35,31.22
4797400,-0.07,-0.04,1.04,-0.98,4.33,7.57,874.3,31.21
4797438,-0.07,-0.04,1.05,-0.85,4.82,7.69,874.36,31.21
4797476,-0.07,-0.04,1.05,-0.79,4.58,7.51,874.32,31.21
4797514,-0.07,-0.03,1.07,-0.67,4.58,7.81,874.39,31.2
4797552,-0.07,-0.03,1.04,-0.55,4.27,7.75,874.35,31.2
4797602,-0.07,-0.02,1.07,-0.24,3.85,8.0,874.3,31.2
4797640,-0.06,-0.03,1.08,-0.18,3.42,8.12,874.34,31.21
4797679,-0.07,-0.04,1.1,0.0,3.3,8.18,874.37,31.2
4797717,-0.06,-0.03,1.1,-0.12,2.81,8.3,874.3,31.2
4797755,-0.07,-0.03,1.1,0.0,2.81,8.24,874.34,31.21
4797793,-0.06,-0.03,1.07,0.0,3.23,8.18,874.35,31.21
4797831,-0.05,-0.03,1.07,0.12,2.75,8.54,874.3,31.2
4797869,-0.06,-0.03,1.05,0.12,2.81,8.54,874.33,31.22
4797907,-0.08,-0.04,1.02,0.12,3.42,8.67,874.29,31.2
4797957,-0.06,-0.03,1.04,0.18,3.66,8.73,874.31,31.19
4797995,-0.05,-0.04,1.03,0.0,3.78,8.54,874.3,31.19
4798033,-0.06,-0.03,1.03,-15.62,3.66,8.54,874.35,31.2
4798072,-0.05,-0.04,1.02,-0.18,3.91,8.79,874.3,31.19
4798110,-0.05,-0.04,1.03,-0.18,3.78,8.61,874.3,31.2
4798148,-0.05,-0.03,1.03,-0.18,4.21,8.61,874.32,31.2
4798186,-0.05,-0.04,1.01,-0.12,4.27,8.73,874.28,31.21
4798224,-0.04,-0.04,1.03,-0.18,3.72,8.61,874.31,31.2
4798262,-0.05,-0.04,1.01,-0.55,3.6,8.73,874.37,31.2
4798301,-0.05,-0.04,1.03,-0.49,3.11,8.85,874.33,31.2
4798350,-0.05,-0.04,1.03,-0.43,3.36,8.85,874.28,31.19
4798389,-0.05,-0.03,1.04,-0.49,2.87,8.91,874.25,31.2
4798427,-0.04,-0.03,1.03,-0.61,3.54,8.85,874.25,31.2
4798465,-0.05,-0.04,1.01,-0.55,3.66,8.85,874.32,31.22
4798503,-0.05,-0.04,1.04,-0.49,3.78,8.91,874.29,31.2
4798541,-0.04,-0.04,1.04,-0.61,3.85,8.67,874.25,31.2
4798579,-0.04,-0.04,1.05,-0.92,4.21,8.42,874.28,31.22
4798617,-0.06,-0.03,1.03,-0.79,4.64,8.3,874.25,31.22
4798655,-0.05,-0.03,1.07,-0.85,5.8,8.36,874.27,31.22
4798705,-0.05,-0.03,1.06,-0.73,5.92,8.36,874.21,31.2
4798743,-0.07,-0.02,1.1,-0.43,5.98,8.24,874.22,31.22
4798781,-0.06,-0.03,1.07,-0.18,6.84,8.12,874.24,31.21
4798820,-0.05,-0.02,1.11,-0.31,6.65,8.42,874.24,31.22
4798858,-0.06,-0.03,1.09,0.18,7.39,8.18,874.22,31.22
4798896,-0.06,-0.03,1.1,0.24,7.14,8.42,874.18,31.22
4798934,-0.06,-0.03,1.1,0.31,7.81,8.36,874.22,31.22
4798972,-0.05,-0.03,1.06,0.24,7.32,8.48,874.25,31.22
4799010,-0.06,-0.03,1.07,0.49,7.14,8.61,874.17,31.22
4799048,-0.05,-0.04,1.05,0.55,6.96,8.73,874.23,31.22
4799126,-0.04,-0.03,1.07,0.98,6.29,8.85,874.18,31.19
4799164,-0.04,-0.03,1.08,1.04,6.04,9.03,874.22,31.21
4799202,-0.05,-0.03,1.09,1.16,6.1,8.79,874.21,31.21
4799291,-0.06,-0.04,1.05,0.73,5.19,9.09,874.22,31.17
4799330,-0.05,-0.04,1.04,0.67,4.82,9.22,874.23,31.19
4799368,-0.04,-0.04,1.03,0.67,4.82,9.22,874.25,31.18
4799406,-0.04,-0.05,1.01,0.73,4.33,9.4,874.27,31.2
4799444,-0.04,-0.04,1.0,0.92,4.46,9.22,874.2,31.2
4799482,-0.04,-0.04,0.99,0.92,4.27,9.28,874.24,31.19
4799520,-0.04,-0.05,1.0,0.73,4.15,9.34,874.25,31.2
4799570,-0.04,-0.05,0.97,0.55,3.78,9.09,874.18,31.19
4799608,-0.03,-0.05,0.98,0.31,3.66,9.22,874.16,31.18
4799647,-0.04,-0.05,0.99,-0.12,3.36,9.22,874.23,31.2
4799685,-0.03,-0.04,0.99,-0.24,3.05,9.03,874.23,31.19
4799723,-0.04,-0.04,0.97,-0.31,3.05,9.03,874.21,31.2
4799761,-0.04,-0.05,0.98,-0.49,2.69,9.16,874.22,31.19
4799799,-0.03,-0.05,1.02,-0.85,2.14,8.91,874.17,31.19
4799837,-0.02,-0.04,1.03,-0.92,2.69,8.79,874.2,31.2
4799875,-0.04,-0.03,1.06,-0.98,2.56,8.67,874.19,31.2
4799925,-0.03,-0.04,1.08,-1.1,3.11,8.48,874.21,31.18
4799963,-0.03,-0.04,1.1,-1.1,2.99,8.3,874.2,31.18
4800001,-0.01,-0.04,1.07,-1.28,2.44,8.48,874.22,31.19
4800039,-0.02,-0.04,1.07,-1.16,2.38,8.24,874.19,31.2
4800078,-0.03,-0.04,1.06,-1.34,2.01,8.06,874.13,31.2
4800116,-0.01,-0.04,1.07,-1.34,1.95,7.93,874.19,31.2
4800154,-0.02,-0.05,1.08,-1.28,1.77,7.63,874.11,31.2
4800192,-0.03,-0.04,1.08,-1.1,2.08,7.39,874.19,31.22
4800230,-0.03,-0.03,1.09,-1.16,1.53,7.45,874.16,31.2
4800268,-0.01,-0.04,1.1,-0.98,1.83,7.2,874.24,31.21
4800318,-0.02,-0.03,1.08,-0.92,2.14,6.96,874.15,31.19
4800356,-0.02,-0.04,1.08,-0.92,2.26,7.02,874.14,31.2
4800394,-0.02,-0.04,1.09,-0.49,2.26,6.71,874.16,31.22
4800432,-0.02,-0.03,1.11,-0.55,2.32,6.59,874.19,31.22
4800471,-0.02,-0.04,1.1,-0.55,2.44,6.53,874.21,31.21
4800509,-0.02,-0.04,1.11,-0.43,2.38,6.35,874.11,31.2
4800547,-0.01,-0.04,1.12,-0.61,2.38,6.04,874.2,31.22
4800585,-0.02,-0.04,1.12,-0.43,2.01,5.86,874.12,31.2
4800623,-0.02,-0.04,1.09,-0.79,2.08,5.98,874.12,31.21
4800673,-0.03,-0.04,1.1,-0.55,1.95,5.74,874.09,31.19
4800711,-0.02,-0.04,1.08,-0.61,2.5,5.55,874.13,31.19
4800749,-0.02,-0.04,1.07,-0.85,1.89,5.55,874.14,31.2
4800787,-0.04,-0.05,1.07,-0.79,1.95,5.19,874.13,31.2
4800825,-0.02,-0.04,1.09,-0.92,2.2,5.07,874.1,31.21
4800864,-0.03,-0.04,1.11,-1.04,2.32,5.13,874.12,31.21
4800902,-0.03,-0.04,1.07,-0.98,2.5,4.64,874.05,31.21
4800940,-0.04,-0.04,1.09,-0.92,2.62,4.58,874.06,31.22
4800978,-0.04,-0.04,1.1,-1.04,3.42,4.64,874.12,31.22
4801016,-0.03,-0.04,1.09,-0.92,3.78,4.33,874.08,31.21
4801066,-0.06,-0.03,1.09,-0.61,4.39,4.39,874.07,31.2
4801104,-0.04,-0.04,1.07,-0.67,4.7,4.21,874.09,31.22
4801142,-0.04,-0.03,1.12,-0.49,5.07,4.03,874.08,31.22
4801180,-0.04,-0.04,1.09,-0.55,5.43,4.27,874.1,31.21
4801218,-0.05,-0.03,1.1,-0.31,5.92,4.21,874.05,31.2
4801256,-0.04,-0.03,1.09,-0.18,5.98,4.21,874.07,31.2
4801295,-0.04,-0.04,1.1,0.06,5.98,4.03,874.06,31.2
4801333,-0.04,-0.04,1.06,0.12,6.53,4.09,874.05,31.2
4801371,-0.04,-0.03,1.06,0.12,6.65,3.97,874.01,31.22
4801421,-0.04,-0.03,1.05,0.55,6.9,3.85,874.03,31.21
4801459,-0.05,-0.03,1.05,0.61,6.77,3.97,874.05,31.22
4801497,-0.06,-0.04,1.04,0.55,6.59,3.91,874.1,31.22
4801535,-0.06,-0.04,1.05,0.61,5.86,3.85,873.99,31.2
4801573,-0.05,-0.03,1.04,0.49,5.19,3.97,874.0,31.22
4801611,-0.05,-0.03,1.02,0.55,4.52,3.85,873.98,31.22
4801649,-0.06,-0.03,1.02,0.49,4.33,4.03,874.04,31.21
4801687,-0.06,-0.03,1.02,0.73,4.09,3.85,873.97,31.21
4801726,-0.07,-0.03,1.02,0.55,3.91,3.97,874.01,31.21
4801764,-0.06,-0.03,1.01,0.67,4.03,4.15,874.02,31.2
4801814,-0.06,-0.03,1.04,0.67,3.17,4.33,873.99,31.19
4801852,-0.06,-0.03,1.04,0.92,2.87,4.21,874.02,31.21
4801890,-0.06,-0.03,1.05,0.79,2.32,4.27,873.95,31.2
4801928,-0.07,-0.03,1.05,0.79,2.2,4.39,873.98,31.2
4801966,-0.05,-0.03,1.04,0.85,1.95,4.27,873.95,31.2
4802004,-0.06,-0.02,1.05,0.73,1.22,4.39,874.0,31.2
4802043,-0.06,-0.03,1.03,0.67,1.4,4.33,873.97,31.21
4802081,-0.07,-0.04,1.03,0.55,0.79,4.15,873.97,31.2
4802119,-0.06,-0.04,1.01,0.61,0.61,4.33,873.89,31.2
4802195,-0.06,-0.02,0.99,0.43,0.55,4.15,873.98,31.17
4802233,-0.06,-0.03,0.98,0.31,0.49,4.15,873.9,31.19
4802271,-0.07,-0.04,0.97,0.37,0.92,4.33,873.93,31.19
4802361,-0.08,-0.03,0.97,0.43,1.53,4.21,873.9,31.15
4802399,-0.08,-0.03,0.97,0.31,1.4,4.27,873.88,31.16
4802437,-0.08,-0.03,0.97,0.24,2.08,4.21,873.89,31.17
4802475,-0.08,-0.03,1.01,0.18,2.01,4.46,873.87,31.17
4802513,-0.08,-0.03,0.99,0.24,2.5,4.33,873.89,31.17
4802551,-0.09,-0.02,1.02,-0.06,2.14,4.64,873.83,31.16
4802589,-0.08,-0.03,1.04,0.18,2.87,4.7,873.84,31.17
4802639,-0.08,-0.03,1.06,0.31,2.69,4.82,873.86,31.17
4802677,-0.09,-0.03,1.04,0.55,3.05,5.0,873.86,31.17
4802715,-0.09,-0.04,0.99,0.67,3.36,5.07,873.84,31.18
4802754,-0.09,-0.03,1.0,0.79,3.23,5.13,873.84,31.18
4802792,-0.09,-0.04,0.95,0.85,2.99,5.19,873.87,31.18
4802830,-0.08,-0.04,0.93,0.79,2.99,5.55,873.87,31.19
4802868,-0.08,-0.04,0.94,0.85,2.87,5.49,873.84,31.19
4802906,-0.07,-0.04,0.94,0.73,2.14,5.74,873.86,31.18
4802944,-0.08,-0.04,0.95,0.43,1.89,6.04,873.85,31.19
4802982,-0.07,-0.04,0.93,0.24,2.01,6.1,873.84,31.2
4803032,-0.08,-0.03,0.96,0.12,1.46,6.23,873.78,31.17
4803070,-0.08,-0.03,0.95,-0.37,1.65,6.29,873.81,31.19
4803108,-0.08,-0.03,0.96,-0.55,1.46,6.41,873.87,31.19
4803147,-0.08,-0.03,0.97,-0.67,2.01,6.41,873.79,31.19
4803185,-0.09,-0.04,0.97,-0.79,2.69,6.59,873.8,31.19
4803223,-0.08,-0.04,0.99,-0.55,2.44,6.59,873.82,31.2
4803261,-0.08,-0.03,0.99,-0.43,2.87,6.59,873.81,31.19
4803299,-0.09,-0.03,0.98,-0.43,3.3,6.77,873.8,31.2
4803337,-0.09,-0.04,0.97,-0.55,3.85,7.14,873.85,31.19
4803387,-0.08,-0.03,0.99,-0.37,3.54,7.02,873.82,31.19
4803425,-0.08,-0.04,0.95,-0.37,4.21,7.45,873.8,31.19
4803463,-0.08,-0.03,0.97,-0.55,4.27,7.45,873.87,31.19
4803501,-0.06,-0.03,0.99,-0.12,3.97,7.51,873.81,31.19
4803540,-0.08,-0.04,0.97,-0.31,3.85,7.69,873.79,31.18
4803578,-0.09,-0.03,1.0,-0.24,4.03,7.75,873.84,31.2
4803616,-0.07,-0.04,0.99,-0.12,4.88,7.81,873.84,31.2
4803654,-0.06,-0.04,1.0,-0.18,4.03,7.75,873.82,31.18
4803692,-0.06,-0.04,0.99,-0.18,4.27,8.06,873.83,31.19
4803730,-0.07,-0.04,0.95,0.0,4.7,8.24,873.83,31.19
4803780,-0.05,-0.04,0.97,0.18,4.33,8.18,873.84,31.17
4803818,-0.06,-0.04,0.98,0.37,3.6,8.12,873.86,31.19
4803856,-0.07,-0.05,0.95,0.31,3.72,8.18,873.87,31.18
4803895,-0.06,-0.04,0.97,0.24,4.03,8.3,873.88,31.19
4803933,-0.05,-0.04,0.98,0.43,3.91,8.18,873.92,31.19
4803971,-0.05,-0.04,0.95,0.49,3.48,8.3,873.86,31.19
4804009,-0.06,-0.03,0.97,0.37,3.66,8.12,873.83,31.2
4804047,-0.05,-0.04,0.96,0.18,3.91,8.18,873.84,31.2
4804086,-0.06,-0.04,0.99,0.0,3.6,8.0,873.87,31.2
4804135,-0.08,-0.03,0.99,-0.24,3.66,8.3,873.85,31.19
4804173,-0.06,-0.04,1.04,-0.18,3.91,8.18,873.86,31.19
4804212,-0.05,-0.04,1.01,-0.24,3.85,8.48,873.84,31.19
4804250,-0.06,-0.03,1.04,-0.06,2.99,8.54,873.84,31.2
4804288,-0.06,-0.04,1.0,0.06,3.78,8.54,873.82,31.19
4804326,-0.05,-0.04,1.01,0.12,3.11,8.42,873.9,31.19
4804364,-0.05,-0.05,0.97,-0.06,3.3,8.54,873.9,31.19
4804403,-0.06,-0.05,0.92,-0.12,3.23,8.61,873.86,31.18
4804441,-0.05,-0.05,0.91,0.06,3.17,8.36,873.9,31.19
4804479,-0.05,-0.05,0.87,-0.37,3.48,8.48,874.0,31.19
4804529,-0.05,-0.06,0.81,-0.24,3.23,8.54,873.88,31.17
4804567,-0.05,-0.06,0.78,-0.31,3.36,8.61,873.92,31.16
4804605,-0.05,-0.05,0.79,-0.61,3.23,8.42,873.95,31.17
4804643,-0.05,-0.05,0.78,-0.73,3.3,8.61,873.96,31.16
4804681,-0.05,-0.06,0.8,-0.98,3.17,8.67,873.95,31.15
4804720,-0.06,-0.06,0.82,-1.34,3.72,8.61,873.95,31.16
4804758,-0.05,-0.06,0.85,-1.34,3.66,8.54,873.9,31.16
4804796,-0.05,-0.05,0.88,-1.53,4.27,8.61,873.95,31.17
4804834,-0.05,-0.06,0.87,-1.65,4.64,8.67,873.96,31.17
4804884,-0.04,-0.05,0.92,-1.71,4.58,8.54,874.0,31.16
4804922,-0.04,-0.05,0.92,-1.83,4.58,8.42,873.97,31.15
4804960,-0.05,-0.04,0.95,-1.77,4.82,8.54,873.99,31.17
4804998,-0.05,-0.05,0.94,-1.65,4.94,8.48,874.0,31.16
4805037,-0.04,-0.05,0.97,-1.71,4.39,8.24,873.99,31.17
4805075,-0.04,-0.04,0.98,-1.77,4.82,8.3,874.03,31.16
4805113,-0.04,-0.04,1.0,-1.4,4.46,8.36,874.0,31.15
4805151,-0.04,-0.04,1.0,-1.46,4.39,8.18,873.99,31.15
4805189,-0.05,-0.04,0.99,-1.28,4.03,8.3,873.97,31.16
4805227,-0.06,-0.04,1.0,-1.46,4.46,8.36,873.95,31.17
4805303,-0.04,-0.04,1.02,-1.16,4.39,8.12,873.98,31.14
4805341,-0.04,-0.03,1.04,-1.4,4.33,8.18,874.02,31.15
4805380,-0.05,-0.03,1.02,-1.22,4.09,8.06,873.96,31.17
4805469,-0.04,-0.03,1.03,-1.22,3.48,8.0,874.03,31.13
4805507,-0.04,-0.03,1.04,-1.1,3.3,8.06,874.06,31.15
4805545,-0.04,-0.04,1.01,-1.4,3.6,8.06,874.09,31.15
4805583,-0.03,-0.03,1.04,-1.46,3.17,7.69,874.1,31.15
4805622,-0.03,-0.04,1.01,-1.34,3.66,7.69,874.08,31.16
4805660,-0.04,-0.04,1.0,-1.53,3.78,7.63,874.06,31.15
4805709,-0.03,-0.04,0.99,-1.34,4.21,7.57,874.11,31.15
4805748,-0.05,-0.04,0.99,-1.4,4.15,7.51,874.15,31.15
4805786,-0.04,-0.04,0.98,-1.16,4.76,7.08,874.12,31.16
4805824,-0.03,-0.04,1.0,-0.98,4.52,7.08,874.08,31.17
4805862,-0.04,-0.04,0.97,-0.98,5.19,6.84,874.11,31.15
4805900,-0.05,-0.04,0.99,-0.79,5.07,6.9,874.13,31.17
4805938,-0.05,-0.04,0.99,-0.79,5.43,6.77,874.16,31.16
4805976,-0.05,-0.04,0.98,-0.55,5.19,6.71,874.14,31.18
4806014,-0.04,-0.04,1.0,-0.67,5.19,6.84,874.17,31.16
4806052,-0.05,-0.04,0.98,-0.67,5.0,6.71,874.15,31.17
4806102,-0.04,-0.04,0.99,-0.67,4.03,6.47,874.24,31.16
4806140,-0.05,-0.04,0.95,-0.55,2.99,6.47,874.15,31.15
4806179,-0.06,-0.04,0.95,-0.61,2.5,6.29,874.18,31.17
4806217,-0.06,-0.04,0.94,-0.67,2.2,6.35,874.16,31.16
4806255,-0.06,-0.04,0.93,-0.67,1.83,6.47,874.2,31.17
4806293,-0.07,-0.04,0.92,-0.55,1.95,6.23,874.22,31.17
4806331,-0.07,-0.04,0.94,-0.67,2.75,6.35,874.21,31.17
4806369,-0.07,-0.04,0.95,-0.73,2.32,6.53,874.26,31.18
4806407,-0.05,-0.04,0.96,-0.55,2.26,6.59,874.25,31.18
4806457,-0.08,-0.04,0.95,-0.73,1.71,6.65,874.23,31.17
4806495,-0.06,-0.04,0.95,-0.67,2.14,6.59,874.28,31.18
4806534,-0.06,-0.04,0.95,-1.04,1.28,6.53,874.27,31.17
4806572,-0.06,-0.03,0.99,-0.98,0.73,6.53,874.28,31.17
4806610,-0.06,-0.04,0.95,-0.98,1.04,6.71,874.32,31.18
4806648,-0.07,-0.04,0.99,-1.16,0.49,7.02,874.34,31.19
4806686,-0.07,-0.03,0.99,-1.1,0.18,7.08,874.25,31.19
4806724,-0.07,-0.03,0.96,-1.46,-0.06,7.08,874.34,31.17
4806762,-0.08,-0.03,1.0,-1.65,-0.31,7.32,874.32,31.18
4806801,-0.06,-0.03,1.03,-1.4,-0.49,7.26,874.42,31.19
4806850,-0.06,-0.04,1.03,-1.16,0.0,7.26,874.41,31.17
4806889,-0.05,-0.03,1.04,-1.22,0.55,7.26,874.41,31.18
4806927,-0.05,-0.02,1.05,-0.98,1.53,7.39,874.37,31.17
4806965,-0.06,-0.03,1.04,-1.28,1.89,7.08,874.42,31.18
4807003,-0.06,-0.03,1.07,-1.1,2.01,6.96,874.39,31.18
4807041,-0.06,-0.03,1.05,-1.04,2.32,7.08,874.44,31.18
4807079,-0.05,-0.03,1.06,-0.98,2.5,7.14,874.45,31.18
4807117,-0.05,-0.02,1.1,-0.79,2.62,6.96,874.44,31.18
4807155,-0.06,-0.06,1.07,-0.85,2.56,7.32,874.45,31.18
4807205,-0.06,-0.03,1.08,-0.67,2.5,7.08,874.48,31.17
4807243,-0.05,-0.02,1.08,-0.85,3.05,7.39,874.5,31.16
4807281,-0.05,-0.03,1.06,-0.67,2.87,7.39,874.54,31.17
4807320,-0.05,-0.03,1.05,-0.49,3.42,7.26,874.57,31.17
4807358,-0.04,-0.04,1.04,-0.37,3.6,7.2,874.53,31.16
4807396,-0.04,-0.04,1.02,-0.61,3.54,7.39,874.54,31.17
4807434,-0.06,-0.03,1.05,-0.49,4.09,7.26,874.6,31.16
4807472,-0.05,-0.04,1.04,-0.43,4.03,7.26,874.61,31.15
4807510,-0.05,-0.04,1.07,-0.49,3.91,7.08,874.55,31.15
4807548,-0.06,-0.03,1.07,-0.79,4.27,7.32,874.6,31.18
4807598,-0.07,-0.03,1.08,-0.67,5.0,7.26,874.54,31.14
4807636,-0.06,-0.02,1.08,-0.49,5.31,7.32,874.63,31.16
4807674,-0.07,-0.02,1.09,-0.43,5.07,7.2,874.64,31.16
4807713,-0.07,-0.02,1.06,-0.43,5.92,7.39,874.65,31.17
4807751,-0.06,-0.02,1.08,-0.37,6.1,7.57,874.63,31.17
4807789,-0.07,-0.03,1.03,-0.49,6.1,7.69,874.65,31.15
4807827,-0.08,-0.03,1.01,-0.18,5.55,7.81,874.64,31.16
4807865,-0.07,-0.02,1.02,0.06,6.16,7.69,874.64,31.15
4807903,-0.07,-0.03,1.0,0.06,6.29,7.93,874.72,31.16
4807953,-0.08,-0.03,1.0,0.18,6.65,8.18,874.71,31.15
4807991,-0.08,-0.03,1.0,0.43,6.84,8.06,874.77,31.16
4808029,-0.07,-0.03,1.02,0.43,7.51,8.48,874.82,31.16
4808067,-0.07,-0.04,0.98,0.49,7.32,8.54,874.76,31.15
4808105,-0.08,-0.03,1.02,0.55,6.65,8.61,874.79,31.17
4808144,-0.07,-0.04,0.98,0.73,7.02,8.97,874.8,31.16
4808182,-0.06,-0.03,1.0,0.43,5.8,8.91,874.81,31.15
4808220,-0.06,-0.04,0.99,0.55,5.07,8.97,874.83,31.16
4808258,-0.06,-0.04,0.96,0.49,3.78,8.91,874.86,31.15
4808296,-0.05,-0.04,0.97,0.49,3.72,9.16,874.91,31.15
4808372,-0.06,-0.04,0.95,0.31,2.99,9.22,874.93,31.12
4808410,-0.05,-0.04,0.93,0.12,2.93,9.03,874.92,31.14
4808448,-0.06,-0.04,0.94,0.18,2.93,9.16,874.9,31.14
4808538,-0.05,-0.04,0.96,-0.12,2.01,9.34,874.98,31.1
4808576,-0.05,-0.04,0.96,-0.18,1.77,9.28,875.0,31.12
4808614,-0.04,-0.03,0.97,-0.31,1.65,9.22,875.02,31.12
4808652,-0.05,-0.03,0.96,-0.67,1.34,9.09,875.0,31.13
4808690,-0.04,-0.03,0.97,-0.67,0.85,9.22,875.04,31.12
4808729,-0.05,-0.04,0.96,-0.92,1.16,9.16,875.01,31.13
4808778,-0.05,-0.04,1.0,-1.1,1.04,8.85,875.08,31.12
4808816,-0.04,-0.04,0.99,-1.34,1.65,8.67,875.09,31.12
4808855,-0.05,-0.04,0.99,-1.34,1.53,8.67,875.09,31.12
4808893,-0.05,-0.03,1.0,-1.4,1.71,8.73,875.13,31.12
4808931,-0.05,-0.03,1.04,-1.4,1.16,8.67,875.13,31.12
4808969,-0.07,-0.04,1.06,-1.89,1.95,8.67,875.1,31.13
4809007,-0.06,-0.03,1.08,-1.89,1.71,8.48,875.16,31.13
4809045,-0.06,-0.02,1.12,-1.83,2.32,8.42,875.19,31.12
4809083,-0.05,-0.03,1.11,-2.14,2.38,8.42,875.19,31.13
4809122,-0.03,-0.03,1.13,-2.2,2.62,8.36,875.26,31.13
4809171,-0.05,-0.03,1.13,-1.95,2.69,8.12,875.27,31.12
4809210,-0.04,-0.04,1.11,-1.89,2.56,8.0,875.26,31.14
4809248,-0.05,-0.03,1.05,-1.83,2.81,8.0,875.27,31.13
4809286,-0.05,-0.03,1.03,-2.2,2.62,7.87,875.31,31.13
4809324,-0.04,-0.04,0.99,-2.38,2.81,7.87,875.39,31.15
4809362,-0.05,-0.03,1.01,-2.44,2.44,7.69,875.3,31.13
4809400,-0.04,-0.04,1.03,-2.44,3.05,7.32,875.39,31.14
4809438,-0.04,-0.04,1.04,-2.32,3.3,7.08,875.34,31.13
4809477,-0.04,-0.03,1.08,-2.44,3.85,7.08,875.39,31.15
4809526,-0.05,-0.02,1.11,-2.38,4.46,6.9,875.32,31.13
4809564,-0.05,-0.02,1.16,-2.2,4.39,6.9,875.38,31.14
4809603,-0.05,-0.03,1.15,-2.38,5.25,6.65,875.39,31.15
4809641,-0.05,-0.01,1.18,-2.26,4.88,6.65,875.4,31.14
4809679,-0.04,-0.02,1.19,-2.26,4.94,6.77,875.39,31.15
4809717,-0.06,-0.02,1.23,-2.26,3.6,6.71,875.42,31.15
4809755,-0.06,-0.01,1.26,-1.95,3.78,6.77,875.42,31.14
4809793,-0.05,-0.01,1.26,-1.83,2.56,6.84,875.46,31.15
4809831,-0.07,-0.01,1.3,-1.65,1.89,7.08,875.48,31.15
4809870,-0.07,-0.02,1.26,-1.34,1.89,7.26,875.47,31.15
4809919,-0.07,-0.02,1.28,-0.98,1.04,7.2,875.55,31.15
4809958,-0.06,-0.03,1.21,-0.61,0.98,7.2,875.56,31.14
4809996,-0.09,-0.03,1.17,0.18,1.34,7.2,875.59,31.15
4810034,-0.07,-0.03,1.12,0.55,2.62,7.32,875.6,31.15
4810072,-0.08,-0.03,1.05,1.53,3.11,7.14,875.65,31.15
4810110,-0.1,-0.03,0.91,2.08,4.82,7.45,875.64,31.16
4810148,-0.08,-0.04,0.87,2.81,6.65,7.32,875.53,31.15
4810186,-0.09,-0.06,0.84,3.78,8.79,7.26,875.6,31.13
4810224,-0.1,-0.05,0.82,4.03,9.16,7.69,875.63,31.15
4810263,-0.09,-0.04,0.8,4.58,9.83,7.87,875.62,31.15
4810312,-0.08,-0.05,0.8,4.7,10.86,8.18,875.67,31.14
4810350,-0.08,-0.05,0.8,4.76,10.56,8.54,875.65,31.15
4810389,-0.09,-0.05,0.8,4.94,10.62,8.73,875.68,31.16
4810427,-0.08,-0.05,0.83,4.76,11.47,9.22,875.67,31.15
4810465,-0.06,-0.04,0.85,4.88,12.76,9.58,875.69,31.15
4810503,-0.08,-0.05,0.89,5.07,11.66,10.01,875.73,31.14
4810541,-0.08,-0.06,0.9,5.0,11.96,10.07,875.69,31.15
4810579,-0.06,-0.04,0.93,4.46,12.82,10.25,875.77,31.14
4810618,-0.04,-0.05,0.98,4.52,12.57,10.74,875.79,31.14
4810667,-0.05,-0.04,0.97,4.39,11.17,10.93,875.84,31.13
4810706,-0.07,-0.05,0.99,4.7,13.24,11.11,875.88,31.13
4810744,-0.04,-0.07,0.97,5.13,12.33,11.05,875.9,31.12
4810782,-0.03,-0.06,0.96,4.58,12.94,11.41,875.86,31.13
4810820,-0.07,-0.06,0.87,4.88,12.88,11.41,875.9,31.12
4810858,-0.07,-0.07,0.85,5.0,13.37,11.72,875.95,31.13
4810896,-0.02,-0.07,0.83,5.07,13.73,11.54,876.0,31.14
4810934,-0.03,-0.07,0.74,4.82,13.55,11.78,876.0,31.13
4810973,-0.06,-0.07,0.72,4.94,12.45,11.9,876.01,31.13
4811022,-0.02,-0.08,0.64,4.33,13.18,11.96,876.02,31.13
4811061,-0.0,-0.06,0.72,4.27,11.05,11.9,876.07,31.13
4811099,-0.06,-0.07,0.67,4.46,9.46,12.15,876.07,31.13
4811137,-0.04,-0.07,0.77,3.54,8.06,12.15,876.08,31.13
4811175,-0.01,-0.08,0.79,2.81,8.61,12.02,876.09,31.12
4811213,-0.03,-0.06,0.84,1.89,6.47,12.21,876.15,31.13
4811251,-0.01,-0.07,0.84,1.22,8.0,12.27,876.13,31.13
4811289,-0.02,-0.07,0.88,0.98,7.63,12.33,876.11,31.12
4811327,-0.03,-0.07,0.95,0.92,8.73,12.33,876.14,31.12
4811366,-0.01,-0.07,0.92,0.55,8.3,12.15,876.2,31.12
4811441,0.0,-0.09,0.94,0.98,12.27,12.02,876.23,31.07
4811480,0.02,-0.06,1.05,0.79,11.05,11.72,876.3,31.11
4811518,-0.02,-0.07,0.99,1.16,11.96,11.84,876.32,31.11
4811607,0.02,-0.07,0.98,1.04,13.24,11.41,876.38,31.08
4811645,0.02,-0.07,0.98,1.22,11.72,11.29,876.41,31.1
4811684,0.01,-0.08,1.0,1.34,12.88,11.23,876.43,31.11
4811722,0.02,-0.08,0.99,1.16,12.57,11.17,876.38,31.11
4811760,0.02,-0.06,1.02,0.98,12.27,10.8,876.46,31.11
4811798,0.01,-0.07,0.96,1.22,12.45,10.5,876.46,31.12
4811848,0.03,-0.08,1.02,0.61,11.78,10.31,876.54,31.11
4811886,0.04,-0.09,0.96,0.24,11.47,9.77,876.52,31.13
4811924,0.03,-0.06,1.01,0.06,10.25,10.01,876.59,31.12
4811962,0.05,-0.08,1.01,0.06,10.13,9.64,876.61,31.13
4812000,0.04,-0.08,1.01,-0.24,8.54,9.03,876.67,31.13
4812039,0.02,-0.08,1.04,-0.37,8.91,8.97,876.65,31.13
4812077,0.04,-0.09,1.03,-0.43,7.69,8.73,876.73,31.13
4812115,0.05,-0.07,1.09,-0.67,6.71,8.24,876.66,31.12
4812153,0.05,-0.08,1.06,-0.61,6.23,7.75,876.73,31.13
4812191,0.04,-0.08,1.09,-0.85,6.04,7.51,876.74,31.11
4812241,0.03,-0.07,1.11,-0.79,5.92,7.14,876.72,31.11
4812279,0.04,-0.08,1.14,-0.85,5.68,6.65,876.83,31.12
4812317,0.05,-0.08,1.14,-0.73,5.25,6.23,876.8,31.11
4812355,0.05,-0.07,1.18,-0.43,5.25,5.8,876.85,31.12
4812393,0.04,-0.08,1.14,-0.18,5.68,5.62,876.9,31.1
4812432,0.04,-0.07,1.15,-0.12,5.68,5.0,876.88,31.12
4812470,0.04,-0.07,1.16,0.24,6.29,4.58,876.89,31.12
4812508,0.03,-0.08,1.14,0.24,6.53,4.15,876.91,31.11
4812546,0.03,-0.08,1.14,0.55,6.77,3.72,877.0,31.11
4812584,0.05,-0.08,1.12,0.67,6.77,3.6,876.96,31.11
4812634,0.04,-0.08,1.12,0.67,6.9,3.05,877.04,31.09
4812672,0.04,-0.07,1.11,0.85,7.14,2.69,877.02,31.11
4812710,0.03,-0.07,1.1,0.79,7.26,2.44,877.1,31.1
4812748,0.04,-0.07,1.11,0.79,7.69,1.95,877.12,31.1
4812786,0.05,-0.07,1.11,0.67,8.42,1.65,877.12,31.11
4812825,0.02,-0.07,1.11,0.98,8.3,1.53,877.05,31.1
4812863,0.03,-0.07,1.13,1.28,8.0,1.4,877.2,31.1
4812901,0.03,-0.07,1.16,1.22,7.39,1.16,877.17,31.1
4812939,0.02,-0.07,1.14,1.4,8.0,1.16,877.25,31.1
4812989,0.01,-0.06,1.17,1.28,6.71,1.16,877.25,31.09
4813027,0.02,-0.07,1.15,1.53,7.02,0.92,877.35,31.11
4813065,0.02,-0.07,1.14,1.59,6.65,0.73,877.32,31.11
4813103,0.03,-0.07,1.16,1.59,6.77,0.61,877.31,31.1
4813141,0.03,-0.07,1.12,1.83,6.1,0.61,877.38,31.12
4813180,0.01,-0.06,1.13,1.77,5.43,0.43,877.41,31.12
4813218,0.02,-0.08,1.1,1.89,6.04,0.24,877.35,31.12
4813256,0.01,-0.08,1.11,1.71,5.74,0.24,877.42,31.11
4813294,0.02,-0.07,1.09,1.71,5.68,0.12,877.43,31.12
4813332,0.02,-0.07,1.1,2.08,5.13,-0.06,877.48,31.1
4813382,0.01,-0.07,1.09,2.08,5.8,-0.12,877.5,31.11
4813420,0.01,-0.07,1.07,2.08,5.68,-0.24,877.55,31.12
4813458,-0.01,-0.07,1.09,2.26,6.23,-0.43,877.54,31.11
4813496,-0.01,-0.07,1.09,2.32,7.02,-0.43,877.56,31.12
