timestamp,acc_x,acc_y,acc_z,rot_x,rot_y,rot_z,qfe,temp
4109520,-0.05,0.06,1.45,-3.36,2.44,-6.16,925.13,36.09
4109558,-0.1,0.07,1.36,-2.93,5.68,-5.98,925.1,36.09
4109608,-0.05,0.08,1.31,-3.11,8.91,-6.41,925.1,36.09
4109646,-0.06,0.13,1.44,-2.87,8.61,-5.68,925.05,36.1
4109684,-0.09,0.07,1.29,-2.81,8.61,-5.49,925.01,36.1
4109722,-0.05,0.13,1.39,-3.23,7.81,-5.55,924.98,36.11
4109760,-0.02,0.15,1.39,-3.54,10.31,-5.37,924.99,36.1
4109799,-0.04,0.16,1.39,-3.78,8.24,-5.0,924.94,36.09
4109837,-0.08,0.18,1.49,-4.09,8.97,-4.82,924.89,36.1
4109875,-0.07,0.17,1.48,-4.09,8.73,-4.58,924.84,36.1
4109913,-0.07,0.21,1.55,-4.15,8.48,-4.33,924.92,36.1
4109951,-0.05,0.22,1.46,-4.21,10.74,-4.46,924.77,36.11
4110001,-0.08,0.22,1.5,-3.72,9.7,-4.21,924.74,36.09
4110039,-0.03,0.22,1.38,-3.54,9.83,-3.91,924.76,36.09
4110077,-0.06,0.24,1.42,-3.17,9.28,-4.09,924.7,36.1
4110115,-0.07,0.22,1.31,-3.05,9.09,-4.03,924.7,36.1
4110153,-0.06,0.2,1.28,-2.87,9.28,-3.97,924.68,36.11
4110191,-0.06,0.2,1.32,-2.99,8.85,-4.27,924.64,36.12
4110229,-0.04,0.2,1.28,-3.17,8.18,-3.91,924.6,36.12
4110267,-0.06,0.22,1.24,-2.93,7.02,-3.97,924.61,36.11
4110305,-0.08,0.22,1.2,-2.38,7.63,-4.09,924.57,36.13
4110355,-0.05,0.19,1.23,-1.34,6.04,-4.21,924.45,36.09
4110393,-0.05,0.2,1.21,-0.98,6.16,-4.15,924.47,36.11
4110431,-0.06,0.21,1.24,-0.18,5.25,-4.39,924.43,36.1
4110469,-0.05,0.19,1.27,0.43,5.62,-4.33,924.32,36.09
4110507,-0.08,0.19,1.33,1.28,3.72,-4.46,924.38,36.11
4110546,-0.05,0.15,1.26,1.59,6.84,-4.82,924.32,36.11
4110584,-0.08,0.16,1.22,2.14,6.29,-4.88,924.31,36.1
4110622,-0.07,0.15,1.12,2.69,10.19,-5.19,924.21,36.09
4110660,-0.03,0.14,1.08,3.36,10.44,-5.43,924.2,36.09
4110698,-0.06,0.13,1.11,4.15,9.58,-5.62,924.1,36.1
4110748,-0.09,0.1,0.96,4.33,9.34,-5.49,924.06,36.09
4110786,-0.06,0.09,1.01,4.88,11.17,-5.92,923.95,36.09
4110824,-0.06,0.06,0.89,4.82,11.6,-5.98,923.96,36.09
4110862,-0.1,0.09,0.94,5.13,9.03,-5.92,923.93,36.11
4110900,-0.1,0.07,0.88,4.94,10.8,-5.86,923.77,36.1
4110938,-0.08,0.06,0.88,4.27,9.95,-5.74,923.71,36.1
4110976,-0.09,0.06,0.92,3.78,9.34,-5.62,923.61,36.1
4111014,-0.1,0.04,0.89,2.93,6.96,-5.74,923.62,36.1
4111052,-0.1,0.03,0.95,2.32,7.75,-5.37,923.52,36.1
4111102,-0.08,0.03,1.01,2.2,7.39,-5.31,923.52,36.08
4111140,-0.09,0.02,1.0,1.89,6.35,-5.07,923.43,36.08
4111178,-0.13,0.03,1.02,1.95,4.52,-4.64,923.35,36.08
4111216,-0.11,0.01,1.01,1.83,4.03,-4.33,923.27,36.08
4111254,-0.13,0.01,1.0,1.65,1.59,-4.27,923.25,36.08
4111292,-0.1,0.01,1.08,2.01,1.4,-3.91,923.22,36.07
4111330,-0.09,0.0,0.98,2.26,-0.67,-3.48,923.23,36.09
4111368,-0.12,0.01,0.99,2.26,-0.73,-3.3,923.16,36.09
4111406,-0.13,-0.0,0.98,2.44,-0.18,-2.99,923.08,36.1
4111444,-0.13,0.0,1.04,2.69,-1.34,-2.75,923.03,36.1
4111520,-0.13,0.0,0.95,2.99,-0.31,-2.2,923.02,36.06
4111558,-0.17,0.01,0.87,3.05,1.1,-1.65,922.96,36.07
4111596,-0.12,0.01,0.84,3.72,1.16,-1.34,922.96,36.07
4111686,-0.1,0.0,0.7,3.97,2.5,-0.43,923.08,36.05
4111724,-0.07,0.02,0.72,4.52,0.73,-0.49,923.04,36.06
4111762,-0.11,0.01,0.64,4.52,1.95,-0.43,923.07,36.07
4111800,-0.06,0.01,0.65,4.39,1.34,-0.18,923.04,36.06
4111838,-0.06,0.01,0.65,4.46,1.95,-0.43,923.02,36.08
4111876,-0.07,0.02,0.6,4.39,1.53,-0.37,923.02,36.08
4111926,-0.06,0.04,0.59,4.46,1.71,-0.37,922.96,36.08
4111964,-0.04,0.02,0.57,4.39,1.46,-0.61,922.93,36.07
4112002,-0.04,0.02,0.53,4.21,1.4,-0.67,922.94,36.08
4112040,-0.05,0.04,0.55,4.21,1.28,-0.79,922.83,36.07
4112078,-0.03,0.04,0.53,3.91,1.28,-0.85,922.86,36.07
4112116,-0.04,0.03,0.53,3.6,0.98,-0.92,922.84,36.09
4112154,-0.06,0.03,0.54,3.85,1.95,-1.22,922.85,36.06
4112192,-0.03,0.02,0.49,3.48,3.05,-1.4,922.75,36.06
4112230,-0.02,0.04,0.5,2.99,2.26,-1.89,922.81,36.07
4112268,-0.03,0.03,0.49,2.87,3.36,-1.77,922.79,36.08
4112318,-0.0,0.02,0.53,2.38,2.81,-2.2,922.71,36.05
4112356,-0.01,0.01,0.52,2.2,3.11,-2.5,922.69,36.05
4112394,-0.02,0.02,0.54,1.89,2.01,-2.81,922.69,36.07
4112432,-0.02,0.02,0.6,1.65,2.69,-3.05,922.64,36.07
4112470,-0.0,-0.0,0.61,1.83,2.32,-3.3,922.61,36.05
4112508,-0.01,0.01,0.65,1.53,1.04,-3.48,922.64,36.07
4112546,-0.02,0.0,0.65,1.46,0.79,-3.72,922.62,36.06
4112584,-0.02,0.01,0.63,1.4,1.16,-3.85,922.62,36.07
4112622,-0.0,0.0,0.67,1.28,1.16,-4.15,922.6,36.08
4112660,-0.02,-0.01,0.65,1.22,0.49,-4.27,922.57,36.08
4112710,-0.04,-0.01,0.68,1.04,0.73,-4.52,922.58,36.07
4112748,-0.04,-0.0,0.66,0.98,1.53,-4.58,922.51,36.07
4112786,-0.02,-0.0,0.68,1.04,1.04,-4.88,922.51,36.07
4112824,-0.03,-0.01,0.71,1.28,0.43,-4.94,922.5,36.08
4112862,-0.03,-0.01,0.69,1.34,1.46,-4.88,922.51,36.08
4112900,-0.03,-0.01,0.71,1.16,1.59,-5.25,922.49,36.07
4112938,-0.04,-0.01,0.72,1.04,1.89,-5.19,922.46,36.07
4112976,-0.06,-0.01,0.73,0.79,1.83,-5.0,922.46,36.08
4113014,-0.05,-0.01,0.77,0.73,2.38,-5.07,922.39,36.07
4113064,-0.03,0.0,0.83,0.61,1.71,-5.19,922.45,36.05
4113102,-0.03,-0.0,0.86,0.79,1.04,-5.13,922.41,36.07
4113140,-0.06,-0.01,0.85,0.79,0.06,-5.0,922.33,36.06
4113178,-0.03,-0.01,0.86,0.98,-0.24,-5.25,922.39,36.06
4113216,-0.06,-0.0,0.84,1.1,-0.31,-5.07,922.4,36.06
4113254,-0.06,-0.01,0.78,1.16,0.0,-5.0,922.29,36.05
4113292,-0.06,-0.0,0.75,1.28,0.0,-5.13,922.25,36.07
4113330,-0.08,-0.01,0.73,1.34,0.37,-5.07,922.3,36.07
4113368,-0.1,-0.01,0.71,1.04,1.65,-4.94,922.28,36.06
4113406,-0.07,-0.01,0.75,0.67,2.01,-4.76,922.2,36.06
4113456,-0.08,-0.01,0.85,0.67,1.77,-4.64,922.21,36.05
4113494,-0.09,-0.02,0.81,0.18,3.05,-4.39,922.27,36.06
4113532,-0.07,0.0,0.92,0.37,1.95,-4.15,922.3,36.07
4113570,-0.07,-0.01,0.89,0.37,2.5,-4.09,922.3,36.07
4113608,-0.09,0.01,0.92,0.18,2.75,-3.85,922.33,36.05
4113646,-0.08,0.0,0.98,1.1,4.03,-3.78,922.34,36.07
4113684,-0.07,-0.01,0.93,0.79,6.77,-3.6,922.35,36.06
4113722,-0.07,0.01,1.0,1.1,6.1,-3.6,922.36,36.05
4113760,-0.07,0.0,1.0,1.53,8.42,-3.36,922.35,36.06
4113810,-0.05,0.0,1.03,1.4,9.16,-3.42,922.36,36.06
4113848,-0.04,0.01,1.03,1.53,10.8,-3.48,922.36,36.06
4113886,-0.07,0.01,1.02,1.83,10.01,-3.42,922.41,36.06
4113924,-0.07,0.01,1.04,1.95,11.9,-3.3,922.35,36.06
4113962,-0.04,0.0,1.04,1.83,14.04,-3.36,922.33,36.06
4114000,-0.04,0.02,1.16,1.77,14.59,-3.36,922.33,36.06
4114038,-0.05,0.01,1.02,1.28,17.03,-3.17,922.35,36.07
4114076,-0.07,0.03,1.16,0.98,15.01,-3.23,922.34,36.07
4114115,-0.06,0.0,1.19,0.55,17.33,-2.99,922.33,36.06
4114153,-0.03,0.01,1.15,-0.12,15.26,-2.75,922.35,36.07
4114202,-0.06,0.03,1.21,0.49,15.75,-2.75,922.37,36.06
4114240,-0.03,0.0,1.13,0.49,14.22,-2.75,922.32,36.06
4114278,-0.03,0.02,1.18,0.55,14.16,-2.62,922.41,36.07
4114316,-0.01,0.02,1.14,0.55,14.77,-2.44,922.32,36.06
4114354,-0.04,0.02,1.2,0.85,14.1,-2.5,922.41,36.08
4114393,-0.04,0.02,1.15,1.16,15.32,-2.56,922.34,36.06
4114431,-0.05,0.02,1.19,1.89,13.43,-2.69,922.32,36.07
4114469,-0.03,0.0,1.17,1.65,13.61,-2.5,922.28,36.05
4114507,-0.01,0.02,1.11,1.22,12.88,-3.05,922.35,36.06
4114584,-0.01,0.0,1.09,1.04,11.9,-3.05,922.3,36.04
4114622,-0.02,0.0,1.05,0.37,12.27,-3.3,922.32,36.04
4114660,-0.05,0.02,1.04,-0.18,10.62,-3.3,922.37,36.04
4114749,-0.0,-0.01,0.85,-0.92,12.27,-3.72,922.35,36.01
4114788,0.02,0.01,0.88,-1.46,10.56,-3.91,922.26,36.02
4114826,-0.05,0.01,0.81,-1.59,10.99,-3.85,922.31,36.02
4114864,-0.02,-0.01,0.88,-1.95,10.38,-3.78,922.24,36.01
4114902,-0.02,-0.02,0.88,-2.75,10.68,-4.27,922.27,36.03
4114940,-0.05,0.01,0.9,-3.42,9.64,-4.27,922.29,36.04
4114978,-0.03,0.0,0.97,-3.42,10.62,-4.7,922.24,36.04
4115028,-0.03,0.02,1.06,-3.54,9.22,-5.0,922.32,36.02
4115066,-0.03,0.01,1.12,-3.11,9.22,-4.7,922.25,36.03
4115104,-0.04,-0.0,1.06,-2.93,9.89,-4.88,922.35,36.04
4115142,-0.03,0.03,1.15,-2.93,8.73,-5.31,922.3,36.05
4115180,-0.03,0.01,1.14,-2.87,9.58,-5.31,922.23,36.03
4115218,-0.01,0.0,1.18,-2.87,8.36,-5.43,922.28,36.04
4115256,-0.02,0.02,1.18,-2.69,8.54,-5.74,922.29,36.04
4115294,-0.02,0.02,1.17,-2.32,8.0,-5.68,922.24,36.03
4115333,-0.02,0.02,1.16,-1.83,7.32,-5.8,922.23,36.06
4115382,-0.03,0.02,1.14,-1.28,6.23,-5.92,922.15,36.03
4115420,-0.04,0.01,1.14,-0.92,4.94,-6.04,922.14,36.04
4115458,-0.03,0.01,1.07,-1.1,3.54,-6.1,922.12,36.04
4115496,-0.04,0.03,1.1,-1.1,1.77,-6.29,922.18,36.04
4115534,-0.05,0.01,0.97,-1.34,2.14,-5.92,922.09,36.04
4115572,-0.06,0.04,1.01,-1.71,-0.12,-5.86,922.14,36.03
4115610,-0.09,-0.12,0.99,-1.77,0.98,-5.62,922.17,36.04
4115648,-0.07,-0.08,0.97,-2.87,1.77,-5.49,922.15,36.04
4115686,-0.08,-0.05,1.05,-3.36,0.55,-5.43,922.19,36.05
4115736,-0.04,-0.07,1.17,-4.15,2.01,-5.07,922.2,36.03
4115774,-0.05,-0.08,1.21,-4.7,3.3,-5.19,922.26,36.05
4115812,-0.05,-0.08,1.17,-5.07,3.85,-5.07,922.26,36.06
4115850,-0.04,-0.04,1.26,-5.62,3.23,-4.94,922.22,36.05
4115889,-0.06,-0.07,1.22,-6.04,4.03,-4.76,922.31,36.04
4115927,-0.05,-0.08,1.31,-6.53,2.62,-4.82,922.25,36.05
4115965,-0.05,-0.08,1.32,-6.59,3.78,-4.64,922.34,36.06
4116003,-0.04,-0.04,1.4,-6.65,2.81,-4.46,922.31,36.06
4116041,-0.03,-0.03,1.46,-6.04,4.7,-4.52,922.33,36.05
4116079,-0.03,-0.04,1.47,-6.04,3.85,-4.64,922.32,36.06
4116129,-0.05,-0.06,1.47,-5.68,4.82,-4.27,922.33,36.04
4116167,-0.06,-0.06,1.45,-5.37,4.64,-4.09,922.33,36.05
4116205,-0.04,-0.02,1.46,-5.13,4.27,-4.15,922.35,36.05
4116243,-0.03,-0.03,1.47,-4.94,4.03,-3.78,922.33,36.03
4116281,-0.03,-0.05,1.47,-4.76,3.17,-3.66,922.34,36.05
4116319,-0.03,-0.06,1.46,-4.52,2.56,-3.6,922.31,36.05
4116357,-0.03,-0.04,1.49,-4.52,2.14,-3.36,922.33,36.05
4116395,-0.02,-0.03,1.48,-4.33,1.22,-3.36,922.35,36.04
4116433,-0.04,-0.02,1.5,-4.09,1.1,-3.05,922.29,36.05
4116483,-0.04,-0.04,1.53,-3.17,0.85,-2.99,922.36,36.04
4116521,-0.03,-0.04,1.52,-2.87,0.61,-2.99,922.3,36.03
4116559,-0.02,-0.02,1.53,-2.32,1.53,-3.23,922.35,36.05
4116597,-0.01,-0.02,1.48,-1.77,2.14,-3.23,922.38,36.04
4116635,-0.04,-0.04,1.45,-1.4,1.65,-3.42,922.38,36.05
4116673,-0.03,-0.07,1.37,-0.73,2.26,-3.48,922.41,36.05
4116711,-0.0,-0.07,1.29,-0.61,2.32,-3.48,922.33,36.05
4116749,-0.01,-0.05,1.27,-0.61,1.89,-3.42,922.4,36.05
4116787,-0.0,-0.05,1.22,-0.49,1.4,-3.36,922.33,36.04
4116837,-0.01,-0.07,1.28,-0.31,1.1,-3.48,922.34,36.04
4116875,-0.01,-0.09,1.24,-0.37,0.85,-3.48,922.4,36.03
4116913,-0.01,-0.06,1.28,-0.55,0.67,-3.42,922.3,36.04
4116951,-0.0,-0.05,1.25,-0.43,0.24,-3.6,922.33,36.04
4116990,-0.01,-0.05,1.27,-0.67,-0.43,-3.72,922.29,36.05
4117028,-0.0,-0.08,1.24,-0.55,0.55,-3.54,922.31,36.03
4117066,-0.0,-0.08,1.21,-0.61,0.12,-3.66,922.23,36.04
4117104,-0.03,-0.05,1.25,-0.61,-0.85,-3.85,922.21,36.04
4117142,-0.02,-0.06,1.24,-0.79,-0.55,-3.6,922.24,36.01
4117180,0.01,-0.06,1.3,-0.98,-0.24,-3.72,922.27,36.05
4117230,-0.02,-0.08,1.29,-0.85,0.0,-3.97,922.27,36.04
4117268,-0.01,-0.06,1.3,-0.67,0.12,-3.91,922.29,36.04
4117306,-0.01,-0.06,1.3,-0.79,0.49,-3.97,922.27,36.04
4117344,-0.01,-0.05,1.3,-0.85,0.0,-3.91,922.23,36.04
4117382,-0.01,-0.07,1.32,-1.04,-0.24,-3.91,922.26,36.04
4117420,-0.01,-0.07,1.31,-0.92,-0.92,-4.09,922.28,36.04
4117458,-0.03,-0.05,1.33,-0.92,-1.04,-4.03,922.3,36.04
4117496,-0.01,-0.06,1.3,-0.85,-0.43,-4.03,922.33,36.06
4117534,-0.01,-0.07,1.31,-0.92,-0.73,-3.97,922.3,36.05
4117610,-0.04,-0.07,1.27,-1.28,0.67,-3.97,922.26,36.03
4117648,-0.04,-0.06,1.26,-1.34,1.65,-4.03,922.25,36.02
4117686,-0.03,-0.07,1.24,-1.59,0.98,-3.91,922.26,36.02
4117775,-0.04,-0.08,1.18,-1.71,2.32,-3.72,922.21,35.99
4117814,-0.03,-0.07,1.22,-1.77,2.5,-3.54,922.26,36.02
4117852,-0.04,-0.07,1.19,-1.53,1.16,-3.6,922.17,36.01
4117890,-0.06,-0.06,1.21,-1.59,2.08,-3.48,922.21,36.02
4117928,-0.04,-0.08,1.24,-1.59,3.23,-3.17,922.26,36.02
4117966,-0.02,-0.08,1.24,-1.83,1.4,-3.11,922.25,36.03
4118016,-0.07,-0.06,1.22,-1.83,2.5,-2.75,922.23,36.01
4118054,-0.03,-0.07,1.19,-1.95,2.32,-2.56,922.26,36.02
4118092,-0.04,-0.07,1.17,-1.59,3.17,-2.38,922.22,36.01
4118130,-0.04,-0.09,1.11,-1.59,2.75,-2.32,922.22,36.02
4118168,-0.05,-0.08,1.13,-1.53,4.03,-2.26,922.22,36.02
4118206,-0.03,-0.08,1.07,-1.53,4.03,-2.2,922.24,36.02
4118244,-0.04,-0.07,1.2,-1.71,2.44,-2.2,922.17,36.03
4118282,-0.02,-0.1,1.11,-1.71,3.36,-2.08,922.22,36.04
4118320,-0.04,-0.09,1.22,-1.89,3.05,-2.32,922.18,36.02
4118370,-0.02,-0.1,1.15,-1.89,3.85,-2.14,922.19,36.02
4118408,-0.02,-0.08,1.22,-2.01,3.23,-2.2,922.26,36.04
4118446,-0.02,-0.1,1.12,-1.71,5.43,-2.26,922.22,36.02
4118484,0.0,-0.09,1.13,-1.65,5.07,-2.38,922.2,36.03
4118522,0.0,-0.09,1.1,-1.65,7.14,-2.44,922.25,36.04
4118560,0.02,-0.1,1.07,-1.59,6.35,-2.69,922.13,36.03
4118598,-0.0,-0.1,1.09,-1.77,6.96,-2.75,922.11,36.02
4118636,0.01,-0.11,1.06,-1.77,7.32,-2.81,922.05,36.02
4118674,0.03,-0.09,1.13,-2.08,7.14,-3.11,922.11,36.03
4118713,0.03,-0.09,1.09,-2.32,8.42,-3.23,922.08,36.01
4118762,0.02,-0.1,1.08,-2.44,7.81,-3.54,922.07,36.03
4118800,0.02,-0.1,1.05,-2.69,8.79,-3.66,922.08,36.04
4118839,0.02,-0.1,1.04,-2.69,7.93,-3.91,922.07,36.04
4118877,0.02,-0.1,1.05,-2.99,8.48,-4.15,922.08,36.03
4118915,0.02,-0.09,1.08,-2.99,8.06,-4.39,922.05,36.03
4118953,-0.0,-0.1,1.07,-2.75,7.75,-4.52,922.06,36.03
4118991,0.02,-0.09,1.12,-2.81,6.59,-4.64,922.03,36.04
4119029,0.03,-0.09,1.14,-2.99,6.84,-4.64,922.02,36.04
4119067,0.0,-0.09,1.08,-2.93,5.92,-4.82,922.04,36.03
4119117,-0.03,-0.09,1.1,-2.87,5.37,-5.07,922.04,36.03
4119155,-0.01,-0.09,1.09,-2.99,5.25,-5.13,921.97,36.03
4119193,0.0,-0.08,1.13,-2.99,4.27,-5.37,922.03,36.04
4119231,-0.0,-0.09,1.1,-2.62,4.27,-5.25,921.97,36.03
4119269,0.0,-0.09,1.13,-2.5,3.36,-5.55,921.97,36.05
4119307,-0.0,-0.09,1.14,-2.44,3.6,-5.37,922.01,36.04
4119345,-0.01,-0.09,1.13,-2.26,2.5,-5.55,921.98,36.04
4119383,-0.0,-0.09,1.12,-1.83,3.17,-5.86,922.03,36.04
4119422,0.01,-0.09,1.08,-1.71,2.69,-6.04,921.98,36.04
4119460,-0.0,-0.08,1.1,-1.95,2.2,-5.92,921.92,36.04
4119509,-0.0,-0.09,1.08,-1.71,2.93,-6.29,921.98,36.04
4119547,-0.01,-0.08,1.1,-1.71,3.3,-6.35,921.93,36.02
4119586,-0.01,-0.09,1.11,-1.59,3.11,-6.41,921.9,36.05
4119624,-0.01,-0.08,1.14,-1.59,2.81,-6.47,921.9,36.04
4119662,-0.01,-0.08,1.16,-1.46,3.42,-6.71,921.94,36.04
4119700,-0.01,-0.08,1.13,-1.59,3.36,-6.65,921.89,36.04
4119738,-0.01,-0.08,1.17,-1.46,4.52,-6.77,921.83,36.04
4119776,-0.01,-0.09,1.13,-1.46,4.15,-7.08,921.85,36.06
4119814,-0.01,-0.07,1.14,-1.34,4.33,-7.02,921.9,36.04
4119864,-0.02,-0.09,1.09,-1.16,4.94,-7.08,921.86,36.03
4119902,-0.02,-0.08,1.11,-1.28,5.13,-7.26,921.83,36.03
4119940,-0.02,-0.08,1.08,-1.28,5.8,-7.02,921.89,36.04
4119978,-0.02,-0.08,1.1,-1.4,5.31,-7.39,921.83,36.04
4120016,-0.02,-0.08,1.12,-1.34,5.55,-7.39,921.83,36.04
4120054,-0.01,-0.08,1.11,-1.59,6.04,-7.57,921.78,36.04
4120092,-0.02,-0.08,1.13,-1.59,6.29,-7.63,921.83,36.04
4120130,-0.03,-0.08,1.13,-1.4,5.68,-7.69,921.81,36.04
4120169,-0.03,-0.08,1.12,-1.46,5.98,-7.63,921.79,36.05
4120218,-0.03,-0.08,1.1,-1.71,6.16,-7.39,921.77,36.03
4120256,-0.02,-0.08,1.04,-1.89,6.71,-7.63,921.76,36.04
4120294,-0.03,-0.07,1.07,-1.65,5.86,-7.57,921.78,36.04
4120333,-0.03,-0.08,1.05,-1.77,6.23,-7.39,921.8,36.04
4120371,-0.02,-0.08,1.07,-1.59,5.19,-7.32,921.84,36.05
4120409,-0.03,-0.08,1.09,-1.65,5.55,-7.45,921.74,36.05
4120447,-0.03,-0.08,1.09,-1.59,4.88,-7.32,921.73,36.05
4120485,-0.02,-0.08,1.11,-1.95,5.0,-7.32,921.74,36.06
4120523,-0.02,-0.08,1.09,-2.01,4.94,-7.32,921.76,36.04
4120561,-0.03,-0.07,1.12,-1.77,4.88,-7.32,921.83,36.04
4120637,-0.03,-0.08,1.09,-1.71,5.62,-7.2,921.66,36.01
4120675,-0.03,-0.08,1.1,-1.95,6.16,-7.32,921.69,36.02
4120713,-0.02,-0.07,1.14,-1.89,6.1,-7.2,921.75,36.03
4120802,-0.02,-0.07,1.19,-1.83,6.29,-7.14,921.6,35.96
4120840,-0.04,-0.07,1.21,-1.71,6.71,-7.02,921.68,36.01
4120879,-0.03,-0.08,1.17,-1.65,6.96,-7.02,921.73,36.0
4120917,-0.02,-0.07,1.24,-1.53,6.9,-7.08,921.64,36.0
4120955,-0.03,-0.07,1.21,-1.4,6.9,-6.96,921.69,36.02
4120993,-0.03,-0.07,1.22,-1.65,6.77,-6.59,921.62,36.02
4121043,-0.03,-0.07,1.19,-1.28,7.32,-6.84,921.63,36.0
4121081,-0.04,-0.07,1.21,-1.34,6.41,-6.77,921.63,36.02
4121119,-0.03,-0.08,1.19,-1.28,6.77,-6.41,921.63,36.0
4121157,-0.04,-0.08,1.17,-1.28,6.59,-6.41,921.58,36.02
4121195,-0.03,-0.07,1.17,-1.16,7.08,-6.41,921.66,36.02
4121233,-0.04,-0.07,1.16,-0.98,7.08,-6.16,921.61,36.02
4121271,-0.03,-0.07,1.19,-0.92,7.51,-6.16,921.59,36.03
4121309,-0.04,-0.08,1.18,-1.04,7.51,-6.23,921.6,36.03
4121347,-0.05,-0.08,1.18,-1.16,8.0,-5.86,921.62,36.02
4121397,-0.03,-0.08,1.16,-1.22,8.54,-6.04,921.61,36.01
4121435,-0.03,-0.07,1.18,-1.34,8.36,-5.86,921.52,36.02
4121473,-0.03,-0.07,1.17,-1.34,8.79,-5.86,921.56,36.02
4121511,-0.02,-0.07,1.19,-1.4,8.67,-5.86,921.57,36.03
4121549,-0.04,-0.07,1.2,-1.34,8.79,-5.62,921.51,36.02
4121587,-0.04,-0.09,1.17,-1.4,8.85,-5.49,921.53,36.03
4121625,-0.05,-0.06,1.21,-1.53,8.06,-5.62,921.49,36.02
4121663,-0.02,-0.07,1.19,-1.46,8.61,-5.55,921.51,36.02
4121701,-0.02,-0.09,1.17,-1.71,8.18,-5.37,921.51,36.03
4121739,-0.03,-0.08,1.16,-1.71,8.18,-5.19,921.51,36.02
4121789,-0.03,-0.08,1.14,-1.71,7.08,-5.13,921.5,36.01
4121827,-0.04,-0.08,1.14,-2.01,7.63,-5.19,921.4,36.02
4121865,-0.04,-0.08,1.16,-2.32,6.96,-5.19,921.46,36.02
4121903,-0.03,-0.08,1.21,-2.56,6.71,-5.19,921.46,36.02
4121941,-0.02,-0.08,1.2,-2.93,5.98,-5.19,921.4,36.02
4121980,-0.04,-0.07,1.25,-2.81,6.04,-5.0,921.46,36.01
4122018,-0.03,-0.08,1.24,-3.11,6.59,-5.07,921.41,36.01
4122056,-0.03,-0.06,1.28,-2.99,6.04,-4.82,921.35,36.01
4122094,-0.05,-0.07,1.25,-2.99,6.53,-4.94,921.41,36.0
4122144,-0.06,-0.06,1.29,-2.75,6.16,-4.76,921.35,35.98
4122182,-0.03,-0.07,1.28,-3.11,7.02,-4.58,921.39,36.01
4122220,-0.01,-0.06,1.34,-2.87,5.62,-4.33,921.34,36.02
4122258,-0.03,-0.07,1.31,-2.56,5.92,-4.33,921.36,36.01
4122296,-0.03,-0.08,1.24,-2.14,5.92,-4.27,921.37,36.0
4122334,-0.0,-0.07,1.28,-1.59,5.07,-4.39,921.35,36.0
4122372,-0.03,-0.08,1.19,-1.89,5.07,-4.15,921.36,36.0
4122410,-0.03,-0.07,1.21,-1.95,4.7,-4.21,921.35,36.01
4122448,-0.03,-0.07,1.19,-2.08,5.25,-4.09,921.24,36.01
4122498,-0.02,-0.07,1.21,-2.26,3.97,-4.09,921.22,35.98
4122536,-0.03,-0.08,1.16,-2.38,5.07,-4.27,921.28,36.01
4122574,-0.02,-0.09,1.13,-2.38,5.86,-4.33,921.27,36.01
4122612,0.01,-0.08,1.17,-2.5,6.71,-4.27,921.28,36.01
4122650,0.0,-0.09,1.08,-2.56,6.9,-4.52,921.25,36.01
4122688,-0.01,-0.07,1.1,-2.93,6.71,-4.33,921.23,36.02
4122726,0.0,-0.08,1.05,-3.11,7.51,-4.7,921.25,36.01
4122764,-0.01,-0.08,1.08,-3.3,6.23,-4.76,921.24,36.02
4122802,-0.01,-0.09,1.04,-3.36,7.2,-4.76,921.2,36.0
4122840,0.01,-0.08,1.07,-3.23,6.41,-4.94,921.19,36.01
4122890,-0.01,-0.09,1.07,-3.17,7.26,-5.25,921.19,36.0
4122928,0.0,-0.08,1.07,-3.54,7.02,-5.43,921.23,36.01
4122966,-0.01,-0.07,1.11,-3.85,7.32,-5.31,921.13,36.01
4123004,0.02,-0.08,1.16,-3.91,7.87,-5.62,921.17,36.02
4123042,0.0,-0.08,1.22,-3.78,6.71,-5.8,921.21,36.01
4123080,0.01,-0.07,1.23,-3.97,6.77,-5.74,921.12,36.01
4123118,-0.0,-0.07,1.23,-3.72,6.59,-5.86,921.14,36.01
4123156,-0.01,-0.06,1.27,-3.6,5.74,-5.92,921.14,36.02
4123194,-0.01,-0.07,1.26,-3.54,5.49,-5.8,921.11,36.02
4123244,-0.01,-0.08,1.22,-3.48,5.49,-5.86,921.2,36.01
4123282,-0.03,-0.08,1.22,-3.42,4.82,-6.16,921.07,36.0
4123320,-0.0,-0.08,1.2,-3.48,4.58,-6.04,921.13,36.02
4123358,-0.0,-0.08,1.18,-3.6,3.85,-6.1,921.1,36.02
4123396,-0.01,-0.07,1.17,-3.97,3.66,-6.23,921.1,36.02
4123434,-0.01,-0.07,1.21,-4.03,3.6,-6.04,921.13,36.02
4123472,-0.02,-0.09,1.17,-3.66,3.48,-6.1,921.13,36.0
4123510,-0.02,-0.07,1.22,-3.91,1.89,-6.16,921.16,36.02
4123548,-0.02,-0.08,1.17,-4.03,2.08,-6.04,921.11,36.02
4123624,-0.03,-0.07,1.18,-4.09,1.28,-6.29,921.08,35.99
4123662,-0.03,-0.09,1.11,-4.09,1.59,-6.1,921.05,35.98
4123700,-0.04,-0.08,1.09,-4.46,1.77,-6.1,921.03,35.99
4123790,-0.03,-0.08,1.1,-4.58,1.53,-6.23,920.98,35.96
4123828,-0.02,-0.08,1.1,-4.64,2.2,-6.29,921.04,35.98
4123866,-0.03,-0.09,1.09,-5.0,2.38,-6.04,921.02,35.98
4123904,-0.02,-0.08,1.1,-4.88,2.2,-6.23,921.04,36.0
4123942,-0.02,-0.08,1.12,-5.0,2.62,-6.1,921.05,35.98
4123980,-0.03,-0.08,1.13,-5.25,2.99,-6.16,921.0,35.98
4124018,-0.03,-0.07,1.19,-5.13,3.05,-6.35,921.01,35.98
4124068,-0.01,-0.07,1.21,-5.13,2.87,-6.41,920.99,35.98
4124106,-0.05,-0.08,1.21,-5.31,3.72,-6.23,920.98,35.98
4124144,-0.02,-0.08,1.24,-5.07,3.72,-6.35,921.03,35.99
4124182,-0.06,-0.07,1.23,-5.07,3.6,-6.23,921.07,36.0
4124220,-0.03,-0.07,1.26,-4.94,3.42,-6.23,920.98,36.0
4124258,-0.03,-0.08,1.23,-4.76,3.78,-6.29,920.97,35.99
4124296,-0.03,-0.06,1.21,-5.07,3.23,-6.23,921.07,35.99
4124334,-0.03,-0.05,1.27,-5.0,2.44,-6.04,920.99,35.99
4124372,-0.03,-0.07,1.22,-4.94,3.11,-5.92,920.96,36.0
4124422,-0.04,-0.06,1.28,-4.88,2.01,-6.1,920.94,35.98
4124460,-0.03,-0.06,1.27,-4.7,2.81,-6.04,920.99,35.99
4124498,-0.03,-0.05,1.3,-4.64,2.08,-5.92,920.92,36.0
4124536,-0.02,-0.06,1.3,-4.46,2.75,-6.04,920.96,36.0
4124574,-0.03,-0.06,1.33,-4.21,2.01,-5.8,920.97,36.0
4124612,-0.05,-0.06,1.31,-4.27,2.99,-5.74,921.0,36.0
4124650,-0.02,-0.05,1.32,-3.48,3.97,-5.68,920.98,36.01
4124688,-0.05,-0.06,1.28,-3.42,4.7,-5.92,920.96,36.0
4124726,-0.03,-0.06,1.3,-3.17,4.21,-5.8,920.95,36.0
4124776,-0.04,-0.06,1.27,-3.05,5.19,-5.92,920.92,35.98
4124814,-0.04,-0.06,1.24,-2.99,5.8,-5.92,920.96,36.0
4124852,-0.04,-0.06,1.25,-2.87,5.55,-6.1,920.97,36.0
4124890,-0.05,-0.06,1.21,-2.56,6.47,-5.98,920.93,36.02
4124928,-0.03,-0.06,1.19,-2.62,6.77,-5.8,920.97,35.99
4124966,-0.03,-0.07,1.16,-2.5,6.84,-5.86,920.97,36.01
4125004,-0.04,-0.07,1.15,-2.56,6.77,-5.8,920.93,36.0
4125043,-0.03,-0.07,1.12,-2.69,6.41,-5.8,920.89,36.0
4125081,-0.03,-0.06,1.14,-2.69,5.98,-5.92,920.99,36.01
4125130,-0.04,-0.07,1.17,-2.87,6.47,-5.62,920.93,35.99
4125169,-0.04,-0.06,1.14,-3.17,5.86,-5.55,920.86,35.98
4125207,-0.04,-0.06,1.15,-2.81,6.84,-5.55,920.88,36.0
4125245,-0.03,-0.07,1.08,-3.05,7.39,-5.55,920.91,35.99
4125283,-0.03,-0.06,1.14,-3.48,6.59,-5.55,920.89,36.0
4125321,-0.04,-0.07,1.09,-3.11,7.69,-5.49,920.87,35.99
4125359,-0.02,-0.06,1.12,-3.23,7.26,-5.25,920.86,36.0
4125397,-0.03,-0.06,1.12,-3.11,7.87,-5.43,920.89,36.01
4125435,-0.04,-0.06,1.13,-3.05,7.75,-5.25,920.85,36.0
4125473,-0.03,-0.06,1.14,-3.3,7.69,-5.07,920.85,36.01
4125523,-0.03,-0.06,1.11,-3.6,7.57,-5.19,920.79,35.99
4125561,-0.01,-0.06,1.17,-3.78,7.26,-5.19,920.81,36.01
4125599,-0.0,-0.07,1.12,-4.03,8.24,-5.25,920.84,36.01
4125637,-0.01,-0.06,1.17,-3.97,7.81,-5.19,920.77,36.0
4125675,-0.01,-0.07,1.12,-3.85,8.54,-5.31,920.78,36.01
4125714,-0.01,-0.05,1.15,-3.97,7.51,-5.37,920.78,35.99
4125752,-0.02,-0.06,1.14,-4.09,8.67,-5.55,920.82,36.01
4125790,-0.01,-0.06,1.13,-4.03,8.36,-5.62,920.73,35.99
4125828,-0.01,-0.06,1.14,-3.48,8.67,-5.62,920.76,36.0
4125877,-0.0,-0.06,1.13,-3.54,7.81,-5.74,920.77,35.99
4125916,-0.01,-0.06,1.11,-3.3,8.18,-5.86,920.72,35.99
4125954,-0.0,-0.06,1.1,-3.23,7.75,-5.92,920.64,36.01
4125992,-0.02,-0.06,1.13,-3.11,7.63,-5.98,920.7,36.0
4126030,-0.03,-0.07,1.08,-3.36,6.41,-6.16,920.66,36.0
4126068,-0.02,-0.05,1.12,-3.3,5.49,-6.16,920.69,36.0
4126106,-0.01,-0.07,1.07,-3.54,6.1,-6.16,920.74,36.0
4126144,-0.0,-0.06,1.1,-3.42,5.13,-6.35,920.67,36.01
4126182,-0.0,-0.05,1.11,-2.93,4.52,-6.23,920.67,36.0
4126232,-0.02,-0.06,1.09,-2.75,3.11,-6.53,920.67,36.0
4126270,0.0,-0.06,1.08,-2.62,3.78,-6.41,920.65,35.99
4126308,0.0,-0.07,1.09,-2.69,2.75,-6.23,920.62,36.02
4126346,0.01,-0.07,1.05,-2.87,1.95,-6.41,920.58,36.01
4126384,-0.01,-0.05,1.1,-2.69,0.92,-6.53,920.59,36.01
4126422,0.0,-0.08,1.05,-2.75,2.01,-6.29,920.53,36.0
4126460,0.0,-0.06,1.05,-2.99,1.22,-6.71,920.64,36.01
4126498,0.02,-0.06,1.04,-2.2,1.95,-7.08,920.64,36.0
4126536,0.02,-0.07,0.99,-2.08,1.28,-7.32,920.64,36.02
4126574,0.03,-0.07,1.01,-1.95,1.53,-7.57,920.65,36.01
4126650,-0.0,-0.07,1.0,-2.08,0.06,-7.87,920.6,35.99
4126688,0.01,-0.06,1.01,-2.5,-0.37,-8.24,920.64,36.0
4126726,0.0,-0.07,1.05,-2.75,-1.16,-8.36,920.58,35.99
4126815,0.01,-0.06,1.15,-3.11,-1.28,-8.73,920.67,35.97
4126854,-0.01,-0.05,1.16,-3.11,-1.46,-8.73,920.67,35.98
4126892,-0.01,-0.05,1.21,-3.17,-1.1,-9.03,920.63,35.98
4126930,-0.02,-0.06,1.2,-2.99,-0.79,-9.16,920.67,35.99
4126968,-0.02,-0.06,1.21,-3.17,-0.55,-9.28,920.67,35.99
4127006,-0.02,-0.05,1.21,-3.3,-0.73,-9.34,920.67,35.99
4127056,-0.01,-0.05,1.22,-3.3,-0.67,-9.46,920.6,35.97
4127094,-0.01,-0.04,1.27,-3.23,-0.92,-9.28,920.67,35.98
4127132,-0.04,-0.05,1.25,-3.23,-0.73,-9.4,920.61,35.98
4127170,-0.02,-0.04,1.29,-3.17,-1.04,-9.34,920.64,35.99
4127208,-0.01,-0.04,1.36,-2.93,-1.22,-9.46,920.72,36.0
4127246,-0.02,-0.04,1.31,-2.87,-0.79,-9.46,920.66,35.98
4127284,-0.03,-0.03,1.35,-2.62,-0.92,-9.4,920.74,35.98
4127322,-0.02,-0.05,1.31,-2.44,-0.31,-9.46,920.76,36.0
4127360,-0.04,-0.04,1.29,-2.38,-1.16,-9.28,920.69,35.98
4127410,-0.04,-0.05,1.24,-2.26,-0.79,-9.09,920.65,35.98
4127448,-0.05,-0.04,1.23,-2.26,-1.46,-8.79,920.7,35.98
4127486,-0.04,-0.05,1.23,-2.2,-1.16,-8.73,920.65,35.99
4127524,-0.04,-0.05,1.21,-2.14,-2.01,-8.67,920.7,36.0
4127562,-0.06,-0.04,1.24,-2.32,-1.4,-8.36,920.71,36.0
4127600,-0.06,-0.05,1.19,-2.08,-1.22,-8.12,920.64,35.99
4127638,-0.05,-0.04,1.2,-2.32,-1.34,-8.24,920.67,35.99
4127676,-0.06,-0.05,1.19,-2.44,-0.73,-7.75,920.66,35.99
4127714,-0.07,-0.05,1.2,-2.32,-0.79,-7.81,920.72,36.0
4127764,-0.06,-0.04,1.21,-2.32,-0.12,-7.57,920.69,35.99
4127802,-0.05,-0.04,1.25,-1.89,1.04,-7.57,920.73,36.0
4127840,-0.05,-0.05,1.23,-2.14,2.32,-7.39,920.71,35.99
4127878,-0.06,-0.04,1.3,-1.95,2.44,-7.2,920.68,36.0
4127916,-0.07,-0.04,1.3,-1.77,3.05,-7.02,920.78,36.0
4127954,-0.04,-0.03,1.33,-1.53,4.21,-7.02,920.76,36.01
4127992,-0.07,-0.03,1.33,-1.34,5.62,-6.77,920.74,36.01
4128030,-0.05,-0.04,1.31,-1.16,6.65,-6.71,920.77,36.0
4128069,-0.05,-0.05,1.32,-0.98,7.81,-6.59,920.73,36.0
4128107,-0.05,-0.06,1.24,-0.98,8.24,-6.23,920.8,36.01
4128156,-0.05,-0.05,1.18,-0.98,8.54,-6.1,920.77,35.99
4128195,-0.05,-0.05,1.17,-1.1,8.18,-5.86,920.77,36.0
4128233,-0.03,-0.06,1.17,-1.1,7.63,-5.43,920.76,36.0
4128271,-0.06,-0.07,1.14,-1.22,7.02,-5.31,920.74,36.0
4128309,-0.06,-0.07,1.13,-1.22,6.41,-5.19,920.86,36.0
4128347,-0.05,-0.06,1.13,-1.46,5.25,-4.94,920.76,36.0
4128385,-0.01,-0.06,1.13,-1.46,5.43,-4.76,920.77,36.0
4128423,-0.03,-0.07,1.09,-1.71,4.03,-4.46,920.78,35.99
4128461,-0.05,-0.07,1.05,-1.77,3.66,-4.21,920.79,36.01
4128511,-0.06,-0.07,1.04,-1.95,2.75,-4.09,920.84,35.99
4128549,-0.03,-0.07,1.03,-2.38,2.08,-4.03,920.8,36.0
4128587,-0.06,-0.06,1.0,-2.69,2.32,-3.78,920.77,36.0
4128625,-0.04,-0.06,1.03,-2.75,1.95,-3.72,920.8,35.99
4128663,-0.03,-0.08,1.04,-2.93,2.5,-3.54,920.78,36.0
4128701,-0.06,-0.06,1.04,-2.99,2.5,-3.54,920.69,35.99
4128739,-0.07,-0.06,1.09,-2.99,2.69,-3.3,920.81,36.0
4128777,-0.05,-0.07,1.08,-3.17,3.3,-3.42,920.75,36.0
4128815,-0.06,-0.06,1.12,-3.48,3.05,-3.11,920.77,36.0
4128865,-0.05,-0.06,1.12,-3.23,3.66,-3.11,920.8,36.0
4128903,-0.05,-0.05,1.16,-3.3,3.78,-2.87,920.79,36.0
4128941,-0.04,-0.06,1.15,-2.93,4.21,-2.75,920.82,35.99
4128979,-0.06,-0.07,1.13,-2.62,3.54,-2.75,920.77,36.0
4129017,-0.04,-0.07,1.09,-2.44,4.52,-2.56,920.82,36.0
4129055,-0.01,-0.06,1.08,-2.08,4.21,-2.62,920.79,36.0
4129093,-0.03,-0.06,1.05,-1.77,4.58,-2.69,920.81,36.0
4129131,-0.05,-0.08,0.99,-1.95,4.64,-2.56,920.81,36.0
4129169,-0.02,-0.06,1.04,-1.83,3.72,-2.5,920.81,35.98
4129207,-0.04,-0.07,1.04,-1.53,3.85,-2.38,920.81,36.0
4129257,-0.03,-0.08,1.04,-1.77,4.52,-2.44,920.84,35.98
4129295,-0.03,-0.06,1.13,-1.65,4.33,-2.38,920.76,35.98
4129333,-0.03,-0.08,1.05,-1.46,6.47,-2.5,920.81,35.99
4129371,-0.02,-0.07,1.09,-1.71,6.59,-2.75,920.86,35.99
4129409,-0.02,-0.06,1.09,-1.65,7.93,-2.81,920.81,35.98
4129447,-0.0,-0.07,1.1,-1.65,7.87,-2.93,920.75,36.0
4129485,-0.03,-0.05,1.17,-1.46,8.18,-2.99,920.76,35.99
4129523,-0.01,-0.07,1.14,-1.4,8.42,-2.99,920.77,35.99
4129561,-0.02,-0.06,1.2,-1.4,8.18,-3.17,920.79,35.99
4129637,-0.0,-0.06,1.18,-1.04,8.36,-3.05,920.8,35.94
4129675,-0.01,-0.06,1.17,-0.85,8.3,-3.05,920.84,35.98
4129713,-0.01,-0.07,1.13,-1.22,7.93,-3.17,920.77,35.97
4129802,-0.01,-0.07,1.16,-1.59,6.53,-2.99,920.8,35.94
4129840,-0.0,-0.05,1.25,-1.77,5.74,-2.99,920.82,35.96
4129878,-0.0,-0.07,1.2,-1.65,6.04,-3.17,920.72,35.96
4129917,-0.03,-0.06,1.23,-1.89,4.46,-3.17,920.76,35.97
4129955,-0.01,-0.05,1.28,-1.83,5.25,-3.17,920.76,35.96
4129993,-0.01,-0.05,1.28,-1.83,4.52,-3.3,920.73,35.96
4130042,-0.01,-0.05,1.31,-2.14,5.13,-3.23,920.69,35.96
4130080,-0.01,-0.04,1.34,-2.2,4.27,-3.42,920.73,35.98
4130118,-0.01,-0.05,1.33,-2.14,5.31,-3.3,920.7,35.97
4130157,-0.0,-0.04,1.3,-2.01,4.52,-3.85,920.71,35.98
4130195,-0.02,-0.04,1.29,-1.83,5.07,-3.66,920.76,35.97
4130233,-0.01,-0.06,1.24,-1.71,5.13,-3.6,920.73,35.97
4130271,0.0,-0.05,1.27,-1.53,4.58,-3.78,920.72,35.97
4130309,-0.01,-0.05,1.24,-1.65,4.58,-3.97,920.74,35.98
4130347,-0.01,-0.05,1.23,-1.65,4.15,-3.78,920.74,35.98
4130385,-0.0,-0.05,1.21,-1.59,4.82,-3.91,920.8,35.98
4130435,0.01,-0.05,1.18,-1.59,4.15,-4.27,920.74,35.96
4130473,-0.0,-0.05,1.18,-1.4,4.27,-4.09,920.78,35.98
4130511,-0.01,-0.05,1.15,-1.22,3.66,-4.21,920.72,35.98
4130549,-0.01,-0.05,1.19,-1.34,2.87,-4.09,920.76,35.98
4130587,-0.03,-0.06,1.13,-1.4,3.54,-4.21,920.75,35.97
4130625,0.02,-0.06,1.16,-1.71,3.17,-4.46,920.75,35.97
4130663,-0.0,-0.05,1.17,-1.59,2.01,-4.46,920.67,35.98
4130701,0.0,-0.06,1.12,-1.77,1.59,-4.39,920.72,35.97
4130739,0.0,-0.06,1.16,-2.01,1.83,-4.27,920.7,35.98
4130789,-0.0,-0.06,1.12,-1.77,1.83,-4.64,920.73,35.97
4130827,-0.0,-0.05,1.12,-1.89,1.1,-4.88,920.68,35.98
4130865,-0.0,-0.05,1.12,-1.59,1.59,-4.88,920.72,35.99
4130903,0.0,-0.06,1.15,-1.46,1.1,-5.0,920.65,35.97
4130941,0.0,-0.05,1.18,-1.71,0.98,-4.88,920.72,35.98
4130979,-0.03,-0.05,1.16,-1.71,1.22,-5.07,920.71,35.98
4131017,-0.03,-0.04,1.24,-1.4,1.04,-5.19,920.65,35.98
4131055,-0.0,-0.04,1.25,-1.34,2.5,-5.31,920.75,35.97
4131093,-0.03,-0.04,1.26,-1.16,2.44,-5.43,920.71,35.97
4131143,-0.04,-0.05,1.23,-0.85,4.58,-5.55,920.69,35.97
4131181,-0.02,-0.04,1.23,-1.22,4.27,-5.68,920.66,35.98
4131219,-0.03,-0.03,1.29,-1.16,4.33,-5.31,920.64,35.98
4131257,-0.04,-0.04,1.24,-1.16,4.76,-5.19,920.68,35.98
4131295,-0.04,-0.04,1.28,-1.22,5.13,-5.13,920.68,35.97
4131333,-0.04,-0.04,1.26,-0.92,5.55,-5.19,920.7,35.98
4131372,-0.04,-0.03,1.26,-1.1,4.15,-4.88,920.7,35.99
4131410,-0.03,-0.03,1.27,-0.98,4.64,-4.64,920.66,35.99
4131448,-0.02,-0.04,1.25,-0.73,4.15,-4.58,920.61,35.98
4131486,-0.04,-0.04,1.23,-0.73,3.23,-4.33,920.72,36.0
4131536,-0.04,-0.04,1.19,-0.79,2.93,-4.15,920.61,35.98
4131574,-0.02,-0.05,1.17,-0.61,3.11,-4.03,920.67,35.99
4131612,-0.02,-0.05,1.14,-0.67,2.69,-4.09,920.69,35.98
4131650,-0.03,-0.05,1.09,-0.61,2.08,-3.97,920.62,35.98
4131688,-0.02,-0.05,1.11,-0.67,1.4,-3.91,920.69,35.99
4131726,-0.02,-0.05,1.09,-0.55,2.01,-3.91,920.64,35.98
4131764,-0.02,-0.06,1.08,-0.55,0.79,-3.85,920.64,35.99
4131802,-0.03,-0.06,1.09,-0.67,0.61,-3.97,920.62,35.99
4131840,-0.03,-0.06,1.05,-0.85,0.73,-3.85,920.61,35.99
4131890,-0.02,-0.05,1.08,-0.67,0.43,-3.78,920.57,35.98
4131928,-0.03,-0.05,1.07,-0.92,-0.12,-3.6,920.6,35.98
4131966,-0.02,-0.05,1.12,-0.98,0.18,-3.66,920.63,35.98
4132004,-0.02,-0.06,1.09,-0.85,1.28,-3.72,920.71,35.99
4132042,-0.01,-0.05,1.14,-0.73,0.92,-3.6,920.62,35.99
4132080,-0.01,-0.06,1.12,-0.55,1.1,-3.54,920.65,35.99
4132118,-0.01,-0.06,1.11,-0.49,0.85,-3.72,920.64,35.98
4132156,-0.01,-0.05,1.13,-0.06,1.46,-3.6,920.64,35.99
4132194,-0.01,-0.06,1.11,0.0,1.53,-3.54,920.6,35.98
4132244,-0.01,-0.06,1.08,-0.18,2.56,-3.85,920.64,35.98
4132282,-0.01,-0.07,1.06,-0.12,1.77,-3.85,920.66,36.0
4132320,0.0,-0.07,1.07,-0.06,2.5,-4.21,920.71,35.99
4132358,-0.0,-0.07,1.03,-0.24,3.17,-4.39,920.64,35.98
4132396,0.0,-0.07,1.03,0.18,3.11,-4.52,920.64,35.98
4132434,0.02,-0.07,0.97,0.0,4.03,-4.58,920.69,36.0
4132472,-0.01,-0.07,0.95,-0.06,3.48,-4.7,920.71,35.98
4132510,-0.0,-0.08,0.92,-0.12,3.6,-4.82,920.69,35.99
4132548,-0.01,-0.08,0.91,-0.18,3.6,-5.07,920.65,36.0
4132586,-0.0,-0.08,0.91,-0.06,4.76,-5.19,920.69,35.99
4132662,-0.01,-0.08,0.87,-0.49,5.68,-5.31,920.7,35.96
4132700,0.01,-0.08,0.82,-0.85,5.74,-5.49,920.7,35.97
4132738,-0.03,-0.07,0.88,-0.98,5.68,-5.43,920.75,35.98
4132902,-0.0,-0.08,0.92,-1.46,5.98,-5.49,920.75,35.91
4132940,-0.01,-0.07,0.98,-1.53,5.31,-5.62,920.68,35.93
4132978,-0.01,-0.07,0.97,-1.59,5.68,-5.62,920.65,35.94
4133016,-0.0,-0.07,0.99,-1.53,4.82,-5.62,920.72,35.95
4133054,0.01,-0.08,1.01,-1.59,5.07,-5.86,920.68,35.94
4133092,0.0,-0.08,1.03,-1.53,4.88,-5.92,920.67,35.95
4133142,-0.02,-0.08,1.04,-1.28,5.07,-6.04,920.72,35.95
4133180,-0.01,-0.07,1.04,-1.28,4.64,-5.98,920.67,35.96
4133218,-0.01,-0.07,1.06,-1.1,5.68,-6.04,920.72,35.97
4133256,-0.01,-0.07,1.06,-1.22,6.29,-6.29,920.67,35.97
4133294,0.0,-0.07,1.11,-0.92,6.96,-6.41,920.69,35.96
4133332,0.01,-0.08,1.17,-1.04,7.45,-6.47,920.66,35.97
4133370,-0.01,-0.06,1.18,-1.1,6.96,-6.53,920.63,35.96
4133408,-0.03,-0.05,1.32,-1.1,9.22,-6.41,920.62,35.97
4133446,-0.01,-0.07,1.23,-1.4,10.5,-6.65,920.65,35.97
4133496,-0.0,-0.03,1.38,-1.22,9.28,-6.71,920.68,35.96
4133534,-0.0,-0.06,1.33,-1.04,9.77,-6.65,920.58,35.98
4133572,0.02,-0.05,1.35,-1.1,8.67,-6.65,920.68,35.98
4133610,-0.01,-0.03,1.38,-1.1,8.48,-6.53,920.6,35.98
4133648,-0.01,-0.05,1.37,-0.79,7.51,-6.29,920.69,35.98
4133686,-0.03,-0.05,1.4,-0.79,5.68,-6.16,920.65,35.97
4133724,-0.01,-0.05,1.38,-0.55,5.43,-6.29,920.68,35.98
4133762,-0.0,-0.06,1.31,-0.24,5.37,-6.1,920.68,35.96
4133800,-0.02,-0.07,1.24,-0.18,4.94,-5.98,920.66,35.97
4133838,-0.01,-0.08,1.16,0.0,5.43,-5.92,920.71,35.98
4133888,-0.01,-0.07,1.07,0.12,5.98,-6.04,920.74,35.97
4133926,-0.01,-0.07,1.02,-0.06,5.92,-6.1,920.76,35.99
4133964,-0.01,-0.07,1.02,-0.37,5.62,-6.23,920.72,35.98
4134002,-0.01,-0.08,1.03,-0.85,5.37,-6.23,920.67,36.0
4134040,-0.0,-0.08,1.07,-1.22,5.31,-6.16,920.79,35.99
4134078,-0.01,-0.08,1.1,-1.46,5.62,-6.1,920.87,35.99
4134116,0.0,-0.07,1.13,-1.65,4.76,-6.23,920.91,36.0
4134154,-0.02,-0.06,1.17,-1.83,4.64,-6.04,920.89,35.98
4134192,-0.03,-0.07,1.13,-1.89,4.27,-6.1,920.88,35.99
4134242,-0.02,-0.07,1.15,-1.83,4.09,-6.16,920.89,35.98
4134280,-0.04,-0.06,1.17,-1.65,3.78,-5.8,920.93,35.98
4134318,-0.02,-0.06,1.14,-1.59,3.6,-6.1,920.91,35.98
4134356,-0.03,-0.06,1.17,-1.46,4.15,-6.04,920.85,35.99
4134394,-0.05,-0.05,1.24,-1.46,5.37,-6.1,920.78,36.0
4134432,-0.03,-0.06,1.28,-1.46,6.47,-6.23,920.85,36.0
4134470,-0.03,-0.06,1.3,-1.59,7.2,-6.16,920.78,35.98
4134508,-0.04,-0.06,1.31,-1.59,7.75,-6.29,920.78,36.0
4134546,-0.04,-0.05,1.29,-1.46,8.67,-5.74,920.88,36.0
4134596,-0.03,-0.05,1.26,-1.22,8.36,-5.74,920.77,36.0
4134634,-0.02,-0.05,1.21,-1.16,7.81,-5.8,920.79,36.0
4134672,-0.04,-0.05,1.21,-1.04,7.2,-5.74,920.8,35.99
4134710,-0.01,-0.08,1.19,-1.04,7.08,-5.55,920.71,35.98
4134748,-0.03,-0.06,1.19,-1.1,5.86,-5.31,920.73,35.99
4134786,-0.02,-0.07,1.17,-1.22,5.0,-5.43,920.8,36.0
4134824,-0.02,-0.06,1.16,-1.65,4.46,-5.13,920.7,35.99
4134862,-0.04,-0.06,1.19,-1.59,3.72,-4.94,920.7,36.01
4134900,-0.04,-0.07,1.27,-1.46,3.11,-4.88,920.74,36.0
4134938,-0.04,-0.06,1.31,-1.59,3.23,-5.0,920.69,35.99
4134988,-0.05,-0.04,1.35,-1.83,3.36,-4.94,920.74,35.98
4135026,-0.05,-0.05,1.43,-1.53,4.33,-4.88,920.69,35.98
4135064,-0.06,-0.07,1.34,-1.4,4.15,-4.76,920.69,35.99
4135102,-0.07,-0.05,1.32,-1.53,2.93,-4.46,920.7,35.99
4135141,-0.07,-0.06,1.2,-1.4,3.78,-4.21,920.73,36.0
4135179,-0.05,-0.06,1.16,-1.53,1.46,-3.91,920.68,36.01
4135217,-0.06,-0.07,1.19,-1.71,1.16,-3.66,920.67,35.99
4135255,-0.06,-0.08,1.1,-1.89,0.06,-3.66,920.66,35.99
4135293,-0.06,-0.06,1.18,-1.77,-0.61,-3.36,920.68,36.0
4135342,-0.06,-0.08,1.11,-1.83,0.37,-3.05,920.57,35.98
4135380,-0.04,-0.07,1.16,-1.89,-1.16,-2.99,920.57,35.98
4135419,-0.06,-0.07,1.08,-1.53,-0.67,-2.81,920.62,35.98
4135457,-0.05,-0.08,1.05,-1.77,-0.92,-2.62,920.67,35.99
4135495,-0.03,-0.07,1.09,-1.71,-1.16,-2.81,920.58,35.99
4135533,-0.05,-0.08,1.04,-1.59,-1.95,-2.44,920.62,35.99
4135571,-0.05,-0.09,1.06,-1.65,-1.34,-2.69,920.6,35.99
4135609,-0.03,-0.08,1.06,-1.59,-1.22,-2.62,920.55,35.99
4135647,-0.03,-0.08,1.01,-1.71,-1.46,-2.38,920.64,36.0
4135723,-0.06,-0.09,0.98,-1.77,-0.67,-2.44,920.6,35.96
4135761,-0.04,-0.08,0.98,-1.77,-0.12,-2.5,920.61,35.98
4135799,-0.03,-0.08,0.98,-2.14,0.0,-2.62,920.6,35.99
4135888,-0.03,-0.08,1.07,-2.5,1.77,-2.56,920.58,35.94
4135926,-0.04,-0.08,1.11,-2.08,1.95,-2.5,920.58,35.96
4135964,-0.03,-0.09,1.09,-1.89,1.34,-2.44,920.59,35.96
4136003,-0.03,-0.07,1.16,-1.65,0.67,-2.5,920.57,35.98
4136041,-0.03,-0.07,1.15,-1.16,0.61,-2.44,920.58,35.96
4136079,-0.01,-0.07,1.18,-1.16,-0.98,-2.44,920.57,35.97
4136128,-0.04,-0.07,1.17,-0.85,-1.59,-2.44,920.49,35.96
4136166,-0.04,-0.08,1.16,-0.85,-1.95,-2.38,920.5,35.98
4136205,-0.01,-0.07,1.22,-0.43,-2.81,-2.44,920.51,35.96
4136243,-0.02,-0.06,1.2,0.12,-4.03,-2.69,920.5,35.97
4136281,-0.02,-0.06,1.19,0.12,-4.03,-2.69,920.47,35.98
4136319,0.0,-0.07,1.19,0.85,-4.33,-2.93,920.52,36.0
4136357,-0.0,-0.1,1.16,0.98,-2.75,-2.75,920.5,35.98
4136395,-0.02,-0.07,1.11,1.28,-4.33,-3.11,920.4,35.98
4136433,0.0,-0.07,1.05,1.22,-1.83,-3.3,920.39,35.98
4136471,0.0,-0.09,1.01,1.34,-4.15,-3.42,920.41,35.97
4136521,0.01,-0.08,0.99,1.1,-5.98,-3.72,920.43,35.98
4136559,-0.02,-0.08,1.03,1.04,-7.63,-3.48,920.35,35.98
4136597,0.02,-0.09,1.06,0.79,-7.57,-3.91,920.3,35.98
4136635,0.01,-0.09,1.13,1.16,-7.02,-4.03,920.37,35.98
4136673,-0.01,-0.1,1.16,1.46,-6.23,-4.27,920.4,35.97
4136711,-0.03,-0.1,1.12,1.65,-6.35,-4.39,920.37,35.98
4136749,0.02,-0.06,1.29,1.83,-5.55,-4.94,920.39,35.97
4136787,0.0,-0.09,1.24,1.77,-4.27,-5.13,920.34,35.98
4136825,-0.01,-0.08,1.29,1.65,-4.88,-5.25,920.36,35.98
4136875,-0.02,-0.09,1.29,1.83,-3.97,-5.62,920.4,35.98
4136913,-0.01,-0.08,1.31,1.71,-4.58,-5.8,920.34,35.98
4136951,-0.02,-0.06,1.27,1.34,-4.15,-5.62,920.37,35.98
4136989,0.0,-0.07,1.26,1.16,-2.2,-5.8,920.37,35.99
4137027,-0.04,-0.08,1.25,1.04,-3.48,-6.04,920.39,35.99
4137065,-0.07,-0.09,1.2,0.92,-3.11,-6.04,920.34,35.99
4137103,-0.02,-0.07,1.24,1.46,-3.11,-6.04,920.37,35.99
4137141,-0.02,-0.07,1.17,1.77,-1.53,-6.16,920.34,35.99
4137179,-0.02,-0.07,1.07,1.95,-1.34,-6.1,920.3,35.98
4137229,-0.03,-0.1,1.18,2.14,-1.22,-6.16,920.29,35.98
4137267,-0.06,-0.11,1.13,1.77,-1.59,-6.23,920.34,35.97
4137305,-0.08,-0.09,1.11,1.71,-2.2,-5.98,920.31,35.98
4137343,-0.06,-0.09,1.14,1.71,-2.62,-5.92,920.22,35.98
4137381,-0.04,-0.07,1.14,1.46,-3.11,-5.74,920.33,35.99
4137419,-0.04,-0.08,1.11,1.1,-2.87,-5.31,920.22,35.97
4137457,-0.05,-0.09,1.1,1.53,-3.6,-5.0,920.25,35.98
4137495,-0.1,-0.1,1.11,1.22,-5.62,-4.82,920.22,35.95
4137533,-0.09,-0.09,1.12,1.22,-5.8,-4.64,920.29,35.98
4137571,-0.07,-0.08,1.12,1.4,-6.84,-4.52,920.21,35.97
4137621,-0.09,-0.1,1.09,0.92,-7.45,-3.97,920.23,35.97
4137659,-0.09,-0.1,1.04,1.22,-9.95,-3.66,920.24,35.96
4137697,-0.12,-0.07,1.07,0.55,-11.41,-3.05,920.16,35.97
4137735,-0.11,-0.09,1.06,0.67,-8.91,-2.99,920.23,35.98
4137773,-0.1,-0.1,1.04,0.49,-9.34,-2.75,920.24,35.98
4137811,-0.13,-0.08,1.07,0.37,-9.7,-2.5,920.23,35.98
4137849,-0.09,-0.1,1.01,0.79,-6.96,-2.14,920.22,35.98
4137887,-0.11,-0.08,1.04,0.98,-6.41,-2.14,920.2,35.98
4137925,-0.12,-0.08,1.03,1.28,-3.36,-1.83,920.18,35.97
4137975,-0.16,-0.09,1.02,1.34,-2.99,-1.28,920.24,35.97
4138013,-0.11,-0.08,1.02,1.34,-0.55,-1.04,920.27,35.97
4138051,-0.12,-0.08,1.04,1.53,1.34,-0.61,920.31,35.98
4138089,-0.12,-0.08,0.98,1.59,2.01,0.06,920.32,35.97
4138127,-0.08,-0.07,1.0,1.71,0.98,0.31,920.31,35.97
4138165,-0.09,-0.09,0.97,1.77,2.56,0.49,920.31,35.98
4138203,-0.07,-0.09,0.95,1.83,2.44,0.67,920.36,35.98
4138241,-0.07,-0.08,0.99,1.95,3.11,1.1,920.4,35.98
4138279,-0.07,-0.09,0.96,2.08,3.23,1.46,920.34,35.98
4138329,-0.07,-0.09,0.94,1.95,3.78,1.65,920.34,35.97
4138367,-0.07,-0.1,0.86,1.89,5.55,1.77,920.33,35.96
4138405,-0.07,-0.08,0.88,1.95,5.13,1.83,920.3,35.98
4138443,-0.05,-0.09,0.83,2.38,8.73,1.95,920.25,35.98
4138481,-0.02,-0.09,0.77,2.26,9.58,2.2,920.23,35.98
4138519,-0.03,-0.08,0.82,2.99,11.05,2.44,920.18,35.98
4138557,-0.06,-0.1,0.71,3.36,12.08,2.44,920.21,35.98
4138595,-0.04,-0.09,0.82,3.78,12.57,2.26,920.14,35.96
4138633,-0.02,-0.1,0.74,3.66,15.38,2.38,920.2,35.98
4138672,-0.03,-0.1,0.72,4.09,15.56,2.5,920.17,35.98
4138747,-0.03,-0.09,0.62,4.33,18.25,2.32,920.24,35.95
4138785,-0.05,-0.07,0.66,4.76,18.86,2.5,920.12,35.96
4138824,-0.04,-0.1,0.58,5.0,20.26,2.56,920.11,35.96
4138913,-0.04,-0.07,0.64,4.46,20.2,3.11,919.97,35.94
4138951,-0.01,-0.09,0.73,4.27,18.98,3.11,920.04,35.94
4138989,-0.03,-0.11,0.76,3.72,22.46,3.05,920.03,35.95
4139027,-0.01,-0.09,0.88,3.6,20.69,3.54,920.02,35.94
4139065,-0.03,-0.08,0.94,3.66,22.28,3.91,920.06,35.96
4139103,-0.03,-0.08,0.92,3.42,22.64,4.03,920.11,35.96
4139141,-0.06,-0.08,0.92,3.72,21.06,3.97,920.06,35.96
4139191,-0.02,-0.09,0.89,3.23,19.78,4.33,919.98,35.94
4139229,-0.01,-0.08,0.89,2.81,19.04,4.21,919.98,35.96
4139267,-0.01,-0.06,1.01,2.69,19.04,4.39,920.02,35.95
4139305,0.01,-0.1,0.93,1.65,18.92,4.82,919.97,35.94
4139344,-0.03,-0.06,1.03,0.67,14.83,5.43,920.06,35.96
4139382,-0.02,-0.08,0.97,0.61,15.32,5.49,920.06,35.95
4139420,0.0,-0.08,0.97,0.24,13.67,5.49,920.06,35.96
4139458,0.01,-0.09,0.89,-0.61,11.47,5.62,920.1,35.96
4139496,0.0,-0.05,1.01,-0.49,7.87,5.62,920.04,35.96
4139546,0.01,-0.09,0.93,-0.67,8.54,5.92,920.01,35.95
4139584,0.02,-0.09,0.99,-0.37,7.57,5.74,919.98,35.95
4139622,-0.01,-0.09,0.9,-0.06,8.73,5.8,920.01,35.96
4139660,0.01,-0.09,0.9,-0.24,8.12,5.49,919.99,35.96
4139698,0.06,-0.1,0.89,-0.61,8.97,5.37,920.05,35.97
4139736,0.05,-0.1,0.87,-0.85,9.09,5.25,919.93,35.95
4139774,0.06,-0.09,0.96,-0.92,9.46,5.07,919.95,35.96
4139812,0.02,-0.12,0.91,-0.73,10.93,4.52,919.99,35.96
4139850,0.01,-0.09,0.93,-0.79,11.6,4.39,919.99,35.97
4139888,0.03,-0.09,1.01,0.06,13.98,4.21,919.94,35.97
4139938,0.04,-0.09,0.88,0.55,15.87,3.48,919.88,35.95
4139976,0.03,-0.08,0.94,1.1,17.27,3.3,919.92,35.97
4140014,0.05,-0.11,0.83,1.04,19.53,2.93,919.84,35.96
4140052,0.06,-0.09,0.94,0.98,18.74,2.75,919.88,35.95
4140090,0.05,-0.11,0.89,0.24,20.51,2.56,919.84,35.96
4140128,0.06,-0.09,0.91,-0.49,19.59,2.2,919.82,35.96
4140166,0.06,-0.09,0.99,-1.28,18.92,2.01,919.84,35.96
4140205,0.07,-0.09,1.01,-2.08,17.82,2.08,919.79,35.98
4140243,0.06,-0.08,1.14,-2.5,17.03,1.71,919.86,35.96
4140292,0.04,-0.08,1.15,-3.05,16.24,1.46,919.83,35.95
4140331,0.05,-0.09,1.22,-2.93,15.93,1.16,919.89,35.96
4140369,0.06,-0.09,1.16,-3.36,15.75,0.73,919.82,35.96
4140407,0.07,-0.08,1.2,-3.54,15.44,0.37,919.85,35.97
4140445,0.07,-0.08,1.15,-3.54,16.36,0.12,919.81,35.96
4140483,0.07,-0.09,1.18,-3.54,14.59,-0.12,919.82,35.96
4140521,0.1,-0.09,1.23,-3.48,13.98,-0.49,919.82,35.96
4140559,0.08,-0.09,1.19,-3.3,14.1,-0.73,919.88,35.97
4140597,0.07,-0.09,1.21,-2.99,13.12,-1.28,919.83,35.96
4140635,0.11,-0.09,1.18,-2.81,12.33,-1.77,919.89,35.97
4140685,0.12,-0.07,1.19,-2.56,10.8,-2.38,919.87,35.95
4140723,0.11,-0.09,1.15,-2.81,11.29,-2.87,919.88,35.97
4140761,0.09,-0.08,1.17,-2.44,10.13,-3.36,919.89,35.96
4140799,0.07,-0.09,1.15,-2.2,7.75,-3.72,919.87,35.96
4140837,0.12,-0.1,1.16,-2.56,7.32,-4.39,919.87,35.97
4140876,0.08,-0.09,1.13,-2.87,6.84,-4.94,919.86,35.97
4140914,0.09,-0.09,1.12,-3.11,5.43,-5.37,919.94,35.98
4140952,0.09,-0.09,1.17,-3.3,5.07,-6.04,919.8,35.97
4140990,0.06,-0.09,1.13,-3.6,4.7,-6.65,919.88,35.98
4141039,0.04,-0.08,1.21,-3.78,5.31,-7.32,919.87,35.95
4141077,0.06,-0.09,1.19,-4.03,6.23,-7.87,919.88,35.97
4141116,0.07,-0.08,1.28,-3.66,5.49,-8.67,919.86,35.98
4141154,0.05,-0.09,1.22,-4.15,6.35,-8.73,919.9,35.97
4141192,0.04,-0.07,1.26,-3.97,5.98,-9.22,919.9,35.96
4141230,0.02,-0.08,1.24,-3.6,6.96,-9.4,919.97,35.98
4141268,0.05,-0.07,1.25,-3.91,5.68,-9.58,920.0,35.98
4141306,0.02,-0.08,1.27,-3.91,5.43,-9.7,919.98,35.98
4141344,0.04,-0.07,1.2,-4.15,4.64,-10.31,919.95,35.98
4141382,0.04,-0.06,1.31,-4.27,4.52,-10.31,919.9,35.98
4141432,0.05,-0.07,1.32,-4.39,5.13,-10.62,919.94,35.96
4141470,0.02,-0.05,1.41,-4.58,4.15,-10.99,919.97,35.98
4141508,0.01,-0.06,1.41,-4.52,5.92,-11.17,919.93,35.95
4141546,0.0,-0.05,1.5,-4.82,6.16,-11.29,919.91,35.98
4141584,0.03,-0.06,1.55,-4.58,6.1,-11.54,919.98,35.98
4141622,-0.02,-0.05,1.52,-5.0,5.25,-11.41,920.01,35.98
4141660,-0.02,-0.07,1.48,-4.94,6.77,-11.41,919.92,35.97
4141698,0.01,-0.06,1.38,-4.94,5.86,-11.6,920.0,35.98
4141736,0.0,-0.04,1.42,-4.88,5.92,-11.54,919.99,35.97
4141812,-0.0,-0.08,1.32,-5.19,6.29,-11.96,919.98,35.96
4141850,0.01,-0.05,1.37,-5.55,7.93,-12.02,919.94,35.97
4141888,0.01,-0.07,1.38,-6.1,6.41,-11.84,919.89,35.96
4141977,-0.03,-0.05,1.5,-6.59,6.96,-12.02,919.89,35.94
4142015,-0.02,-0.07,1.49,-6.96,7.63,-11.9,919.92,35.95
4142053,-0.01,-0.05,1.5,-7.45,6.84,-11.84,919.96,35.96
4142091,-0.02,-0.05,1.5,-7.32,7.45,-11.9,919.93,35.95
4142129,-0.04,-0.07,1.45,-7.39,7.32,-11.66,919.92,35.95
4142168,-0.01,-0.06,1.51,-7.57,6.23,-11.47,919.93,35.96
4142217,-0.05,-0.06,1.41,-7.2,7.51,-11.6,919.97,35.95
4142255,-0.04,-0.06,1.42,-7.32,7.57,-11.47,919.96,35.96
4142293,-0.02,-0.06,1.38,-7.51,7.69,-11.29,919.96,35.96
4142332,-0.02,-0.06,1.4,-7.32,7.57,-11.23,919.95,35.97
4142370,-0.03,-0.07,1.32,-7.32,7.81,-11.29,919.97,35.97
4142408,-0.04,-0.06,1.35,-7.08,8.0,-10.99,919.85,35.97
4142446,-0.01,-0.06,1.33,-6.9,7.69,-11.17,919.84,35.96
4142484,-0.02,-0.05,1.37,-7.14,7.75,-11.41,919.84,35.97
4142522,-0.03,-0.05,1.45,-7.45,8.91,-11.11,919.81,35.97
4142572,-0.02,-0.06,1.52,-7.69,9.22,-10.99,919.86,35.96
4142610,-0.04,-0.04,1.57,-7.32,8.91,-10.86,919.83,35.96
4142648,-0.03,-0.05,1.55,-7.45,9.52,-10.62,919.82,35.96
4142686,-0.01,-0.04,1.57,-7.2,10.5,-10.68,919.78,35.98
4142724,-0.02,-0.04,1.56,-6.9,10.44,-10.62,919.75,35.97
4142762,-0.02,-0.05,1.56,-6.65,10.13,-10.5,919.71,35.98
4142800,-0.04,-0.05,1.54,-6.84,9.89,-10.44,919.7,35.97
4142838,-0.02,-0.03,1.61,-6.71,10.56,-10.5,919.7,35.98
4142876,-0.02,-0.05,1.57,-6.65,11.41,-10.25,919.73,35.97
4142926,-0.07,-0.04,1.61,-6.47,9.28,-9.83,919.67,35.97
4142964,-0.03,-0.04,1.65,-6.41,11.05,-9.83,919.7,35.95
4143002,-0.03,-0.03,1.66,-6.59,11.66,-9.83,919.63,35.96
4143040,-0.03,-0.02,1.74,-6.29,12.02,-10.01,919.59,35.96
4143078,-0.02,-0.03,1.73,-6.29,12.82,-10.01,919.55,35.97
4143116,-0.02,-0.04,1.7,-6.41,13.85,-9.77,919.59,35.96
4143154,-0.03,-0.03,1.69,-5.98,13.24,-9.95,919.48,35.95
4143193,-0.04,-0.02,1.67,-5.92,12.51,-9.7,919.53,35.97
4143231,-0.04,-0.03,1.67,-5.86,12.33,-9.64,919.45,35.96
4143280,-0.04,-0.05,1.57,-6.1,12.21,-9.16,919.47,35.97
4143318,-0.04,-0.04,1.58,-6.1,12.15,-9.52,919.48,35.98
4143357,-0.04,-0.04,1.53,-5.98,11.47,-9.34,919.45,35.97
4143395,-0.03,-0.04,1.52,-6.1,9.83,-9.28,919.35,35.96
4143433,-0.03,-0.04,1.48,-6.29,8.54,-9.16,919.33,35.97
4143471,-0.02,-0.05,1.5,-6.65,8.67,-8.85,919.34,35.96
4143509,-0.01,-0.05,1.48,-7.14,7.51,-9.03,919.22,35.96
4143547,-0.03,-0.02,1.55,-6.9,6.23,-8.85,919.28,35.96
4143585,-0.04,-0.06,1.45,-7.08,6.1,-8.61,919.27,35.98
4143623,-0.03,-0.05,1.47,-7.45,5.0,-8.79,919.27,35.97
4143673,-0.04,-0.04,1.49,-7.69,4.82,-8.36,919.24,35.96
4143711,-0.03,-0.04,1.49,-7.69,3.3,-8.67,919.21,35.96
4143749,-0.04,-0.04,1.49,-7.63,4.09,-8.61,919.19,35.96
4143787,-0.05,-0.04,1.48,-7.39,3.78,-8.54,919.14,35.96
4143825,-0.04,-0.05,1.49,-7.32,4.33,-8.36,919.18,35.97
4143863,-0.05,-0.05,1.45,-7.14,4.58,-8.48,919.16,35.98
4143901,-0.06,-0.04,1.44,-7.2,4.64,-8.48,919.11,35.97
4143939,-0.04,-0.04,1.42,-7.14,4.82,-8.42,919.09,35.98
4143977,-0.05,-0.03,1.45,-7.26,4.33,-8.36,919.03,35.97
4144027,-0.05,-0.05,1.44,-7.14,4.94,-8.42,919.05,35.96
4144065,-0.05,-0.04,1.49,-6.96,5.0,-8.3,918.99,35.97
4144103,-0.04,-0.05,1.42,-7.02,4.7,-8.3,918.97,35.98
4144141,-0.06,-0.02,1.46,-7.51,3.54,-8.12,918.92,35.96
4144179,-0.06,-0.04,1.45,-7.63,4.33,-8.06,918.89,35.98
4144217,-0.06,-0.05,1.38,-8.0,4.21,-7.87,918.89,35.98
4144255,-0.06,-0.03,1.45,-7.87,3.72,-7.75,918.92,35.98
4144294,-0.05,-0.04,1.35,-7.75,3.97,-7.57,918.89,35.98
4144332,-0.04,-0.03,1.4,-7.87,3.85,-7.63,918.9,35.98
4144381,-0.05,-0.05,1.34,-7.87,4.46,-7.39,918.85,35.97
4144419,-0.05,-0.05,1.37,-7.81,3.97,-7.26,918.8,35.97
4144457,-0.04,-0.05,1.35,-7.81,3.72,-7.14,918.83,35.98
4144495,-0.05,-0.04,1.39,-7.69,2.75,-7.39,918.77,35.98
4144533,-0.04,-0.04,1.41,-7.57,3.05,-7.32,918.74,35.98
4144571,-0.03,-0.07,1.42,-7.45,3.42,-7.14,918.71,35.97
4144609,-0.03,-0.05,1.36,-7.57,2.69,-7.39,918.72,35.97
4144647,-0.06,-0.04,1.34,-7.14,2.32,-7.26,918.7,35.96
4144685,-0.02,-0.06,1.29,-7.14,3.54,-7.14,918.72,35.98
4144723,-0.03,-0.06,1.24,-7.02,3.72,-7.2,918.76,35.98
4144799,-0.08,-0.07,1.14,-6.47,1.83,-7.2,918.55,35.95
4144837,-0.04,-0.07,1.19,-6.71,2.56,-7.32,918.62,35.94
4144875,-0.05,-0.07,1.18,-7.02,3.36,-7.39,918.64,35.97
4144964,-0.06,-0.07,1.29,-7.39,1.77,-6.84,918.54,35.93
4145002,0.0,-0.07,1.36,-7.39,2.38,-6.96,918.53,35.95
4145040,-0.03,-0.09,1.24,-7.75,2.81,-6.96,918.53,35.94
4145078,-0.04,-0.05,1.32,-7.39,1.71,-6.84,918.51,35.96
4145117,-0.05,-0.07,1.33,-7.39,3.11,-7.02,918.56,35.98
4145155,-0.02,-0.07,1.33,-8.0,2.69,-6.77,918.5,35.98
4145204,-0.06,-0.04,1.41,-7.51,4.27,-6.41,918.42,35.95
4145242,-0.04,-0.09,1.34,-8.06,3.91,-7.14,918.36,35.96
4145281,0.01,-0.05,1.48,-8.48,3.48,-7.2,918.39,35.97
4145319,-0.02,-0.07,1.45,-8.18,3.78,-6.84,918.37,35.98
4145357,-0.03,-0.07,1.45,-8.42,2.75,-7.08,918.38,35.98
4145395,-0.03,-0.04,1.43,-8.42,2.99,-7.32,918.31,35.97
4145433,0.0,-0.06,1.46,-8.24,0.73,-7.39,918.32,35.97
4145471,-0.05,-0.06,1.4,-8.18,1.16,-7.45,918.34,35.98
4145509,-0.02,-0.07,1.33,-7.93,1.77,-7.32,918.29,35.98
4145559,-0.04,-0.07,1.27,-7.69,0.73,-7.08,918.26,35.96
4145597,-0.03,-0.06,1.23,-7.63,-1.16,-7.02,918.22,35.96
4145635,-0.06,-0.07,1.19,-7.2,-0.55,-7.14,918.18,35.94
4145673,-0.0,-0.1,1.12,-7.2,-1.04,-7.45,918.17,35.96
4145711,-0.01,-0.07,1.18,-7.14,-1.53,-7.2,918.18,35.97
4145749,-0.04,-0.09,1.04,-7.02,0.12,-7.45,918.21,35.96
4145787,-0.06,-0.06,1.09,-7.26,-0.37,-7.39,918.14,35.98
4145825,0.01,-0.07,1.14,-7.45,1.59,-7.39,918.13,35.96
4145863,-0.05,-0.07,1.17,-7.75,-0.37,-7.51,918.1,35.97
4145913,-0.03,-0.08,1.15,-8.24,1.77,-7.51,918.13,35.96
4145951,-0.03,-0.07,1.22,-8.36,0.49,-7.57,918.12,35.96
4145989,-0.03,-0.06,1.3,-7.75,1.83,-7.57,918.06,35.95
4146027,-0.05,-0.06,1.24,-7.51,3.42,-7.69,918.09,35.98
4146065,-0.06,-0.03,1.31,-7.45,5.37,-7.81,918.06,35.95
4146103,-0.04,-0.04,1.36,-6.96,6.41,-7.87,918.08,35.96
4146141,-0.05,-0.03,1.5,-6.53,6.47,-7.93,918.01,35.98
4146179,-0.05,-0.05,1.45,-6.1,8.67,-7.93,918.05,35.97
4146217,-0.04,-0.01,1.57,-6.1,8.36,-7.93,917.98,35.98
4146255,-0.04,-0.03,1.49,-5.07,8.97,-8.12,917.98,35.96
4146305,-0.08,-0.0,1.5,-4.76,9.16,-7.81,917.97,35.95
4146343,-0.05,-0.04,1.52,-3.78,11.9,-8.12,917.88,35.98
4146381,-0.04,-0.05,1.49,-3.54,12.57,-8.06,917.84,35.97
4146419,-0.11,-0.02,1.52,-2.93,12.94,-7.81,917.89,35.98
4146457,-0.05,-0.02,1.48,-2.81,13.67,-7.87,917.77,35.96
4146495,-0.06,0.01,1.58,-2.56,11.84,-7.75,917.81,35.97
4146533,-0.06,-0.02,1.48,-2.75,12.08,-6.9,917.73,35.98
4146571,-0.06,-0.02,1.52,-3.05,11.05,-6.9,917.74,35.97
4146609,-0.04,-0.01,1.53,-3.17,11.29,-6.53,917.66,35.96
4146659,-0.04,-0.01,1.55,-3.36,9.22,-5.86,917.73,35.96
4146697,-0.05,-0.02,1.46,-3.42,10.07,-5.74,917.59,35.95
4146735,-0.05,-0.03,1.4,-3.85,7.87,-5.62,917.63,35.96
4146773,-0.05,-0.03,1.38,-4.09,7.26,-5.55,917.57,35.98
4146811,-0.03,-0.04,1.34,-4.46,6.41,-5.43,917.54,35.95
4146849,-0.03,-0.04,1.3,-4.7,6.29,-5.37,917.55,35.97
4146887,-0.05,-0.04,1.27,-5.0,6.53,-5.25,917.46,35.96
4146925,-0.04,-0.04,1.29,-5.25,5.98,-5.0,917.49,35.97
4146963,-0.04,-0.03,1.34,-5.62,5.31,-5.07,917.45,35.97
4147013,-0.06,-0.04,1.35,-5.37,5.25,-4.94,917.49,35.95
4147051,-0.03,-0.03,1.37,-5.49,4.58,-4.76,917.43,35.97
4147089,-0.04,-0.02,1.43,-5.49,4.39,-4.7,917.4,35.97
4147127,-0.03,-0.04,1.37,-5.55,4.58,-4.52,917.37,35.96
4147165,-0.04,-0.01,1.41,-5.55,3.6,-4.52,917.34,35.96
4147203,-0.04,-0.01,1.37,-5.92,4.27,-4.46,917.29,35.95
4147241,-0.04,-0.01,1.41,-6.23,3.17,-4.64,917.34,35.97
4147279,-0.03,-0.01,1.45,-6.23,4.52,-4.52,917.24,35.97
4147317,-0.03,-0.01,1.47,-6.04,3.91,-4.7,917.21,35.96
4147367,-0.06,0.0,1.47,-5.37,5.86,-4.82,917.21,35.95
4147405,-0.04,-0.01,1.44,-5.0,7.02,-4.94,917.22,35.96
4147443,-0.03,0.01,1.47,-4.82,8.67,-5.19,917.16,35.95
4147481,-0.03,0.01,1.46,-4.52,8.79,-5.13,917.22,35.96
4147519,-0.03,-0.01,1.42,-4.46,9.95,-5.25,917.18,35.94
4147557,-0.02,-0.02,1.4,-3.97,10.25,-5.25,917.11,35.96
4147595,-0.03,-0.02,1.37,-3.72,9.7,-5.31,917.16,35.96
4147633,-0.0,-0.02,1.28,-3.66,9.83,-5.25,917.09,35.96
4147671,-0.02,-0.01,1.29,-3.66,8.36,-5.13,917.03,35.95
4147709,-0.01,-0.03,1.24,-3.91,8.12,-5.07,916.97,35.96
4147785,-0.01,-0.04,1.17,-4.58,6.71,-4.94,916.98,35.93
4147823,-0.0,-0.04,1.18,-4.88,5.43,-4.94,916.95,35.95
4147861,-0.02,-0.05,1.13,-5.07,5.19,-4.88,916.92,35.96
4147950,-0.02,-0.05,1.1,-5.31,2.81,-5.07,916.89,35.91
4147988,-0.0,-0.07,1.01,-5.92,3.3,-5.19,916.89,35.93
4148027,-0.01,-0.05,1.0,-6.04,1.28,-5.07,916.84,35.95
4148065,-0.02,-0.07,0.95,-5.86,1.71,-5.0,916.88,35.94
4148103,-0.01,-0.06,0.98,-6.16,0.49,-5.19,916.79,35.95
4148141,-0.01,-0.05,1.06,-6.29,1.34,-5.37,916.77,35.93
4148191,-0.01,-0.06,1.05,-6.35,0.79,-5.37,916.77,35.92
4148229,-0.01,-0.06,1.1,-6.41,0.98,-5.62,916.75,35.92
4148267,-0.01,-0.06,1.08,-6.59,0.43,-5.86,916.77,35.94
4148305,-0.01,-0.05,1.11,-6.84,0.18,-5.74,916.69,35.94
4148343,-0.03,-0.05,1.04,-6.59,1.16,-5.98,916.68,35.94
4148381,-0.01,-0.05,1.08,-6.77,1.34,-6.23,916.7,35.95
4148419,-0.01,-0.05,1.11,-6.77,2.5,-6.23,916.62,35.93
4148457,0.0,-0.07,1.14,-6.65,1.95,-6.29,916.61,35.94
4148495,-0.01,-0.05,1.19,-6.84,2.75,-6.47,916.61,35.95
4148545,-0.01,-0.04,1.19,-6.71,3.36,-6.59,916.59,35.94
4148583,-0.01,-0.03,1.21,-6.71,3.54,-6.96,916.58,35.94
4148621,-0.02,-0.04,1.19,-6.96,3.54,-7.14,916.57,35.95
4148659,-0.02,-0.03,1.24,-7.2,3.42,-6.77,916.55,35.95
4148697,0.02,-0.05,1.23,-7.26,3.23,-7.02,916.53,35.95
4148736,-0.02,-0.03,1.25,-7.14,1.89,-7.2,916.54,35.95
4148774,-0.02,-0.04,1.24,-6.71,2.2,-6.9,916.5,35.96
4148812,-0.01,-0.04,1.23,-6.65,1.95,-6.9,916.47,35.95
4148850,-0.02,-0.03,1.28,-6.41,1.53,-7.14,916.46,35.96
4148888,-0.02,-0.03,1.21,-6.41,1.59,-7.14,916.43,35.97
4148938,-0.03,-0.01,1.3,-6.41,1.46,-7.39,916.37,35.95
4148976,-0.01,-0.03,1.27,-6.41,1.59,-7.32,916.35,35.97
4149014,-0.02,-0.02,1.33,-6.84,1.83,-7.32,916.36,35.96
4149052,-0.04,-0.03,1.28,-6.77,2.99,-7.63,916.33,35.95
4149090,-0.02,-0.01,1.31,-6.53,3.3,-7.75,916.39,35.96
4149128,-0.02,-0.01,1.32,-6.53,3.17,-7.75,916.38,35.95
4149166,-0.04,-0.02,1.3,-6.47,3.17,-7.57,916.35,35.96
4149204,-0.03,-0.03,1.29,-6.23,3.91,-8.0,916.32,35.97
4149242,-0.02,-0.02,1.26,-6.41,4.88,-8.12,916.31,35.96
4149292,-0.02,-0.01,1.3,-5.92,4.33,-8.0,916.27,35.96
4149330,-0.02,-0.03,1.23,-5.98,5.07,-8.06,916.31,35.96
4149368,-0.03,-0.0,1.27,-5.86,4.27,-8.18,916.22,35.96
4149406,-0.03,-0.02,1.25,-5.49,5.37,-8.12,916.23,35.96
4149444,-0.02,-0.03,1.25,-5.31,4.21,-7.81,916.29,35.96
4149482,-0.03,-0.01,1.28,-5.13,4.03,-8.12,916.21,35.96
4149521,-0.03,-0.02,1.23,-4.94,4.76,-8.12,916.2,35.96
4149559,-0.03,-0.02,1.24,-4.88,3.91,-7.93,916.21,35.96
4149597,-0.03,-0.02,1.22,-4.88,4.46,-8.0,916.18,35.97
4149647,-0.02,-0.02,1.19,-4.94,3.78,-7.87,916.23,35.96
4149685,-0.02,-0.03,1.16,-5.13,3.91,-8.0,916.15,35.95
4149723,-0.02,-0.03,1.17,-4.94,3.48,-7.81,916.14,35.96
4149761,-0.02,-0.04,1.17,-4.94,3.78,-7.75,916.09,35.97
4149799,-0.03,-0.04,1.13,-4.76,3.23,-7.93,916.14,35.96
4149837,-0.04,-0.02,1.17,-4.76,2.32,-7.81,916.12,35.96
4149875,-0.03,-0.05,1.1,-5.13,4.03,-8.0,916.12,35.98
4149913,-0.02,-0.02,1.15,-5.13,3.42,-8.24,916.07,35.97
4149952,-0.02,-0.04,1.09,-5.19,4.64,-8.24,916.08,35.97
4149990,-0.02,-0.05,1.07,-5.62,4.39,-8.18,916.07,35.97
4150039,-0.03,-0.05,1.0,-5.98,4.94,-8.24,916.07,35.96
4150077,-0.01,-0.04,0.99,-6.47,3.17,-8.24,916.04,35.96
4150116,-0.05,-0.04,0.98,-6.35,3.36,-8.24,916.02,35.98
4150154,-0.03,-0.05,1.03,-6.53,3.17,-7.87,915.98,35.95
4150192,-0.01,-0.04,1.09,-6.96,1.77,-7.93,915.97,35.96
4150230,-0.05,-0.02,1.12,-7.02,1.83,-7.63,915.98,35.97
4150268,-0.04,-0.03,1.13,-6.96,2.44,-7.51,915.96,35.97
4150306,-0.02,-0.03,1.25,-6.84,1.83,-7.63,916.01,35.97
4150344,-0.02,-0.04,1.2,-6.77,2.38,-7.51,915.98,35.96
4150394,-0.03,-0.03,1.18,-6.41,1.77,-7.57,916.01,35.95
4150432,-0.02,-0.03,1.14,-6.53,2.38,-7.45,915.97,35.95
4150470,-0.01,-0.03,1.19,-6.53,0.98,-7.26,915.96,35.96
4150508,-0.01,-0.04,1.19,-6.47,0.55,-7.45,915.88,35.95
4150546,-0.02,-0.03,1.17,-6.59,0.49,-7.45,915.87,35.95
4150584,-0.0,-0.02,1.22,-6.65,-0.37,-7.32,915.95,35.98
4150623,-0.02,-0.03,1.22,-6.59,-0.73,-7.39,915.88,35.96
4150661,-0.03,-0.04,1.19,-6.65,-1.1,-7.45,915.91,35.98
4150699,-0.02,-0.03,1.23,-6.84,-1.28,-7.51,915.84,35.96
4150774,-0.01,-0.02,1.22,-6.65,-1.65,-7.45,915.85,35.94
4150812,-0.03,-0.02,1.22,-6.71,-1.04,-7.51,915.87,35.96
4150850,-0.01,-0.02,1.22,-6.29,-1.16,-7.57,915.85,35.96
4150940,-0.0,-0.02,1.25,-5.98,1.28,-8.18,915.84,35.93
4150978,-0.0,-0.01,1.28,-5.55,1.34,-8.18,915.89,35.96
4151016,-0.01,-0.03,1.23,-5.49,1.83,-8.12,915.89,35.96
4151054,-0.0,-0.02,1.27,-5.55,1.65,-8.67,915.83,35.97
4151092,-0.01,-0.02,1.26,-5.13,2.75,-8.42,915.82,35.95
4151131,-0.0,-0.02,1.23,-5.07,2.32,-8.61,915.81,35.95
4151169,-0.01,-0.02,1.24,-5.07,2.87,-8.67,915.86,35.96
4151218,-0.01,-0.02,1.22,-5.19,2.2,-8.79,915.83,35.95
4151256,0.0,-0.03,1.22,-5.07,2.38,-8.85,915.87,35.95
4151294,-0.0,-0.04,1.18,-5.25,2.69,-9.03,915.83,35.96
4151333,-0.01,-0.03,1.2,-5.13,2.08,-9.03,915.87,35.96
4151371,-0.02,-0.03,1.18,-4.7,3.11,-8.97,915.77,35.95
4151409,-0.02,-0.03,1.18,-5.0,2.81,-8.85,915.84,35.96
4151447,-0.02,-0.03,1.19,-4.88,2.5,-8.97,915.79,35.95
4151485,-0.01,-0.04,1.15,-5.19,2.38,-9.22,915.84,35.96
4151523,-0.01,-0.02,1.18,-5.62,2.75,-8.97,915.75,35.96
4151573,-0.01,-0.02,1.17,-5.13,2.99,-8.85,915.82,35.95
4151611,-0.02,-0.04,1.17,-5.31,1.89,-9.03,915.81,35.94
4151649,-0.03,-0.03,1.14,-5.25,2.69,-9.22,915.79,35.96
4151687,-0.03,-0.03,1.13,-5.68,3.97,-9.09,915.79,35.97
4151725,-0.0,-0.04,1.17,-5.43,4.09,-9.22,915.76,35.95
4151763,-0.03,-0.03,1.16,-5.37,4.09,-9.4,915.78,35.98
4151801,-0.03,-0.02,1.17,-5.37,4.58,-9.58,915.74,35.96
4151839,-0.02,-0.03,1.16,-5.37,6.59,-9.52,915.76,35.96
4151878,-0.02,-0.02,1.16,-5.25,6.77,-9.7,915.75,35.96
4151927,-0.04,-0.02,1.18,-4.88,7.57,-9.7,915.68,35.94
4151965,-0.02,-0.02,1.14,-4.76,8.36,-9.77,915.7,35.95
4152003,-0.02,-0.01,1.18,-4.82,9.03,-9.89,915.67,35.96
4152041,-0.03,-0.02,1.16,-4.52,9.34,-10.01,915.77,35.96
4152079,-0.03,-0.01,1.18,-4.39,8.61,-9.83,915.73,35.97
4152117,-0.02,-0.02,1.16,-4.39,9.16,-9.7,915.71,35.96
4152156,-0.03,-0.02,1.12,-4.09,8.85,-9.83,915.74,35.97
4152194,-0.04,-0.01,1.13,-3.97,8.61,-9.64,915.75,35.96
4152232,-0.03,-0.02,1.13,-3.72,7.69,-9.52,915.73,35.96
4152282,-0.03,-0.02,1.11,-3.72,7.26,-9.28,915.76,35.95
4152320,-0.03,-0.02,1.14,-3.85,6.53,-9.03,915.71,35.96
4152358,-0.03,-0.03,1.11,-3.91,6.47,-9.09,915.67,35.96
4152396,-0.04,-0.01,1.11,-4.15,5.25,-8.85,915.69,35.96
4152434,-0.03,-0.02,1.11,-4.03,5.43,-8.91,915.68,35.96
4152472,-0.03,-0.02,1.08,-4.15,4.52,-8.79,915.67,35.97
4152510,-0.04,-0.02,1.11,-4.46,3.48,-8.67,915.75,35.97
4152548,-0.03,-0.03,1.1,-4.58,4.27,-8.67,915.69,35.98
4152586,-0.04,-0.02,1.12,-4.76,4.03,-8.61,915.72,35.98
4152625,-0.05,-0.02,1.13,-4.33,3.78,-8.61,915.72,35.98
4152674,-0.03,-0.03,1.14,-4.76,4.21,-8.3,915.7,35.96
4152712,-0.03,-0.02,1.14,-4.94,4.09,-8.48,915.64,35.97
4152751,-0.05,-0.01,1.17,-5.0,3.91,-8.24,915.61,35.97
4152789,-0.03,-0.01,1.17,-5.31,3.72,-8.12,915.63,35.96
4152827,-0.04,-0.01,1.21,-5.49,2.75,-8.0,915.62,35.98
4152865,-0.04,-0.0,1.24,-5.74,2.62,-7.57,915.63,35.98
4152903,-0.03,-0.01,1.21,-5.98,1.71,-7.51,915.63,35.98
4152941,-0.03,-0.0,1.25,-5.74,1.46,-7.45,915.62,35.96
4152979,-0.04,-0.02,1.22,-5.62,1.53,-7.32,915.75,35.98
4153029,-0.03,-0.02,1.2,-5.49,1.1,-7.26,915.69,35.98
4153067,-0.03,-0.01,1.18,-5.49,1.16,-7.2,915.72,35.98
4153105,-0.04,-0.01,1.16,-5.31,1.22,-7.14,915.68,35.97
4153143,-0.03,-0.02,1.14,-5.74,1.1,-7.08,915.71,35.98
4153181,-0.03,-0.01,1.19,-5.74,1.4,-7.2,915.65,35.96
4153219,-0.03,-0.01,1.18,-5.8,1.22,-7.14,915.69,35.98
4153258,-0.02,-0.01,1.21,-5.86,1.1,-7.02,915.66,35.98
4153296,-0.04,-0.01,1.22,-5.86,1.71,-7.2,915.73,35.97
4153334,-0.05,-0.01,1.23,-5.74,1.04,-7.08,915.78,35.97
4153383,-0.03,-0.01,1.25,-5.68,1.77,-7.14,915.72,35.96
4153422,-0.03,-0.01,1.23,-5.68,1.77,-7.08,915.75,35.97
4153460,-0.04,-0.01,1.21,-5.62,2.32,-7.14,915.72,35.97
4153498,-0.04,-0.0,1.23,-5.43,2.56,-7.2,915.75,35.96
4153536,-0.03,-0.01,1.24,-5.55,2.75,-7.02,915.7,35.96
4153574,-0.03,-0.01,1.25,-5.55,2.87,-6.96,915.74,35.96
4153612,-0.03,-0.01,1.25,-5.62,3.23,-7.08,915.73,35.96
4153650,-0.04,-0.01,1.27,-5.37,3.66,-7.02,915.78,35.97
4153688,-0.02,-0.01,1.24,-5.25,4.15,-7.14,915.74,35.95
4153727,-0.02,-0.01,1.22,-5.37,3.85,-7.26,915.7,35.97
4153804,-0.05,-0.02,1.19,-5.37,3.3,-7.08,915.66,35.93
4153842,-0.02,-0.01,1.22,-5.43,3.3,-6.96,915.73,35.95
4153880,-0.02,-0.01,1.2,-5.62,3.23,-7.08,915.68,35.94
4153969,-0.03,-0.01,1.24,-5.8,1.83,-6.65,915.77,35.92
4154008,-0.03,-0.01,1.24,-5.92,2.2,-6.84,915.7,35.93
4154046,-0.02,-0.02,1.2,-5.62,2.08,-6.59,915.79,35.94
4154084,-0.04,-0.01,1.21,-5.55,2.08,-6.77,915.74,35.94
4154122,-0.03,-0.0,1.25,-5.55,2.38,-6.77,915.74,35.94
4154160,-0.01,-0.01,1.27,-5.49,3.6,-6.9,915.72,35.94
4154210,-0.0,0.01,1.32,-5.62,4.52,-7.14,915.71,35.94
4154248,-0.03,0.01,1.33,-5.8,5.62,-7.2,915.73,35.94
4154286,-0.03,0.03,1.37,-6.1,5.8,-7.08,915.75,35.94
4154324,-0.02,0.03,1.46,-5.62,4.88,-7.14,915.72,35.94
4154362,-0.03,0.01,1.42,-5.43,5.13,-7.26,915.72,35.95
4154400,-0.02,0.03,1.42,-5.31,5.8,-7.26,915.82,35.96
4154438,-0.01,0.02,1.42,-5.07,6.9,-7.32,915.77,35.95
4154477,-0.02,0.02,1.36,-5.13,6.47,-7.32,915.76,35.94
4154515,-0.04,0.03,1.41,-4.52,5.98,-7.26,915.76,35.94
4154564,-0.02,0.01,1.33,-4.52,6.96,-7.26,915.77,35.94
4154603,-0.01,0.01,1.36,-4.76,6.23,-7.45,915.68,35.95
4154641,-0.02,0.01,1.31,-4.64,6.16,-7.26,915.71,35.94
4154679,-0.03,0.0,1.31,-4.64,5.98,-7.08,915.74,35.93
4154717,-0.02,0.0,1.33,-4.64,5.19,-7.02,915.67,35.94
4154755,-0.03,0.01,1.31,-4.33,5.13,-7.02,915.76,35.94
4154793,-0.04,0.01,1.3,-4.21,5.31,-7.08,915.75,35.95
4154831,-0.02,0.01,1.3,-4.27,5.37,-7.2,915.74,35.97
4154869,-0.03,0.0,1.32,-4.27,5.19,-7.08,915.74,35.96
4154907,-0.02,-0.01,1.3,-3.97,5.13,-6.9,915.76,35.95
4154957,-0.03,-0.0,1.28,-3.66,5.98,-7.02,915.74,35.94
4154995,-0.03,-0.02,1.2,-3.66,5.86,-7.2,915.75,35.95
4155033,-0.01,-0.01,1.18,-4.21,5.31,-7.2,915.78,35.96
4155071,-0.02,-0.02,1.14,-4.27,5.8,-7.14,915.79,35.95
4155110,-0.02,-0.02,1.14,-4.58,5.92,-7.08,915.78,35.94
4155148,-0.01,-0.02,1.16,-4.39,6.16,-7.26,915.76,35.96
4155186,-0.01,-0.01,1.17,-4.52,5.43,-7.26,915.74,35.95
4155224,-0.02,-0.01,1.19,-4.76,5.31,-7.39,915.79,35.96
4155262,-0.02,-0.03,1.17,-4.94,6.16,-7.69,915.77,35.96
4155312,-0.0,-0.02,1.19,-5.13,5.74,-7.81,915.84,35.94
4155350,-0.02,-0.01,1.15,-5.19,5.25,-7.69,915.8,35.97
4155388,-0.02,-0.01,1.16,-5.19,5.74,-7.93,915.75,35.96
4155426,-0.02,-0.03,1.14,-5.31,6.23,-7.87,915.73,35.95
4155464,-0.02,-0.02,1.17,-5.43,4.7,-7.93,915.73,35.96
4155502,-0.04,-0.02,1.14,-5.55,4.52,-8.0,915.79,35.97
4155540,-0.02,-0.01,1.17,-5.49,4.94,-8.06,915.72,35.97
4155579,-0.01,-0.02,1.17,-5.49,5.43,-8.0,915.78,35.96
4155617,-0.03,-0.03,1.14,-5.62,3.72,-7.81,915.75,35.97
4155655,-0.04,-0.03,1.15,-5.31,3.3,-7.93,915.76,35.97
4155705,-0.03,-0.03,1.14,-5.25,3.85,-8.0,915.77,35.96
4155743,-0.01,-0.01,1.19,-5.13,3.42,-7.87,915.72,35.96
4155781,-0.04,-0.03,1.16,-4.88,2.2,-7.63,915.74,35.98
4155819,-0.06,-0.03,1.13,-5.13,3.42,-7.69,915.79,35.96
4155857,-0.01,-0.01,1.2,-5.43,3.48,-7.57,915.77,35.98
4155895,-0.0,-0.0,1.23,-5.25,2.99,-7.51,915.78,35.97
4155933,-0.04,0.0,1.2,-5.55,1.71,-7.32,915.74,35.98
4155971,-0.04,0.0,1.26,-5.62,3.17,-7.32,915.72,35.98
4156009,-0.01,-0.0,1.3,-5.86,1.71,-7.32,915.71,35.96
4156059,-0.02,0.01,1.35,-5.98,0.31,-6.9,915.75,35.96
4156097,-0.03,0.01,1.31,-5.92,0.24,-6.84,915.78,35.96
4156135,-0.01,0.03,1.37,-5.62,0.12,-7.14,915.71,35.96
4156174,-0.01,0.02,1.34,-5.55,-0.92,-6.96,915.68,35.98
4156212,-0.03,0.03,1.35,-5.43,-1.22,-6.84,915.68,35.95
4156250,-0.02,0.01,1.32,-5.55,-0.18,-7.14,915.68,35.96
4156288,-0.01,0.02,1.38,-5.25,0.31,-7.39,915.7,35.96
4156326,-0.01,0.02,1.37,-5.07,0.85,-7.39,915.69,35.96
4156364,-0.02,0.02,1.36,-5.0,0.85,-7.51,915.78,35.96
4156414,-0.01,0.03,1.38,-4.58,1.83,-7.69,915.65,35.95
4156452,-0.02,0.02,1.34,-4.27,1.83,-7.75,915.76,35.96
4156490,-0.01,0.03,1.36,-4.15,2.32,-7.87,915.76,35.95
4156528,-0.02,0.02,1.31,-3.66,2.56,-7.93,915.79,35.95
4156566,-0.02,0.02,1.33,-3.6,2.26,-8.0,915.84,35.96
4156604,-0.02,0.01,1.31,-3.05,3.48,-8.18,915.83,35.94
4156643,-0.02,0.0,1.29,-3.17,2.81,-8.3,915.77,35.94
4156681,-0.03,0.01,1.3,-3.05,2.93,-8.36,915.79,35.95
4156719,-0.03,-0.0,1.25,-3.11,2.81,-8.18,915.77,35.94
4156757,-0.02,0.02,1.28,-3.3,2.08,-7.87,915.82,35.96
4156833,-0.03,0.0,1.29,-3.48,0.73,-8.0,915.74,35.92
4156871,-0.04,-0.0,1.32,-3.23,1.16,-7.87,915.79,35.93
4156909,-0.02,0.01,1.33,-3.11,0.98,-8.0,915.79,35.93
4156999,-0.03,0.02,1.33,-3.11,1.71,-7.57,915.81,35.91
4157037,-0.03,0.01,1.35,-3.23,2.5,-7.75,915.83,35.9
4157075,-0.01,0.02,1.33,-3.23,3.42,-7.87,915.82,35.93
4157113,-0.02,0.02,1.35,-3.17,3.17,-7.75,915.8,35.93
4157151,-0.04,0.0,1.31,-3.05,4.03,-7.63,915.82,35.93
4157189,-0.02,0.0,1.32,-3.11,3.91,-7.51,915.88,35.93
4157239,-0.02,-0.0,1.29,-3.11,4.46,-7.57,915.86,35.92
4157277,-0.02,-0.01,1.26,-3.11,4.52,-7.39,915.85,35.93
4157315,-0.03,-0.01,1.25,-2.99,4.94,-7.39,915.84,35.95
4157353,-0.02,-0.01,1.22,-3.05,5.13,-7.39,915.83,35.94
4157391,-0.02,-0.01,1.24,-3.3,5.13,-7.32,915.84,35.94
4157429,-0.02,-0.02,1.25,-3.17,5.55,-7.26,915.85,35.94
4157467,-0.02,-0.03,1.22,-3.3,5.92,-7.32,915.87,35.94
4157506,-0.01,-0.03,1.24,-3.36,6.1,-7.75,915.82,35.96
4157544,-0.02,-0.04,1.21,-3.17,6.71,-7.57,915.83,35.96
4157582,-0.01,-0.03,1.18,-3.36,6.96,-7.45,915.87,35.96
4157632,-0.03,-0.03,1.15,-3.54,7.32,-7.39,915.75,35.94
4157670,-0.01,-0.03,1.18,-3.91,6.96,-7.81,915.76,35.92
4157708,-0.04,-0.02,1.2,-4.03,7.69,-7.69,915.75,35.93
4157746,-0.01,-0.04,1.18,-3.85,7.51,-7.63,915.88,35.95
4157784,-0.0,-0.02,1.22,-4.21,8.3,-7.75,915.84,35.96
4157822,-0.01,-0.03,1.21,-4.03,8.36,-7.69,915.83,35.95
4157860,-0.03,-0.03,1.19,-3.97,8.12,-7.45,915.81,35.95
4157898,-0.01,-0.04,1.19,-4.21,7.81,-7.63,915.83,35.96
4157936,-0.02,-0.03,1.17,-4.21,7.39,-7.63,915.76,35.96
4157986,-0.02,-0.04,1.15,-4.64,6.77,-7.32,915.8,35.96
4158024,-0.0,-0.03,1.16,-4.76,5.98,-7.39,915.74,35.95
4158062,-0.0,-0.03,1.17,-5.13,4.94,-7.32,915.74,35.96
4158100,-0.02,-0.03,1.16,-5.37,4.15,-7.08,915.76,35.96
4158138,-0.01,-0.03,1.16,-5.68,4.52,-6.96,915.82,35.97
4158176,-0.0,-0.02,1.21,-5.86,3.17,-6.77,915.69,35.96
4158215,-0.01,-0.04,1.18,-6.1,2.38,-6.71,915.74,35.96
4158253,0.0,-0.02,1.27,-6.29,1.1,-6.65,915.65,35.95
4158291,-0.0,-0.04,1.25,-6.29,1.83,-6.71,915.69,35.95
4158341,0.0,-0.02,1.27,-6.53,0.12,-6.47,915.67,35.96
4158379,0.0,-0.03,1.27,-6.41,0.79,-6.59,915.66,35.96
4158417,0.01,-0.03,1.27,-6.41,-0.43,-6.84,915.67,35.96
4158455,-0.0,-0.02,1.34,-6.23,-0.43,-6.84,915.72,35.96
4158493,0.01,-0.04,1.27,-6.1,-0.18,-7.08,915.73,35.96
4158531,0.01,-0.03,1.35,-5.98,0.12,-7.2,915.71,35.96
4158569,0.0,-0.03,1.32,-5.43,1.1,-7.51,915.76,35.94
4158607,0.01,-0.02,1.31,-5.49,0.12,-7.39,915.74,35.97
4158645,0.01,-0.01,1.34,-5.43,0.18,-7.81,915.71,35.96
4158683,0.01,-0.02,1.36,-5.37,0.0,-8.0,915.62,35.96
4158733,0.0,-0.01,1.38,-5.25,0.43,-8.24,915.67,35.95
4158771,0.0,0.0,1.4,-5.25,0.73,-8.36,915.66,35.96
4158809,-0.0,0.0,1.4,-5.13,1.46,-8.67,915.66,35.96
4158847,-0.0,0.0,1.41,-5.13,2.14,-8.91,915.68,35.95
4158885,-0.03,0.0,1.41,-4.88,2.69,-9.03,915.68,35.95
4158923,-0.02,0.0,1.39,-4.64,3.42,-9.28,915.71,35.94
4158961,-0.02,0.02,1.4,-4.27,4.82,-9.34,915.69,35.96
4158999,-0.01,0.01,1.41,-3.72,6.41,-9.4,915.73,35.95
4159037,-0.02,-0.01,1.38,-3.42,6.65,-9.46,915.7,35.94
4159087,-0.03,-0.0,1.36,-3.54,7.51,-9.64,915.7,35.93
4159125,-0.02,-0.0,1.33,-3.11,8.06,-9.28,915.68,35.94
4159163,-0.02,-0.01,1.31,-3.17,7.81,-9.4,915.66,35.93
4159201,-0.03,-0.01,1.28,-3.23,7.87,-9.4,915.67,35.95
4159239,-0.01,-0.02,1.26,-3.3,8.24,-9.34,915.71,35.96
4159277,-0.01,-0.02,1.25,-3.3,8.06,-9.22,915.73,35.96
4159316,-0.02,-0.01,1.24,-3.48,7.45,-9.09,915.65,35.94
4159354,-0.02,-0.02,1.25,-3.66,7.26,-9.03,915.66,35.95
4159392,-0.01,-0.02,1.26,-3.97,6.41,-8.91,915.65,35.95
4159442,-0.01,-0.02,1.29,-4.21,5.49,-8.42,915.57,35.94
4159480,-0.01,-0.01,1.27,-4.39,4.7,-8.42,915.56,35.93
4159518,-0.01,0.01,1.34,-4.64,3.72,-8.12,915.56,35.95
4159556,-0.01,0.0,1.37,-4.7,3.48,-7.93,915.52,35.95
4159594,-0.03,-0.0,1.39,-4.7,3.17,-7.81,915.56,35.94
4159632,-0.02,0.01,1.43,-4.82,3.54,-7.75,915.54,35.95
4159670,-0.01,0.01,1.46,-4.64,4.39,-7.81,915.54,35.95
4159708,-0.02,0.01,1.46,-4.33,3.97,-7.87,915.51,35.94
4159746,-0.02,-0.0,1.41,-4.15,4.7,-7.75,915.54,35.94
4159784,-0.02,-0.0,1.39,-4.21,4.33,-7.63,915.57,35.94
4159860,-0.01,0.01,1.35,-3.91,5.92,-7.45,915.5,35.94
4159898,-0.02,0.0,1.36,-4.03,4.82,-7.32,915.49,35.93
4159936,-0.02,-0.01,1.35,-3.97,5.31,-7.39,915.51,35.94
4160026,-0.02,-0.0,1.34,-4.15,5.86,-6.84,915.44,35.9
4160064,-0.02,0.0,1.32,-4.09,5.31,-7.08,915.5,35.91
4160102,-0.02,-0.01,1.31,-4.09,6.47,-7.02,915.42,35.91
4160140,-0.01,-0.02,1.28,-3.97,6.84,-6.96,915.46,35.92
4160178,-0.02,-0.0,1.29,-4.27,7.26,-6.96,915.41,35.92
4160216,-0.02,-0.0,1.28,-4.09,7.81,-6.9,915.41,35.93
4160266,-0.02,-0.01,1.28,-4.03,8.06,-6.77,915.42,35.92
4160304,-0.01,-0.02,1.29,-4.21,8.97,-6.84,915.4,35.93
4160342,-0.01,-0.01,1.27,-4.21,8.67,-6.71,915.39,35.93
4160380,-0.02,-0.01,1.24,-4.33,8.97,-6.84,915.34,35.94
4160418,-0.02,-0.02,1.21,-4.21,8.91,-6.71,915.3,35.93
4160456,-0.01,-0.02,1.23,-4.7,8.67,-6.65,915.36,35.94
4160494,-0.01,-0.02,1.23,-4.52,8.24,-6.59,915.33,35.95
4160532,-0.02,-0.02,1.2,-4.76,7.39,-6.41,915.27,35.94
4160570,-0.01,-0.01,1.25,-4.76,6.96,-6.59,915.29,35.94
4160620,-0.02,-0.02,1.21,-4.82,6.1,-6.47,915.26,35.93
4160658,-0.01,-0.02,1.25,-5.13,5.62,-6.23,915.25,35.94
4160696,-0.02,-0.03,1.2,-5.13,5.62,-6.35,915.17,35.93
4160734,-0.02,-0.03,1.22,-5.13,4.88,-6.16,915.2,35.94
4160772,-0.01,-0.01,1.2,-5.19,5.0,-6.23,915.23,35.94
4160810,-0.01,-0.01,1.21,-5.31,4.39,-6.35,915.18,35.95
4160849,-0.01,-0.02,1.22,-5.19,4.15,-5.98,915.22,35.96
4160887,-0.02,-0.03,1.23,-5.25,3.66,-5.98,915.22,35.94
4160925,-0.01,-0.03,1.25,-5.19,4.21,-5.98,915.21,35.94
4160963,0.0,-0.02,1.24,-5.19,3.78,-6.41,915.18,35.95
4161013,-0.02,-0.02,1.24,-5.0,4.39,-6.16,915.13,35.93
4161051,-0.01,-0.03,1.18,-4.94,4.39,-6.35,915.15,35.95
4161089,-0.01,-0.02,1.17,-4.94,4.64,-6.59,915.17,35.96
4161127,-0.02,-0.03,1.12,-4.94,5.13,-6.41,915.18,35.95
4161165,-0.02,-0.03,1.12,-5.0,5.19,-6.53,915.13,35.95
4161203,-0.0,-0.03,1.14,-4.82,5.43,-6.77,915.12,35.95
4161241,-0.01,-0.05,1.08,-5.07,6.04,-6.84,915.04,35.94
4161279,-0.0,-0.03,1.11,-5.31,5.98,-6.84,915.09,35.95
4161317,-0.01,-0.03,1.12,-5.43,6.16,-7.02,915.01,35.95
4161367,-0.0,-0.03,1.14,-5.62,5.49,-6.77,915.02,35.94
4161405,-0.01,-0.03,1.17,-5.49,5.49,-7.14,914.97,35.95
4161443,-0.01,-0.02,1.2,-5.62,5.25,-7.2,914.98,35.95
4161481,-0.01,-0.03,1.22,-5.62,4.58,-7.14,915.06,35.95
4161520,-0.01,-0.02,1.22,-5.68,4.09,-7.08,914.94,35.96
4161558,-0.01,-0.03,1.2,-5.68,5.13,-7.02,914.99,35.96
4161596,-0.03,-0.02,1.2,-5.49,5.25,-7.2,914.95,35.95
4161634,-0.02,-0.01,1.24,-5.19,5.92,-7.45,914.95,35.95
4161672,0.0,-0.02,1.21,-5.37,6.77,-7.39,914.92,35.96
4161722,-0.03,-0.0,1.33,-5.68,5.55,-7.63,914.89,35.94
4161760,-0.01,-0.02,1.32,-5.98,7.26,-7.69,914.87,35.96
4161798,0.01,0.02,1.46,-5.98,7.26,-8.06,914.86,35.96
4161836,-0.05,0.04,1.54,-5.13,8.06,-7.81,914.79,35.96
4161874,-0.03,-0.0,1.5,-5.31,7.39,-7.75,914.89,35.98
4161912,-0.03,0.01,1.57,-5.37,7.93,-7.63,914.87,35.95
4161950,-0.02,0.02,1.48,-5.07,8.0,-7.2,914.86,35.96
4161988,-0.03,0.01,1.43,-4.94,5.8,-7.02,914.91,35.96
4162027,-0.04,0.0,1.32,-4.76,6.47,-6.96,914.84,35.96
4162065,-0.02,0.0,1.34,-4.21,4.94,-6.41,914.86,35.96
4162114,-0.04,-0.02,1.25,-4.21,3.66,-6.16,914.74,35.94
4162152,-0.07,-0.02,1.25,-4.52,3.11,-5.92,914.74,35.94
4162191,-0.03,-0.01,1.22,-5.13,3.97,-5.86,914.75,35.94
4162229,-0.02,-0.02,1.23,-5.31,3.3,-5.74,914.77,35.96
4162267,-0.04,-0.03,1.2,-5.49,3.23,-5.62,914.73,35.96
4162305,-0.05,-0.03,1.17,-5.68,3.48,-5.49,914.69,35.95
4162343,-0.05,-0.02,1.22,-5.62,4.21,-5.49,914.73,35.96
4162381,-0.03,-0.02,1.22,-5.8,5.98,-5.68,914.76,35.97
4162419,-0.02,-0.01,1.23,-5.98,6.1,-5.49,914.72,35.95
4162469,-0.03,-0.02,1.28,-5.98,6.35,-5.37,914.73,35.94
4162507,-0.03,-0.02,1.3,-6.1,6.29,-5.49,914.66,35.94
4162545,-0.03,0.0,1.31,-6.1,7.2,-5.25,914.67,35.96
4162583,-0.01,-0.0,1.35,-6.04,6.41,-5.13,914.69,35.97
4162621,-0.02,0.0,1.39,-6.23,5.43,-4.88,914.58,35.96
4162659,-0.05,0.01,1.36,-6.29,4.88,-4.7,914.49,35.96
4162697,-0.03,0.0,1.39,-6.53,4.82,-4.46,914.53,35.96
4162735,-0.02,0.01,1.39,-6.59,4.09,-4.33,914.52,35.95
4162773,-0.02,0.02,1.43,-6.16,3.11,-4.39,914.5,35.95
4162811,-0.03,0.01,1.39,-5.8,3.48,-4.03,914.56,35.94
4162887,-0.02,0.0,1.4,-4.7,4.46,-4.27,914.57,35.93
4162925,-0.03,-0.01,1.36,-4.46,4.46,-4.15,914.53,35.91
4162963,-0.03,-0.0,1.33,-4.52,5.43,-4.33,914.52,35.93
4163053,-0.04,-0.02,1.25,-4.7,3.91,-4.03,914.45,35.9
4163091,-0.02,-0.02,1.22,-5.07,3.85,-4.03,914.41,35.92
4163129,-0.01,-0.01,1.22,-5.37,4.46,-3.91,914.43,35.93
4163167,-0.01,-0.02,1.2,-5.49,3.66,-3.85,914.43,35.92
4163205,-0.02,-0.01,1.24,-5.68,2.14,-3.85,914.41,35.92
4163243,-0.04,-0.02,1.27,-5.37,3.3,-3.85,914.38,35.91
4163293,0.01,-0.01,1.32,-5.49,2.87,-3.78,914.33,35.9
4163331,0.01,0.0,1.34,-5.62,2.69,-4.03,914.32,35.93
4163369,-0.04,-0.0,1.27,-5.55,2.14,-3.78,914.35,35.93
4163407,-0.02,0.0,1.31,-5.68,2.87,-3.78,914.28,35.94
4163445,0.0,-0.0,1.3,-5.62,2.44,-3.85,914.28,35.93
4163483,-0.02,0.02,1.31,-6.23,0.73,-3.66,914.24,35.93
4163521,-0.02,0.02,1.3,-6.29,0.79,-3.6,914.27,35.94
4163559,0.0,0.01,1.32,-6.1,1.22,-4.03,914.26,35.94
4163597,0.0,-0.0,1.34,-5.92,0.92,-3.72,914.27,35.94
4163647,-0.0,0.0,1.3,-5.62,0.55,-3.72,914.19,35.92
4163685,-0.0,0.01,1.3,-5.25,0.92,-3.97,914.18,35.93
4163723,-0.0,-0.0,1.24,-5.07,0.67,-3.85,914.23,35.95
4163761,0.0,0.01,1.25,-4.82,-0.06,-3.97,914.19,35.93
4163799,0.0,0.01,1.26,-4.82,0.24,-4.09,914.12,35.93
4163837,0.01,0.01,1.28,-4.64,0.18,-4.03,914.12,35.94
4163875,-0.0,0.01,1.27,-4.52,0.24,-3.97,914.13,35.94
4163913,0.01,0.01,1.25,-4.33,0.49,-4.27,914.14,35.92
4163951,0.01,0.01,1.27,-3.97,0.61,-4.46,914.12,35.94
4163989,0.0,-0.0,1.2,-3.72,1.1,-4.52,914.06,35.94
4164039,0.02,0.01,1.23,-3.17,1.28,-4.52,914.1,35.93
4164077,0.01,-0.01,1.16,-2.87,2.44,-4.64,914.0,35.92
4164115,0.0,0.0,1.17,-2.44,1.95,-4.82,913.99,35.93
4164153,0.01,-0.0,1.16,-1.95,2.81,-5.07,914.02,35.94
4164191,-0.0,0.0,1.18,-1.77,3.54,-5.07,913.99,35.93
4164229,0.02,-0.01,1.18,-1.65,4.58,-5.07,913.96,35.94
4164268,0.01,-0.01,1.2,-1.53,4.46,-5.31,913.96,35.93
4164306,0.01,-0.02,1.14,-1.59,4.88,-5.37,913.94,35.93
4164344,0.03,-0.01,1.13,-1.65,4.46,-5.55,913.96,35.94
4164382,0.02,-0.01,1.14,-1.22,5.19,-5.62,913.92,35.95
4164431,0.02,-0.03,1.1,-1.04,5.74,-5.8,913.96,35.94
4164470,0.01,-0.03,1.11,-1.04,6.23,-6.23,913.94,35.94
4164508,0.01,-0.04,1.07,-0.85,6.59,-6.53,913.92,35.95
4164546,0.02,-0.03,1.08,-1.22,6.41,-6.71,913.9,35.94
4164584,0.03,-0.02,1.08,-1.04,6.1,-6.71,913.86,35.95
4164622,0.04,-0.04,1.03,-1.22,7.14,-6.77,913.87,35.95
4164660,0.01,-0.03,1.03,-1.71,5.43,-6.96,913.88,35.97
4164698,0.02,-0.04,1.05,-1.71,4.33,-7.08,913.79,35.95
4164736,0.0,-0.05,0.96,-2.2,4.27,-7.14,913.75,35.95
4164786,0.02,-0.05,0.97,-2.14,3.85,-7.26,913.78,35.96
4164824,0.03,-0.06,0.91,-2.32,2.75,-7.51,913.77,35.96
4164862,0.01,-0.06,0.86,-2.62,1.83,-7.39,913.74,35.96
4164900,0.03,-0.06,0.83,-2.75,1.77,-7.69,913.68,35.95
4164938,0.02,-0.05,0.83,-3.17,1.22,-8.0,913.71,35.96
4164976,-0.01,-0.05,0.84,-3.66,0.61,-7.87,913.7,35.95
4165014,0.01,-0.06,0.91,-4.21,-0.43,-8.0,913.7,35.96
4165053,0.01,-0.05,0.91,-4.76,0.37,-8.42,913.67,35.95
4165091,-0.01,-0.03,1.0,-4.7,-0.37,-8.36,913.64,35.94
4165140,0.02,-0.05,1.0,-4.7,2.2,-8.73,913.69,35.94
4165178,0.02,-0.03,1.06,-4.58,2.44,-9.03,913.66,35.94
4165217,0.01,-0.04,1.04,-4.46,4.27,-9.22,913.71,35.95
4165255,0.01,-0.04,1.07,-4.52,4.21,-9.7,913.62,35.94
4165293,0.01,-0.03,1.05,-4.33,5.98,-9.83,913.68,35.95
4165331,0.02,-0.02,1.09,-4.27,4.88,-10.01,913.63,35.94
4165369,0.01,-0.03,1.09,-4.39,6.35,-10.07,913.64,35.96
4165407,0.01,-0.04,1.08,-4.39,6.53,-10.44,913.64,35.95
4165445,0.01,-0.02,1.13,-4.33,7.2,-10.44,913.53,35.93
4165483,0.02,-0.02,1.11,-4.27,6.59,-10.38,913.63,35.96
4165533,-0.0,-0.01,1.09,-4.46,6.65,-10.44,913.54,35.94
4165571,0.02,-0.01,1.13,-4.64,6.35,-10.44,913.58,35.95
4165609,0.03,-0.02,1.14,-4.7,5.92,-10.44,913.54,35.95
4165647,0.01,-0.02,1.13,-4.82,5.19,-10.5,913.54,35.95
4165685,0.01,-0.01,1.21,-4.64,4.76,-10.62,913.55,35.96
4165723,0.02,-0.02,1.18,-4.52,5.0,-10.74,913.52,35.95
4165761,-0.01,-0.01,1.18,-4.27,5.37,-10.74,913.56,35.97
4165799,0.01,-0.03,1.16,-4.15,5.55,-10.8,913.55,35.96
4165837,0.0,-0.02,1.17,-4.03,5.43,-11.17,913.52,35.95
4165913,0.01,-0.02,1.14,-3.97,5.74,-10.93,913.49,35.92
4165951,0.0,-0.02,1.12,-3.91,5.8,-11.11,913.53,35.93
4165989,-0.0,-0.02,1.09,-4.03,5.31,-10.99,913.53,35.94
4166079,0.01,-0.02,1.1,-4.52,5.25,-11.29,913.48,35.91
4166117,-0.01,-0.01,1.13,-4.39,5.37,-10.93,913.49,35.92
4166155,0.01,-0.03,1.11,-4.52,5.13,-10.93,913.47,35.92
4166193,-0.01,-0.01,1.15,-4.76,4.21,-11.11,913.51,35.92
4166231,-0.01,-0.03,1.1,-4.88,4.39,-10.93,913.46,35.92
4166269,-0.0,-0.03,1.09,-4.94,4.09,-10.74,913.49,35.92
4166319,-0.0,-0.03,1.12,-5.07,4.46,-10.8,913.4,35.9
4166357,-0.02,-0.03,1.08,-5.13,4.03,-10.74,913.44,35.89
4166395,-0.01,-0.03,1.09,-5.13,4.09,-10.74,913.45,35.91
4166433,-0.01,-0.03,1.09,-5.25,4.03,-10.56,913.49,35.93
4166471,-0.01,-0.02,1.1,-5.43,3.91,-10.56,913.39,35.93
4166509,-0.01,-0.03,1.1,-5.74,3.6,-10.38,913.43,35.91
4166547,-0.01,-0.02,1.11,-5.8,4.09,-10.56,913.52,35.94
4166585,0.01,-0.03,1.11,-5.98,4.46,-10.44,913.4,35.93
4166623,-0.0,-0.02,1.13,-6.1,3.72,-10.38,913.38,35.94
4166673,-0.0,-0.02,1.13,-6.04,3.05,-10.44,913.43,35.92
4166711,-0.01,-0.03,1.14,-6.29,2.69,-10.19,913.43,35.92
4166749,-0.0,-0.02,1.19,-6.29,2.2,-10.25,913.43,35.93
4166787,0.01,-0.02,1.17,-6.23,2.5,-10.38,913.43,35.93
4166826,0.01,-0.01,1.21,-6.47,1.95,-10.5,913.42,35.94
4166864,-0.0,-0.01,1.25,-6.1,2.26,-10.5,913.42,35.94
4166902,-0.0,-0.01,1.25,-6.04,1.83,-10.38,913.39,35.92
4166940,-0.01,-0.01,1.27,-6.04,2.32,-10.56,913.41,35.94
4166978,-0.02,0.0,1.26,-5.92,2.2,-10.5,913.43,35.94
4167016,-0.01,0.0,1.28,-5.86,2.75,-10.38,913.36,35.94
4167066,-0.0,0.0,1.27,-5.8,2.87,-10.38,913.4,35.92
4167104,-0.01,0.0,1.31,-5.68,2.75,-10.44,913.36,35.93
4167142,-0.0,-0.0,1.29,-5.74,3.36,-10.31,913.35,35.93
4167180,0.0,0.02,1.38,-5.92,2.14,-10.25,913.36,35.93
4167218,-0.01,0.01,1.35,-5.98,2.87,-10.07,913.27,35.94
4167256,-0.01,0.02,1.37,-6.04,1.95,-10.01,913.31,35.93
4167294,-0.0,0.01,1.4,-5.74,2.32,-10.07,913.34,35.93
4167332,0.03,0.01,1.38,-5.92,2.38,-10.01,913.41,35.93
4167370,0.0,0.03,1.44,-5.68,1.59,-9.95,913.34,35.94
4167420,-0.0,-0.0,1.34,-5.43,2.75,-10.31,913.4,35.93
4167458,0.0,0.01,1.44,-5.31,1.65,-10.44,913.4,35.92
4167496,-0.01,-0.01,1.38,-5.07,1.89,-10.31,913.35,35.92
4167534,-0.0,0.0,1.41,-5.19,1.22,-10.44,913.39,35.93
4167572,0.01,0.01,1.41,-4.94,2.75,-10.68,913.38,35.93
4167610,-0.0,0.01,1.41,-5.13,1.34,-10.56,913.41,35.93
4167648,-0.02,0.01,1.42,-5.13,1.77,-10.31,913.34,35.92
4167686,-0.02,0.02,1.41,-5.0,1.83,-10.44,913.42,35.93
4167724,-0.01,0.02,1.48,-5.0,2.44,-10.38,913.33,35.92
4167774,-0.02,0.01,1.47,-5.07,2.69,-10.13,913.34,35.92
4167812,-0.03,0.02,1.49,-5.13,3.11,-10.25,913.32,35.93
4167850,-0.03,0.0,1.46,-5.07,3.78,-10.01,913.32,35.91
4167888,-0.03,0.02,1.45,-4.94,2.99,-9.77,913.36,35.9
4167926,-0.03,0.02,1.39,-5.19,3.66,-9.7,913.36,35.92
4167964,-0.03,0.01,1.37,-5.13,3.54,-9.46,913.4,35.92
4168002,-0.03,0.01,1.37,-5.0,4.03,-9.46,913.35,35.9
4168040,-0.03,-0.01,1.35,-4.94,4.52,-9.28,913.39,35.91
4168079,-0.04,-0.0,1.31,-4.94,4.76,-9.16,913.35,35.9
4168117,-0.03,-0.01,1.31,-4.82,5.0,-9.09,913.34,35.9
4168166,-0.02,-0.02,1.25,-5.07,6.59,-9.03,913.33,35.9
4168204,-0.03,-0.0,1.28,-5.49,6.47,-8.97,913.42,35.9
4168242,-0.03,-0.02,1.28,-5.68,7.63,-8.79,913.37,35.93
4168281,-0.02,-0.02,1.28,-6.1,7.39,-8.91,913.31,35.92
4168319,-0.03,-0.01,1.31,-5.86,8.18,-8.85,913.3,35.91
4168357,-0.03,-0.01,1.31,-6.1,8.24,-8.48,913.3,35.91
4168395,-0.03,-0.01,1.38,-5.86,8.42,-8.24,913.31,35.92
4168433,-0.05,-0.03,1.27,-5.92,9.09,-8.18,913.33,35.91
4168471,-0.03,-0.0,1.33,-6.47,7.14,-7.93,913.33,35.91
4168521,-0.04,-0.02,1.26,-6.41,7.87,-7.57,913.3,35.9
4168559,-0.02,-0.0,1.3,-6.71,7.2,-7.57,913.3,35.9
4168597,-0.03,-0.01,1.29,-6.71,7.14,-7.2,913.28,35.92
4168635,-0.03,-0.03,1.28,-6.96,7.02,-7.08,913.21,35.9
4168673,-0.02,-0.01,1.31,-6.96,7.26,-7.02,913.29,35.92
4168711,-0.03,-0.01,1.33,-6.84,7.69,-6.96,913.23,35.9
4168749,-0.04,-0.01,1.33,-6.53,8.12,-6.9,913.24,35.91
4168787,-0.01,-0.02,1.32,-6.29,7.93,-6.96,913.24,35.91
4168825,-0.01,-0.01,1.31,-6.23,8.36,-6.84,913.21,35.92
4168901,-0.02,-0.02,1.27,-5.74,8.48,-6.77,913.2,35.88
4168939,-0.03,-0.02,1.26,-5.55,8.3,-6.65,913.19,35.88
4168977,-0.02,-0.03,1.21,-5.55,7.75,-6.35,913.21,35.9
4169067,-0.01,-0.03,1.18,-5.62,7.26,-6.29,913.17,35.86
4169105,-0.0,-0.04,1.21,-5.74,6.84,-6.1,913.12,35.89
4169143,-0.01,-0.04,1.2,-5.74,6.29,-5.98,913.16,35.88
4169181,-0.02,-0.03,1.2,-5.8,5.62,-5.92,913.13,35.88
4169219,0.0,-0.05,1.16,-6.04,5.92,-6.04,913.13,35.89
4169257,0.0,-0.04,1.18,-6.04,5.86,-6.16,913.16,35.88
4169295,-0.01,-0.03,1.18,-5.92,5.68,-5.8,913.12,35.89
4169345,-0.01,-0.03,1.18,-5.86,5.98,-6.23,913.05,35.88
4169383,0.0,-0.04,1.19,-5.92,6.53,-6.35,913.07,35.89
4169421,-0.0,-0.03,1.23,-5.98,5.49,-6.23,913.16,35.89
4169459,0.01,-0.02,1.24,-6.1,5.62,-6.16,913.06,35.89
4169497,0.0,-0.02,1.27,-5.98,4.7,-6.16,913.1,35.9
4169535,-0.01,-0.03,1.29,-5.98,5.31,-6.23,913.0,35.91
4169573,-0.0,-0.04,1.26,-6.04,5.13,-6.1,913.03,35.89
4169611,0.0,-0.02,1.28,-5.98,4.52,-6.23,913.1,35.9
4169649,-0.0,-0.03,1.24,-5.98,4.46,-6.04,913.06,35.89
4169699,-0.0,-0.03,1.21,-5.98,4.03,-5.98,913.02,35.88
4169737,-0.01,-0.04,1.18,-6.16,3.78,-6.16,913.06,35.9
4169775,0.0,-0.05,1.17,-6.1,3.6,-5.98,912.99,35.89
4169813,0.0,-0.05,1.17,-5.86,3.78,-6.1,913.0,35.89
4169851,0.0,-0.04,1.19,-5.62,3.66,-6.23,913.01,35.89
4169889,0.0,-0.03,1.23,-5.92,3.11,-6.04,913.06,35.88
4169928,-0.0,-0.03,1.25,-5.92,3.6,-6.29,912.95,35.89
4169966,-0.0,-0.03,1.28,-5.92,3.42,-6.23,912.98,35.89
4170004,0.01,-0.03,1.32,-6.29,3.36,-6.47,912.93,35.89
4170053,0.01,-0.02,1.38,-5.98,3.36,-6.23,913.02,35.88
4170092,0.01,-0.04,1.3,-5.92,3.6,-6.41,912.97,35.88
4170130,-0.01,-0.03,1.33,-5.74,3.78,-6.53,912.97,35.9
4170168,0.0,-0.03,1.35,-5.0,5.62,-6.77,912.91,35.89
4170206,-0.01,-0.04,1.33,-5.37,4.46,-6.96,912.96,35.89
4170244,-0.0,-0.02,1.33,-5.43,5.8,-7.2,912.95,35.9
4170282,0.01,-0.02,1.38,-5.74,5.62,-7.2,912.93,35.89
4170320,0.02,-0.03,1.39,-6.1,5.68,-7.26,912.93,35.9
4170358,-0.04,-0.02,1.38,-6.04,4.94,-7.08,912.89,35.91
4170396,-0.01,-0.03,1.42,-5.68,6.59,-7.02,912.92,35.9
4170446,0.0,-0.02,1.43,-5.92,5.31,-7.02,912.86,35.89
4170484,-0.02,-0.02,1.41,-5.92,5.8,-7.02,912.83,35.88
4170522,-0.01,-0.04,1.37,-6.1,5.43,-7.02,912.81,35.88
4170560,-0.01,-0.02,1.43,-6.16,5.13,-7.08,912.86,35.89
4170598,-0.01,-0.04,1.36,-6.23,5.55,-6.77,912.83,35.87
4170636,-0.01,-0.03,1.34,-6.47,4.39,-6.53,912.86,35.89
4170674,-0.02,-0.03,1.33,-6.53,4.7,-6.71,912.84,35.9
4170712,-0.01,-0.03,1.35,-6.41,4.7,-6.71,912.87,35.89
4170750,0.01,-0.04,1.31,-6.59,4.33,-6.53,912.82,35.88
4170800,-0.01,-0.02,1.31,-6.71,3.05,-6.16,912.78,35.88
4170838,-0.03,-0.04,1.32,-6.53,3.11,-6.29,912.82,35.89
4170876,-0.01,-0.04,1.34,-6.77,2.81,-6.29,912.78,35.89
4170914,-0.0,-0.03,1.35,-6.65,2.08,-6.04,912.7,35.89
4170952,-0.03,-0.03,1.31,-6.9,3.05,-6.1,912.75,35.88
4170990,-0.01,-0.03,1.32,-7.02,3.36,-6.23,912.71,35.89
4171029,0.01,-0.04,1.32,-7.14,4.03,-6.1,912.72,35.88
4171067,-0.01,-0.04,1.3,-7.02,4.64,-6.23,912.72,35.88
4171105,-0.02,-0.03,1.32,-7.02,4.27,-6.04,912.65,35.87
4171143,0.01,-0.03,1.31,-6.77,5.31,-6.29,912.75,35.89
4171192,-0.0,-0.03,1.3,-6.71,5.98,-6.41,912.63,35.87
4171230,0.0,-0.04,1.34,-6.29,7.51,-6.65,912.65,35.87
4171268,0.0,-0.05,1.3,-6.29,9.46,-6.96,912.69,35.88
4171307,0.01,-0.03,1.33,-5.98,9.77,-7.14,912.66,35.9
4171345,0.02,-0.03,1.33,-5.62,10.74,-7.26,912.62,35.89
4171383,-0.0,-0.03,1.29,-5.68,11.6,-7.63,912.63,35.88
4171421,-0.0,-0.02,1.31,-5.68,11.96,-7.87,912.59,35.88
4171459,0.01,-0.04,1.28,-5.74,12.21,-8.0,912.6,35.89
4171497,0.01,-0.01,1.34,-5.98,11.72,-8.0,912.54,35.88
4171547,0.01,-0.02,1.33,-6.04,12.82,-8.18,912.54,35.88
4171585,-0.0,-0.02,1.34,-5.92,12.27,-8.12,912.54,35.88
4171623,0.02,-0.03,1.37,-6.23,12.08,-8.42,912.55,35.88
4171661,0.01,-0.03,1.34,-6.29,11.78,-8.36,912.46,35.88
4171699,0.01,-0.0,1.41,-6.29,10.93,-8.42,912.41,35.87
4171737,0.02,-0.0,1.39,-6.41,10.5,-8.54,912.42,35.88
4171775,0.02,0.01,1.43,-6.59,9.4,-8.67,912.33,35.87
4171813,-0.01,-0.01,1.41,-6.77,9.64,-8.61,912.35,35.88
4171851,0.0,0.0,1.46,-7.26,8.61,-8.61,912.32,35.87
4171927,-0.01,0.01,1.47,-7.57,8.0,-8.91,912.38,35.86
4171965,-0.01,0.02,1.48,-7.63,9.09,-8.85,912.35,35.86
4172003,-0.01,0.01,1.48,-6.96,8.54,-9.09,912.35,35.85
4172092,-0.02,0.0,1.36,-6.23,8.54,-9.09,912.38,35.83
4172130,-0.01,-0.02,1.32,-6.29,9.22,-9.4,912.38,35.85
4172168,-0.01,-0.02,1.27,-5.98,8.97,-9.34,912.35,35.84
4172207,-0.03,-0.03,1.25,-5.74,8.54,-9.4,912.29,35.83
4172245,-0.02,-0.04,1.17,-5.37,9.58,-9.34,912.4,35.86
4172283,-0.01,-0.03,1.14,-5.37,8.54,-9.52,912.33,35.86
4172321,0.0,-0.03,1.11,-5.62,7.81,-9.64,912.31,35.84
4172371,-0.02,-0.05,1.07,-5.8,8.0,-9.58,912.26,35.85
4172409,-0.03,-0.03,1.09,-5.92,7.69,-9.46,912.25,35.85
4172447,-0.02,-0.05,1.1,-6.04,7.26,-9.58,912.17,35.85
4172485,-0.03,-0.04,1.06,-6.71,7.2,-9.77,912.21,35.87
4172523,-0.01,-0.02,1.14,-7.57,5.86,-9.58,912.21,35.88
4172561,-0.03,-0.04,1.1,-7.87,6.04,-9.83,912.17,35.86
4172599,-0.02,-0.03,1.14,-8.97,5.0,-9.58,912.16,35.87
4172637,-0.03,0.0,1.2,-9.34,4.64,-9.64,912.13,35.87
4172675,-0.04,0.0,1.24,-9.83,4.15,-9.4,912.09,35.86
4172725,-0.02,0.01,1.35,-10.13,3.36,-9.46,912.08,35.85
4172763,-0.04,0.01,1.37,-10.07,3.36,-9.46,912.06,35.85
4172801,-0.04,0.01,1.4,-10.07,2.14,-9.22,912.05,35.85
4172839,-0.01,0.02,1.41,-9.95,1.71,-9.03,912.04,35.87
4172877,-0.03,0.04,1.39,-9.46,1.1,-9.09,912.02,35.86
4172915,-0.04,0.03,1.36,-8.61,1.59,-8.97,912.07,35.87
4172953,-0.01,0.01,1.34,-8.36,1.34,-9.28,912.09,35.88
4172991,-0.03,0.02,1.36,-7.87,1.22,-8.91,912.01,35.87
4173029,-0.03,0.01,1.36,-7.51,1.22,-8.85,912.13,35.88
4173079,-0.03,0.03,1.38,-7.45,0.73,-8.91,911.97,35.85
4173117,-0.02,0.03,1.4,-7.08,0.55,-8.73,911.99,35.86
4173155,-0.03,0.02,1.35,-7.26,0.18,-8.67,912.0,35.86
4173193,-0.04,0.03,1.39,-6.9,-0.37,-8.67,912.02,35.87
4173231,-0.02,0.03,1.41,-6.9,0.37,-8.67,911.97,35.87
4173269,-0.03,0.02,1.38,-6.53,0.55,-8.54,912.0,35.88
4173307,-0.04,0.03,1.4,-6.77,0.73,-8.48,911.93,35.86
4173345,-0.03,0.03,1.37,-6.47,1.22,-8.61,912.0,35.86
4173383,-0.03,0.03,1.38,-6.35,0.92,-8.36,912.05,35.88
4173421,-0.03,0.03,1.36,-6.16,1.04,-8.54,911.95,35.88
4173471,-0.03,0.02,1.32,-6.1,0.49,-8.36,911.96,35.86
4173509,-0.03,0.02,1.35,-6.1,0.79,-8.3,911.92,35.87
4173547,-0.02,0.02,1.32,-6.23,0.37,-8.0,911.96,35.88
4173585,-0.03,0.02,1.35,-5.98,-0.43,-7.87,911.97,35.88
4173623,-0.03,0.0,1.3,-6.04,0.73,-7.93,911.97,35.88
4173661,-0.03,0.02,1.33,-6.23,0.0,-7.93,911.96,35.88
4173699,-0.03,0.01,1.3,-5.86,0.49,-7.69,911.94,35.88
4173737,-0.04,0.0,1.25,-5.92,-0.31,-7.69,912.02,35.9
4173775,-0.03,0.01,1.31,-5.86,-0.73,-7.63,912.02,35.89
4173825,-0.03,-0.0,1.24,-5.74,-0.98,-7.45,911.98,35.87
4173863,-0.03,0.01,1.3,-5.55,-0.92,-7.39,911.96,35.88
4173901,-0.01,-0.02,1.23,-5.55,-0.18,-7.32,911.96,35.88
4173939,-0.02,-0.01,1.25,-5.55,-0.85,-7.32,911.98,35.87
4173977,-0.02,-0.02,1.22,-5.37,-0.06,-7.26,911.97,35.87
4174015,-0.01,-0.01,1.2,-5.68,-0.55,-7.26,912.03,35.88
4174053,-0.02,-0.01,1.21,-5.68,-0.24,-7.32,911.98,35.86
4174091,-0.01,-0.02,1.18,-5.86,-0.55,-7.39,912.02,35.87
4174129,-0.01,-0.03,1.17,-6.04,-0.61,-7.39,912.06,35.88
4174179,-0.01,-0.02,1.15,-5.98,-0.92,-7.26,911.99,35.86
4174217,-0.02,-0.03,1.13,-5.92,-0.79,-7.02,911.99,35.86
4174255,-0.0,-0.03,1.1,-5.8,-0.92,-7.39,911.97,35.86
4174293,-0.02,-0.02,1.11,-5.74,-0.92,-7.57,911.97,35.87
4174331,-0.02,-0.04,1.08,-6.1,-0.06,-7.69,912.0,35.87
4174369,-0.01,-0.02,1.11,-6.47,0.61,-7.81,911.96,35.87
4174407,-0.0,-0.01,1.17,-6.41,1.22,-8.0,912.01,35.88
4174445,-0.01,-0.01,1.2,-6.59,2.01,-8.06,911.95,35.88
4174483,-0.01,-0.01,1.26,-6.84,2.26,-8.24,911.98,35.87
4174521,-0.01,-0.01,1.33,-6.59,2.38,-8.18,912.03,35.9
4174571,-0.02,-0.01,1.29,-6.53,3.11,-8.24,912.07,35.86
4174609,-0.01,0.01,1.33,-6.23,3.17,-8.36,912.02,35.87
4174647,-0.0,-0.01,1.3,-5.86,3.97,-8.54,912.02,35.87
4174685,-0.02,-0.01,1.29,-5.68,3.36,-8.48,912.05,35.88
4174724,-0.02,-0.0,1.28,-5.19,4.09,-8.73,912.05,35.88
4174762,-0.02,-0.01,1.24,-4.94,4.82,-8.91,911.99,35.87
4174800,-0.01,-0.01,1.27,-5.19,4.33,-8.79,912.03,35.89
4174838,-0.02,-0.02,1.26,-5.13,5.07,-8.91,912.01,35.88
4174876,-0.02,-0.03,1.25,-5.25,4.76,-8.79,912.01,35.89
4174953,-0.02,-0.02,1.24,-5.37,5.13,-8.54,912.0,35.86
4174991,-0.02,-0.02,1.2,-5.37,4.7,-8.61,912.0,35.86
4175029,-0.02,-0.02,1.23,-5.62,4.94,-8.67,911.93,35.86
4175119,-0.02,-0.02,1.21,-5.86,3.78,-8.42,911.96,35.82
4175157,-0.03,-0.02,1.23,-5.98,4.21,-8.12,912.0,35.86
4175195,-0.01,-0.02,1.21,-6.1,4.09,-8.24,911.99,35.84
4175233,-0.02,-0.02,1.23,-6.16,3.48,-8.12,911.91,35.86
4175271,-0.03,-0.03,1.2,-6.35,3.42,-7.93,911.91,35.84
4175309,-0.02,-0.03,1.19,-6.47,2.56,-8.12,911.96,35.86
4175359,-0.03,-0.02,1.19,-6.59,2.38,-7.87,911.95,35.85
4175397,-0.02,-0.03,1.18,-6.53,1.83,-7.87,911.98,35.86
4175435,-0.02,-0.02,1.23,-6.59,1.89,-7.87,911.91,35.86
4175473,-0.02,-0.02,1.22,-6.35,2.32,-7.87,911.98,35.86
4175512,-0.03,-0.02,1.26,-6.1,2.44,-8.06,911.99,35.87
4175550,-0.03,-0.02,1.25,-6.1,2.99,-8.0,911.95,35.86
4175588,-0.02,-0.02,1.24,-6.1,3.05,-8.06,911.99,35.86
4175626,-0.03,-0.02,1.24,-6.23,4.03,-7.93,911.94,35.86
4175664,-0.01,-0.03,1.2,-6.1,4.33,-7.93,912.0,35.85
4175702,-0.03,-0.02,1.22,-5.98,3.91,-8.0,911.97,35.86
4175752,-0.04,-0.03,1.2,-5.8,3.6,-7.75,911.99,35.85
4175790,-0.02,-0.02,1.19,-5.68,2.87,-7.75,911.95,35.86
4175828,-0.03,-0.01,1.22,-5.62,2.69,-7.51,911.88,35.84
4175866,-0.02,-0.02,1.23,-5.49,2.38,-7.32,911.95,35.85
4175904,-0.02,-0.02,1.28,-5.74,2.69,-7.14,911.94,35.86
4175942,-0.04,-0.0,1.3,-5.55,2.93,-7.45,911.94,35.87
4175980,-0.04,-0.01,1.33,-5.49,3.42,-7.14,911.94,35.87
4176018,-0.02,-0.01,1.38,-5.55,3.54,-7.26,911.89,35.87
4176057,-0.01,-0.01,1.4,-5.07,4.7,-7.14,911.9,35.87
4176106,-0.02,-0.0,1.35,-5.19,4.52,-7.08,911.89,35.85
4176144,-0.01,0.0,1.34,-5.13,5.55,-7.02,911.95,35.87
4176182,-0.02,-0.0,1.31,-5.0,4.88,-7.02,911.88,35.87
4176221,-0.01,-0.01,1.31,-5.0,5.13,-6.77,911.88,35.87
4176259,-0.0,-0.01,1.33,-4.94,4.76,-6.77,911.9,35.88
4176297,0.0,-0.01,1.33,-4.94,4.52,-6.96,911.93,35.88
4176335,-0.01,-0.01,1.33,-4.88,4.33,-6.53,911.88,35.87
4176373,-0.01,-0.02,1.3,-4.76,3.97,-6.59,911.91,35.87
4176411,-0.02,-0.02,1.29,-4.88,3.78,-6.47,911.88,35.87
4176461,0.0,-0.02,1.25,-4.88,3.23,-6.23,911.91,35.86
4176499,-0.01,-0.02,1.23,-4.82,2.32,-6.47,911.9,35.86
4176537,-0.0,-0.04,1.17,-4.94,2.14,-6.29,911.91,35.86
4176575,0.0,-0.03,1.19,-4.94,1.83,-6.23,911.85,35.86
4176613,0.01,-0.04,1.16,-4.76,1.46,-6.35,911.9,35.87
4176651,-0.0,-0.04,1.15,-4.94,1.4,-6.35,911.91,35.88
4176689,0.0,-0.03,1.13,-5.07,2.26,-6.53,911.9,35.86
4176728,0.01,-0.04,1.15,-5.25,1.59,-6.65,911.87,35.87
4176766,-0.01,-0.03,1.18,-5.49,1.65,-6.59,911.92,35.87
4176804,-0.0,-0.04,1.18,-5.43,1.65,-6.65,911.94,35.86
4176854,-0.01,-0.03,1.19,-5.68,2.2,-6.84,911.84,35.86
4176892,0.0,-0.03,1.23,-5.68,1.65,-7.02,911.86,35.87
4176930,0.0,-0.03,1.23,-5.68,2.38,-7.2,911.9,35.87
4176968,0.0,-0.02,1.2,-5.74,2.32,-7.32,911.91,35.88
4177006,0.0,-0.02,1.23,-5.68,2.81,-7.14,911.88,35.88
4177044,-0.01,-0.03,1.22,-5.49,2.87,-7.51,911.95,35.88
4177082,-0.01,-0.03,1.22,-5.37,3.42,-7.63,911.87,35.89
4177120,-0.0,-0.03,1.22,-5.31,3.48,-7.69,911.91,35.87
4177158,-0.0,-0.03,1.19,-5.37,2.99,-7.63,911.92,35.88
4177208,-0.02,-0.03,1.15,-5.19,4.15,-7.63,911.87,35.87
4177246,-0.0,-0.03,1.14,-5.31,4.03,-7.81,911.89,35.87
4177284,-0.01,-0.04,1.14,-5.07,4.58,-7.87,911.85,35.87
4177322,-0.02,-0.04,1.12,-5.07,5.37,-8.06,911.93,35.87
4177360,-0.01,-0.04,1.14,-4.94,5.8,-8.12,911.92,35.87
4177398,0.0,-0.03,1.15,-4.82,6.1,-8.18,911.92,35.86
4177436,-0.02,-0.02,1.21,-5.07,5.31,-8.3,911.9,35.86
4177474,-0.03,-0.02,1.2,-5.0,5.55,-7.93,911.91,35.87
4177512,-0.03,-0.03,1.23,-5.19,5.74,-8.24,911.89,35.85
4177562,-0.03,-0.0,1.26,-5.43,4.21,-8.0,911.85,35.84
4177600,-0.02,-0.0,1.26,-5.43,3.97,-7.69,911.9,35.85
4177638,-0.03,-0.01,1.25,-5.55,4.15,-7.57,911.85,35.85
4177676,-0.03,-0.01,1.29,-5.49,3.91,-7.45,911.83,35.84
4177714,-0.04,-0.02,1.3,-5.37,3.3,-7.02,911.88,35.86
4177753,-0.04,-0.01,1.31,-5.19,2.87,-6.96,911.88,35.84
4177791,-0.06,-0.01,1.29,-5.07,2.93,-6.59,911.91,35.86
4177829,-0.04,-0.01,1.33,-4.64,1.89,-6.59,911.92,35.86
4177867,-0.02,-0.04,1.24,-4.82,2.38,-6.29,911.9,35.86
4177905,-0.04,-0.01,1.26,-4.82,0.98,-5.92,911.93,35.86
4177981,-0.02,-0.03,1.16,-4.76,0.79,-5.8,911.87,35.82
4178019,-0.05,-0.01,1.31,-4.39,0.98,-5.8,911.88,35.86
4178057,-0.03,-0.05,1.16,-4.94,2.5,-5.68,911.92,35.84
4178146,-0.04,-0.04,1.19,-5.0,3.42,-5.31,911.91,35.81
4178185,-0.02,-0.0,1.29,-5.19,1.34,-5.25,911.92,35.85
4178223,-0.05,-0.0,1.24,-5.19,3.05,-5.07,911.86,35.84
4178261,-0.03,-0.02,1.23,-5.43,2.26,-4.76,911.92,35.86
4178299,-0.03,-0.02,1.29,-5.55,3.48,-5.0,911.9,35.83
4178337,-0.02,-0.02,1.26,-5.49,3.17,-4.94,911.95,35.84
4178387,-0.01,-0.02,1.27,-5.55,4.03,-4.7,911.9,35.83
4178425,-0.01,-0.02,1.25,-5.25,3.85,-4.76,911.9,35.83
4178463,-0.02,-0.01,1.27,-5.07,4.64,-4.7,911.89,35.83
4178501,-0.02,-0.02,1.22,-5.07,4.52,-4.64,911.82,35.83
4178539,-0.02,-0.01,1.24,-5.0,4.88,-4.52,911.92,35.83
4178577,-0.01,-0.03,1.18,-4.76,6.16,-4.58,911.92,35.83
4178615,-0.01,-0.02,1.2,-4.52,5.49,-4.46,911.91,35.84
4178654,-0.0,-0.03,1.17,-4.03,7.14,-4.46,911.93,35.82
4178692,0.0,-0.03,1.17,-3.85,7.45,-4.46,911.9,35.83
4178741,-0.03,-0.03,1.15,-3.48,8.91,-4.64,911.9,35.83
4178779,0.01,-0.03,1.16,-3.78,8.79,-4.7,911.82,35.82
4178817,0.01,-0.02,1.21,-3.85,9.09,-4.94,911.85,35.84
4178855,0.01,-0.02,1.18,-4.21,10.25,-5.07,911.83,35.84
4178894,0.0,0.01,1.27,-4.46,9.46,-4.82,911.81,35.84
4178932,0.01,-0.01,1.33,-4.33,9.7,-4.88,911.81,35.84
4178970,0.0,-0.01,1.34,-4.58,9.09,-5.0,911.81,35.83
4179008,-0.01,-0.0,1.41,-4.58,9.22,-4.88,911.81,35.85
4179046,0.02,-0.0,1.38,-4.7,8.79,-4.88,911.78,35.82
4179084,0.0,0.0,1.4,-4.46,7.45,-4.82,911.86,35.84
4179134,-0.0,-0.0,1.3,-3.97,7.51,-4.64,911.86,35.84
4179172,0.01,-0.01,1.33,-3.72,6.65,-4.88,911.81,35.85
4179210,0.01,-0.02,1.26,-3.6,5.92,-4.88,911.82,35.84
4179248,-0.01,-0.01,1.25,-3.72,5.37,-4.88,911.83,35.84
4179286,-0.0,-0.03,1.24,-3.72,5.62,-4.94,911.83,35.84
4179324,0.01,-0.03,1.23,-3.78,4.52,-5.13,911.75,35.84
4179362,0.0,-0.02,1.21,-3.91,4.82,-5.07,911.82,35.85
4179400,-0.0,-0.02,1.21,-4.09,4.03,-5.19,911.8,35.84
4179438,0.0,-0.03,1.18,-4.09,4.39,-5.13,911.77,35.84
4179488,-0.01,-0.02,1.19,-4.27,2.81,-5.25,911.76,35.83
4179526,-0.01,-0.03,1.15,-4.27,3.6,-5.19,911.79,35.84
4179564,-0.0,-0.03,1.15,-4.52,2.87,-5.43,911.77,35.84
4179602,-0.01,-0.02,1.19,-4.64,3.11,-5.25,911.8,35.86
4179640,-0.01,-0.03,1.15,-4.82,2.56,-5.25,911.76,35.84
4179678,-0.01,-0.03,1.19,-4.94,2.38,-5.37,911.76,35.86
4179716,-0.0,-0.03,1.17,-4.76,2.44,-5.25,911.75,35.86
4179754,-0.01,-0.02,1.19,-5.0,2.01,-5.49,911.8,35.86
4179793,-0.01,-0.02,1.19,-5.19,2.32,-5.19,911.74,35.84
4179831,-0.01,-0.02,1.22,-5.07,2.08,-5.37,911.76,35.84
4179880,-0.0,-0.03,1.21,-5.31,2.56,-5.55,911.74,35.83
4179919,-0.0,-0.02,1.23,-5.07,1.89,-5.43,911.71,35.83
4179957,-0.01,-0.01,1.21,-5.07,2.14,-5.8,911.72,35.85
4179995,-0.01,-0.01,1.21,-5.19,1.71,-5.62,911.7,35.84
4180033,-0.0,-0.02,1.24,-4.94,1.65,-5.68,911.68,35.84
4180071,0.0,-0.03,1.22,-4.88,1.71,-5.8,911.71,35.85
4180109,-0.01,-0.01,1.24,-5.13,1.46,-5.86,911.69,35.86
4180147,0.01,-0.01,1.23,-4.82,1.34,-6.1,911.7,35.85
4180185,-0.0,-0.01,1.27,-4.82,1.28,-6.1,911.7,35.85
4180235,0.0,-0.02,1.28,-4.76,2.01,-6.29,911.7,35.84
4180273,0.01,-0.01,1.3,-4.64,1.71,-6.47,911.72,35.85
4180311,-0.01,-0.0,1.28,-4.39,2.26,-6.41,911.71,35.85
4180349,0.0,-0.01,1.27,-4.33,2.56,-6.53,911.62,35.84
4180387,0.01,-0.0,1.29,-4.27,2.44,-6.96,911.71,35.86
4180425,-0.0,-0.01,1.26,-4.03,2.93,-6.71,911.74,35.84
4180463,-0.0,-0.01,1.26,-4.03,2.56,-6.9,911.71,35.86
4180501,0.0,-0.01,1.25,-3.97,3.05,-7.2,911.7,35.85
4180539,0.01,-0.01,1.23,-3.78,3.6,-7.14,911.68,35.86
4180589,0.01,-0.01,1.23,-3.6,3.05,-7.32,911.7,35.84
4180627,0.01,-0.01,1.24,-3.66,3.11,-7.39,911.71,35.85
4180665,-0.01,-0.01,1.25,-3.72,2.81,-7.51,911.75,35.85
4180703,-0.0,-0.02,1.24,-3.42,3.36,-7.57,911.68,35.85
4180741,0.02,-0.01,1.25,-3.54,3.05,-7.32,911.6,35.85
4180779,0.0,-0.01,1.22,-3.42,2.56,-7.75,911.7,35.85
4180817,-0.0,-0.01,1.2,-3.54,2.44,-7.57,911.66,35.86
4180855,0.0,-0.01,1.22,-3.66,2.81,-7.75,911.6,35.85
4180893,0.01,-0.01,1.24,-3.72,2.62,-7.69,911.55,35.85
4180932,0.01,-0.01,1.21,-3.78,2.14,-7.81,911.55,35.84
4181007,0.0,-0.02,1.21,-3.54,2.62,-8.06,911.61,35.82
4181045,0.01,-0.01,1.22,-3.72,1.65,-8.06,911.57,35.82
4181083,0.0,-0.0,1.21,-3.78,1.89,-8.0,911.65,35.84
4181173,0.0,-0.01,1.23,-3.54,2.5,-8.36,911.66,35.82
4181211,-0.0,-0.0,1.24,-3.78,2.56,-8.24,911.59,35.83
4181249,-0.01,-0.0,1.26,-3.6,2.75,-8.42,911.55,35.84
4181287,0.0,-0.01,1.26,-3.66,3.23,-8.36,911.6,35.83
4181325,-0.0,-0.01,1.29,-3.54,2.75,-8.67,911.59,35.83
4181363,0.0,-0.0,1.31,-3.66,3.23,-8.54,911.57,35.83
4181413,-0.01,-0.0,1.29,-3.05,3.42,-8.42,911.56,35.83
4181451,-0.01,0.0,1.29,-3.36,3.23,-8.54,911.62,35.83
4181489,-0.01,-0.0,1.28,-3.11,3.23,-8.67,911.6,35.83
4181527,-0.0,-0.01,1.28,-2.99,3.48,-8.61,911.59,35.83
4181565,-0.0,-0.01,1.28,-2.87,3.72,-8.67,911.63,35.85
4181603,0.01,-0.02,1.24,-2.87,3.23,-8.67,911.57,35.82
4181641,0.01,-0.02,1.27,-2.5,3.05,-8.73,911.62,35.83
4181679,-0.02,-0.05,1.14,-2.62,5.07,-9.16,911.62,35.85
4181717,-0.01,-0.03,1.17,-2.5,4.52,-9.03,911.66,35.84
4181767,0.02,-0.04,1.15,-2.62,5.43,-9.58,911.59,35.82
4181805,-0.02,-0.03,1.17,-2.99,3.78,-9.09,911.61,35.82
4181843,-0.0,-0.03,1.18,-2.87,5.55,-9.16,911.58,35.83
4181881,0.03,-0.04,1.14,-3.54,4.27,-9.4,911.51,35.82
4181919,-0.01,-0.02,1.18,-4.33,2.5,-8.85,911.5,35.83
4181957,-0.02,-0.02,1.18,-3.97,1.59,-8.67,911.54,35.83
4181995,0.02,-0.03,1.22,-4.21,2.32,-9.16,911.45,35.85
4182033,0.01,-0.01,1.26,-4.52,2.44,-8.85,911.48,35.85
4182071,-0.02,-0.03,1.22,-4.33,2.14,-8.73,911.52,35.84
4182109,-0.02,-0.03,1.2,-4.39,1.77,-9.16,911.53,35.84
4182159,-0.0,-0.02,1.28,-4.33,2.38,-9.34,911.53,35.83
4182197,0.01,-0.04,1.21,-4.46,2.2,-9.22,911.48,35.85
4182235,0.0,-0.02,1.2,-4.33,2.69,-9.28,911.55,35.85
4182273,0.0,-0.02,1.2,-4.39,4.46,-9.64,911.49,35.84
4182311,0.01,-0.03,1.21,-4.46,3.54,-9.46,911.52,35.84
4182349,0.0,-0.03,1.21,-4.64,3.36,-9.52,911.49,35.84
4182387,-0.0,-0.03,1.2,-4.7,3.36,-9.77,911.48,35.85
4182425,-0.01,-0.02,1.24,-4.7,3.36,-9.52,911.46,35.85
4182463,0.01,-0.02,1.22,-4.76,2.87,-9.52,911.54,35.86
4182513,-0.02,-0.03,1.24,-4.82,3.48,-9.58,911.46,35.83
4182551,0.0,-0.02,1.27,-4.94,3.11,-9.34,911.44,35.84
4182589,-0.01,-0.01,1.29,-4.88,2.69,-9.34,911.48,35.86
4182627,-0.02,-0.02,1.24,-4.88,2.81,-9.22,911.47,35.87
4182665,-0.02,-0.01,1.28,-5.25,2.38,-9.16,911.39,35.83
4182703,-0.02,-0.02,1.25,-5.13,3.05,-9.16,911.46,35.84
4182741,-0.02,-0.02,1.28,-5.25,3.11,-9.03,911.5,35.86
4182779,-0.01,-0.01,1.29,-5.13,3.48,-9.22,911.47,35.84
4182817,-0.01,-0.01,1.3,-5.07,3.72,-9.09,911.47,35.83
4182855,-0.02,-0.02,1.31,-5.0,4.27,-9.09,911.51,35.84
4182905,-0.02,-0.01,1.27,-4.82,4.64,-9.16,911.44,35.84
4182943,-0.02,0.0,1.3,-4.82,4.21,-8.91,911.46,35.84
4182981,-0.03,-0.01,1.28,-4.76,4.39,-8.73,911.4,35.84
4183020,-0.03,-0.0,1.33,-4.94,4.03,-8.67,911.4,35.84
4183058,-0.03,-0.0,1.34,-4.94,4.03,-8.36,911.36,35.83
4183096,-0.03,-0.0,1.33,-4.88,4.15,-8.24,911.4,35.83
4183134,-0.01,0.0,1.34,-4.64,5.19,-8.3,911.36,35.83
4183172,-0.0,-0.01,1.33,-4.46,6.16,-8.12,911.4,35.82
4183210,-0.01,0.0,1.33,-4.27,5.92,-8.06,911.39,35.83
4183260,-0.02,0.0,1.37,-3.78,7.2,-8.3,911.36,35.82
4183298,-0.02,-0.0,1.33,-3.6,6.96,-8.18,911.38,35.83
4183336,-0.01,0.01,1.4,-3.42,5.86,-7.93,911.31,35.83
4183374,-0.0,-0.02,1.34,-3.48,6.84,-7.81,911.32,35.82
4183412,-0.01,0.0,1.36,-3.6,6.29,-7.63,911.41,35.84
4183450,-0.01,-0.0,1.36,-3.23,6.1,-7.63,911.32,35.83
4183488,-0.0,-0.02,1.3,-3.05,5.8,-7.63,911.36,35.84
4183526,-0.03,-0.01,1.31,-2.99,5.92,-7.51,911.36,35.84
4183564,-0.03,-0.02,1.26,-2.69,6.29,-7.63,911.35,35.83
4183614,-0.01,-0.01,1.22,-2.93,5.8,-7.87,911.31,35.83
4183652,-0.01,-0.02,1.21,-3.05,5.49,-7.81,911.3,35.82
4183690,0.0,-0.03,1.22,-3.42,5.68,-7.63,911.26,35.82
4183728,0.0,-0.03,1.2,-3.66,5.8,-7.69,911.31,35.84
4183766,-0.02,-0.01,1.22,-3.6,4.58,-7.63,911.29,35.84
4183805,-0.02,-0.04,1.23,-3.42,5.13,-7.63,911.3,35.83
4183843,-0.0,-0.04,1.22,-3.54,4.58,-7.63,911.25,35.83
4183881,-0.0,-0.03,1.23,-3.78,4.58,-7.57,911.29,35.84
4183919,0.0,-0.03,1.19,-3.66,4.27,-7.81,911.24,35.82
4183957,-0.0,-0.02,1.21,-3.85,3.6,-7.57,911.28,35.83
4184033,0.0,-0.04,1.19,-4.21,3.91,-7.81,911.22,35.81
4184071,-0.02,-0.02,1.23,-4.39,3.54,-7.69,911.16,35.81
4184109,-0.0,-0.03,1.22,-4.46,3.91,-7.81,911.21,35.82
4184198,-0.01,-0.03,1.24,-4.46,3.36,-7.57,911.19,35.79
4184236,-0.01,-0.03,1.23,-4.58,3.36,-7.75,911.23,35.8
4184275,0.0,-0.02,1.26,-4.58,2.99,-7.87,911.21,35.82
4184313,-0.01,-0.02,1.25,-4.39,2.08,-7.69,911.13,35.8
4184351,0.0,-0.02,1.26,-4.58,1.77,-7.69,911.08,35.79
4184389,-0.0,-0.02,1.24,-4.52,2.2,-7.93,911.1,35.81
4184439,0.01,-0.01,1.27,-4.46,2.01,-7.87,911.06,35.79
4184477,-0.0,-0.01,1.27,-4.46,1.65,-7.93,911.09,35.81
4184515,-0.01,-0.02,1.27,-4.09,2.5,-8.12,911.11,35.8
4184553,-0.02,-0.02,1.27,-3.91,2.93,-8.24,911.05,35.8
4184591,0.01,-0.02,1.26,-3.3,3.48,-8.36,911.07,35.82
4184629,-0.0,-0.01,1.29,-3.23,4.33,-8.36,911.13,35.82
4184667,-0.0,-0.02,1.21,-2.93,5.8,-8.36,911.1,35.82
4184705,-0.01,-0.02,1.23,-2.75,5.86,-8.54,911.1,35.82
4184743,-0.01,-0.04,1.16,-2.5,7.32,-8.73,911.09,35.81
4184793,0.0,-0.03,1.15,-2.75,7.32,-8.85,911.04,35.8
4184831,-0.01,-0.04,1.09,-2.75,7.87,-8.97,911.08,35.81
4184869,-0.01,-0.04,1.05,-3.11,7.39,-8.97,911.12,35.8
4184907,-0.02,-0.04,1.06,-2.99,7.51,-8.91,911.1,35.81
4184945,-0.02,-0.04,1.03,-3.3,6.96,-9.03,911.07,35.81
4184983,-0.03,-0.04,1.05,-3.54,6.59,-8.85,911.01,35.8
4185021,-0.01,-0.04,1.05,-4.03,6.59,-8.73,911.04,35.81
4185060,-0.01,-0.04,1.06,-4.33,5.25,-8.73,911.04,35.81
4185098,-0.02,-0.04,1.06,-4.7,4.76,-8.54,910.94,35.8
4185136,-0.02,-0.04,1.05,-5.07,3.85,-8.24,910.99,35.8
4185185,-0.03,-0.04,1.06,-5.0,3.42,-8.24,911.02,35.8
4185223,-0.02,-0.04,1.07,-5.13,2.44,-8.12,910.99,35.8
4185262,-0.02,-0.04,1.11,-5.19,1.89,-7.93,910.93,35.8
4185300,-0.02,-0.04,1.07,-5.43,2.38,-7.87,911.0,35.81
4185338,-0.02,-0.04,1.08,-5.31,1.71,-7.87,910.96,35.8
4185376,-0.03,-0.04,1.09,-5.19,2.08,-7.87,910.91,35.8
4185414,-0.03,-0.04,1.07,-5.13,1.95,-7.75,911.07,35.82
4185452,-0.03,-0.04,1.06,-4.94,2.14,-7.81,910.98,35.79
4185490,-0.03,-0.04,1.05,-4.94,2.32,-8.0,911.01,35.8
4185540,-0.02,-0.03,1.05,-5.13,2.99,-7.81,910.92,35.78
4185578,-0.02,-0.04,1.06,-5.19,4.21,-7.81,910.9,35.79
4185616,-0.03,-0.04,1.08,-5.49,3.23,-7.63,910.97,35.8
4185654,-0.04,-0.02,1.11,-5.25,2.01,-7.57,910.92,35.8
4185692,-0.04,-0.03,1.08,-5.31,3.23,-7.26,910.89,35.81
4185730,-0.03,-0.02,1.17,-5.13,3.3,-7.26,910.95,35.81
4185768,-0.02,-0.05,1.09,-4.88,4.76,-7.45,910.91,35.81
4185806,-0.01,-0.02,1.1,-4.76,4.09,-7.2,910.96,35.81
4185844,-0.01,-0.03,1.12,-4.58,5.49,-7.45,910.86,35.8
4185894,-0.01,-0.02,1.09,-4.88,6.59,-7.87,910.89,35.8
4185932,-0.02,-0.01,1.11,-4.76,7.93,-7.75,910.82,35.8
4185970,-0.0,-0.03,1.13,-5.07,8.97,-8.06,910.84,35.81
4186008,-0.02,-0.02,1.16,-5.13,8.91,-8.3,910.86,35.8
4186046,-0.04,-0.01,1.22,-5.07,9.77,-8.18,910.75,35.79
4186084,-0.01,0.0,1.26,-5.07,9.28,-8.06,910.82,35.81
4186122,-0.01,0.02,1.32,-4.76,9.16,-8.12,910.78,35.8
4186160,-0.02,0.03,1.38,-4.39,7.93,-7.81,910.77,35.8
4186198,-0.03,0.02,1.39,-3.54,7.32,-7.45,910.77,35.78
4186236,-0.02,0.03,1.42,-2.81,6.04,-7.39,910.75,35.8
4186286,-0.01,0.04,1.42,-2.01,4.88,-6.84,910.79,35.79
4186324,-0.03,0.03,1.36,-1.95,3.85,-6.71,910.78,35.8
4186362,-0.03,0.02,1.4,-1.59,3.48,-6.53,910.71,35.79
4186400,0.0,0.01,1.35,-1.59,4.33,-6.23,910.69,35.8
4186438,-0.02,0.03,1.37,-1.53,2.5,-6.04,910.74,35.78
4186476,-0.05,0.03,1.32,-1.28,2.08,-5.86,910.7,35.8
4186514,-0.02,0.03,1.36,-1.28,1.53,-5.74,910.7,35.79
4186552,-0.02,0.02,1.37,-1.34,2.08,-5.49,910.81,35.79
4186590,-0.03,0.0,1.32,-1.22,1.95,-5.19,910.75,35.79
4186640,-0.03,-0.0,1.33,-1.04,2.5,-5.25,910.77,35.79
4186678,-0.02,0.01,1.26,-1.1,1.77,-5.19,910.81,35.79
4186716,-0.02,0.02,1.27,-1.04,1.22,-4.82,910.8,35.8
4186754,-0.02,-0.01,1.21,-1.34,1.28,-4.82,910.75,35.79
4186792,-0.01,0.01,1.34,-1.46,-1.1,-4.52,910.75,35.8
4186830,-0.01,-0.01,1.28,-1.53,-0.85,-4.15,910.75,35.8
4186868,-0.01,-0.0,1.27,-1.95,-1.95,-3.91,910.77,35.8
4186906,-0.01,-0.02,1.29,-1.95,-1.34,-3.97,910.73,35.79
4186944,-0.01,-0.04,1.17,-2.32,-1.65,-4.03,910.76,35.82
4186982,-0.02,-0.02,1.19,-2.44,-2.32,-4.09,910.8,35.8
4187058,0.0,-0.03,1.09,-2.56,-0.73,-4.46,910.78,35.79
4187096,-0.0,-0.04,1.08,-2.81,-0.61,-4.33,910.72,35.79
4187134,-0.02,-0.05,1.07,-2.5,-0.37,-4.46,910.68,35.8
4187223,-0.02,-0.02,1.14,-2.62,2.69,-4.64,910.73,35.78
4187261,-0.01,-0.04,1.13,-2.75,3.66,-4.64,910.72,35.77
4187299,-0.02,-0.04,1.11,-2.69,3.97,-4.7,910.76,35.78
4187337,-0.01,-0.03,1.15,-2.81,5.98,-4.64,910.7,35.77
4187376,0.01,-0.05,1.11,-2.99,5.55,-4.64,910.73,35.8
4187414,-0.03,-0.03,1.14,-2.99,6.04,-4.82,910.75,35.78
4187463,-0.02,-0.03,1.12,-2.81,7.02,-4.76,910.68,35.78
4187501,0.01,-0.04,1.2,-3.23,7.26,-4.76,910.63,35.79
4187539,-0.0,-0.03,1.17,-3.42,6.84,-4.76,910.71,35.8
4187577,-0.01,-0.01,1.26,-3.3,5.86,-4.52,910.63,35.79
4187615,0.03,-0.02,1.26,-3.42,6.9,-4.64,910.6,35.79
4187654,-0.0,-0.01,1.33,-4.03,5.31,-4.58,910.58,35.79
4187691,-0.01,-0.0,1.42,-3.78,4.88,-4.64,910.54,35.8
4187729,0.01,0.0,1.4,-4.39,4.7,-4.52,910.55,35.79
4187767,0.04,0.05,1.56,-4.82,2.81,-4.39,910.48,35.79
4187817,0.01,0.01,1.52,-4.03,1.28,-4.21,910.52,35.79
4187855,-0.01,-0.07,1.34,-4.03,5.55,-4.46,910.54,35.79
4187893,0.01,-0.08,1.1,-3.3,6.1,-4.82,910.6,35.79
4187931,0.05,-0.08,1.01,-2.69,4.46,-5.0,910.67,35.78
4187969,0.05,-0.07,0.64,-3.23,4.03,-5.0,910.58,35.78
4188007,0.01,0.01,0.82,-1.83,-0.06,-5.19,910.6,35.79
4188046,0.05,-0.09,0.71,-1.95,3.66,-5.55,910.52,35.81
4188084,0.03,-0.12,0.78,-3.17,-0.79,-5.55,910.56,35.8
4188122,-0.04,-0.07,1.05,-2.81,-0.37,-5.37,910.55,35.8
4188160,-0.04,-0.08,0.89,-4.27,-0.31,-5.74,910.57,35.8
4188209,0.01,-0.01,1.26,-4.82,-0.37,-6.47,910.58,35.79
4188247,0.05,-0.05,1.13,-5.25,-0.18,-6.53,910.55,35.79
4188285,-0.01,-0.03,1.23,-4.94,0.85,-6.29,910.56,35.79
4188324,-0.02,-0.04,1.15,-4.94,2.75,-6.41,910.6,35.8
4188362,-0.01,-0.01,1.3,-4.58,0.98,-6.59,910.55,35.78
4188400,-0.04,-0.02,1.28,-4.64,3.05,-6.47,910.53,35.8
4188438,-0.04,-0.04,1.3,-4.82,2.81,-6.65,910.52,35.8
4188476,-0.04,-0.02,1.37,-4.21,4.7,-6.77,910.51,35.8
4188514,-0.0,-0.01,1.31,-4.15,3.66,-6.35,910.49,35.79
4188564,-0.02,0.01,1.34,-3.85,4.39,-6.23,910.51,35.79
4188602,-0.08,-0.02,1.27,-3.6,4.7,-5.98,910.44,35.79
4188640,-0.05,-0.03,1.33,-3.36,4.03,-5.98,910.44,35.79
4188678,-0.03,-0.02,1.31,-3.36,3.17,-5.92,910.42,35.8
4188716,-0.04,0.0,1.32,-3.36,1.83,-5.55,910.36,35.8
4188754,-0.03,-0.01,1.3,-2.93,2.32,-5.49,910.36,35.79
4188792,-0.03,-0.03,1.27,-2.99,0.37,-5.49,910.36,35.8
4188830,-0.05,-0.02,1.29,-2.93,-1.34,-5.0,910.34,35.79
4188868,-0.07,-0.02,1.23,-2.69,-1.34,-4.94,910.34,35.8
4188918,-0.03,-0.01,1.3,-2.32,-1.4,-5.07,910.26,35.8
4188956,-0.04,-0.01,1.3,-2.26,-3.11,-4.82,910.24,35.8
4188994,-0.06,-0.01,1.4,-2.32,-4.82,-4.52,910.22,35.79
4189032,-0.05,-0.03,1.35,-2.44,-3.05,-4.52,910.2,35.79
4189070,-0.06,-0.01,1.37,-2.62,-3.72,-4.82,910.29,35.81
4189108,-0.04,-0.01,1.36,-2.5,-2.81,-4.58,910.28,35.81
4189146,-0.04,-0.04,1.29,-2.08,-2.99,-4.82,910.25,35.81
4189185,-0.06,-0.03,1.28,-1.65,-2.81,-4.64,910.22,35.8
4189223,-0.05,-0.03,1.22,-1.71,-3.17,-4.46,910.21,35.81
4189272,-0.06,-0.04,1.22,-1.65,-4.15,-4.52,910.17,35.79
4189311,-0.05,-0.05,1.22,-1.53,-4.58,-4.39,910.19,35.81
4189349,-0.05,-0.04,1.32,-1.53,-4.58,-4.15,910.14,35.8
4189387,-0.04,-0.04,1.28,-1.65,-4.09,-4.21,910.19,35.81
4189425,-0.06,-0.01,1.34,-1.46,-2.75,-4.46,910.19,35.8
4189463,-0.05,-0.04,1.31,-1.28,-1.46,-4.39,910.23,35.81
4189501,-0.04,-0.06,1.37,-1.16,-1.16,-4.39,910.24,35.8
4189539,-0.03,-0.06,1.3,-0.67,0.12,-4.58,910.29,35.82
4189577,-0.02,-0.04,1.24,-0.55,0.31,-4.64,910.3,35.8
4189615,-0.02,-0.03,1.16,0.0,2.5,-4.64,910.33,35.8
4189665,-0.02,-0.07,1.19,0.43,1.89,-4.58,910.3,35.8
4189703,-0.03,-0.1,1.13,0.49,2.44,-4.64,910.26,35.78
4189741,-0.03,-0.07,1.09,0.49,2.81,-4.64,910.27,35.8
4189779,-0.01,-0.05,1.13,0.12,3.6,-4.58,910.26,35.78
4189817,-0.0,-0.06,1.09,-0.12,3.42,-4.76,910.26,35.79
4189855,-0.02,-0.07,1.05,0.0,4.39,-4.76,910.24,35.79
4189893,-0.03,-0.08,1.07,-0.06,5.19,-4.7,910.21,35.8
4189931,-0.01,-0.08,1.05,-0.31,5.74,-4.88,910.16,35.8
4189969,-0.03,-0.05,1.06,-0.73,6.84,-4.82,910.2,35.79
4190045,0.0,-0.08,1.1,-0.61,8.18,-5.0,910.14,35.76
4190083,0.0,-0.09,1.06,-0.73,7.75,-4.88,910.15,35.79
4190121,-0.01,-0.07,1.06,-0.79,7.45,-4.7,910.17,35.79
4190210,-0.0,-0.06,1.0,-0.73,5.43,-4.58,910.08,35.76
4190249,-0.0,-0.08,0.99,-0.92,5.31,-4.33,910.09,35.78
4190287,-0.0,-0.08,0.99,-1.04,4.39,-4.46,910.07,35.78
4190325,-0.01,-0.07,1.02,-0.92,3.48,-4.39,910.04,35.78
4190363,0.01,-0.07,1.02,-0.79,2.62,-4.39,910.0,35.8
4190401,-0.0,-0.08,0.99,-0.73,3.05,-4.52,909.98,35.79
4190451,0.01,-0.08,1.02,-0.73,3.05,-4.58,909.99,35.77
4190489,0.02,-0.08,1.01,-0.98,3.11,-4.76,909.99,35.79
4190527,0.01,-0.06,1.02,-1.34,2.87,-4.76,909.91,35.77
4190565,-0.0,-0.07,1.07,-1.53,4.15,-4.76,909.97,35.78
4190603,-0.01,-0.07,1.08,-1.59,4.27,-4.94,909.96,35.78
4190641,-0.0,-0.05,1.19,-1.46,3.97,-5.0,909.98,35.79
4190679,-0.0,-0.07,1.16,-1.34,4.76,-5.07,909.97,35.78
4190717,-0.03,-0.06,1.14,-1.28,5.43,-5.0,909.96,35.78
4190755,-0.01,-0.06,1.13,-0.92,6.84,-4.88,909.93,35.79
4190793,-0.0,-0.07,1.08,-0.73,7.08,-4.94,909.89,35.81
4190843,-0.02,-0.06,1.06,-0.37,8.79,-4.82,909.9,35.79
4190881,-0.0,-0.07,1.03,-0.18,9.89,-4.94,909.9,35.78
4190919,-0.01,-0.07,1.01,-0.18,10.68,-4.88,909.86,35.8
4190957,-0.02,-0.06,1.04,-0.12,11.66,-4.88,909.87,35.78
4190995,-0.0,-0.08,1.04,-0.12,12.57,-4.88,909.84,35.79
4191033,0.01,-0.08,1.03,0.0,12.88,-4.82,909.84,35.8
4191071,-0.0,-0.07,0.99,-0.18,12.94,-4.7,909.8,35.78
4191109,0.02,-0.08,0.95,-0.24,14.53,-4.88,909.8,35.79
4191147,0.0,-0.07,0.96,-0.37,13.92,-5.0,909.81,35.8
4191197,-0.01,-0.08,0.84,-0.79,14.28,-4.7,909.72,35.78
4191235,-0.01,-0.08,0.91,-0.85,14.71,-4.82,909.8,35.8
4191273,0.02,-0.09,0.81,-1.16,15.5,-5.07,909.71,35.79
4191311,-0.01,-0.07,0.88,-1.04,14.95,-5.13,909.69,35.8
4191349,0.0,-0.08,0.87,-1.22,16.17,-4.94,909.69,35.79
4191387,0.01,-0.07,0.92,-1.77,15.99,-5.13,909.66,35.79
4191425,0.01,-0.05,1.02,-1.71,15.81,-5.07,909.69,35.81
4191463,-0.04,-0.07,0.97,-1.46,17.46,-5.07,909.72,35.78
4191502,-0.02,-0.08,0.98,-2.2,16.3,-4.82,909.63,35.78
4191551,0.01,-0.06,1.03,-2.26,15.99,-5.13,909.64,35.78
4191589,-0.01,-0.07,0.99,-3.11,16.48,-4.88,909.65,35.78
4191627,-0.02,-0.07,1.0,-3.36,16.91,-4.7,909.65,35.78
4191665,0.02,-0.07,1.02,-3.72,16.17,-4.88,909.62,35.78
4191704,0.03,-0.06,1.04,-4.46,16.66,-5.0,909.61,35.78
4191742,-0.01,-0.06,1.04,-4.7,17.15,-4.64,909.59,35.79
4191780,0.02,-0.06,1.08,-4.82,15.38,-4.82,909.58,35.79
4191818,0.02,-0.05,1.15,-4.94,13.37,-4.88,909.56,35.79
4191856,0.03,-0.05,1.17,-5.13,10.31,-4.52,909.56,35.78
4191906,0.01,-0.05,1.18,-4.76,10.44,-4.58,909.61,35.78
4191944,-0.01,-0.05,1.16,-4.88,8.61,-4.58,909.54,35.78
4191982,0.01,-0.03,1.17,-5.31,7.32,-4.52,909.5,35.77
4192020,-0.01,-0.04,1.19,-5.31,6.35,-4.39,909.49,35.76
4192058,0.03,-0.05,1.2,-5.19,5.25,-4.64,909.56,35.78
4192096,0.02,-0.03,1.19,-5.25,5.68,-4.7,909.49,35.78
4192134,-0.01,-0.04,1.24,-4.76,5.25,-4.64,909.49,35.77
4192172,0.02,-0.06,1.11,-4.82,5.37,-4.76,909.44,35.78
4192210,-0.0,-0.01,1.22,-5.0,2.75,-4.82,909.49,35.77
4192248,0.01,-0.05,1.14,-5.25,3.42,-4.76,909.48,35.76
4192298,-0.01,-0.01,1.17,-5.68,0.98,-4.88,909.42,35.77
4192336,0.03,-0.05,1.21,-5.13,3.3,-5.07,909.42,35.76
4192374,0.02,-0.04,1.18,-5.31,1.46,-5.07,909.41,35.77
4192412,0.02,-0.01,1.33,-5.19,0.92,-4.76,909.4,35.76
4192450,0.02,-0.05,1.15,-5.13,1.46,-4.76,909.42,35.76
4192488,0.0,-0.0,1.32,-5.43,-0.06,-5.0,909.37,35.76
4192526,0.01,-0.03,1.2,-5.25,1.83,-4.94,909.37,35.77
4192564,0.02,-0.04,1.25,-4.82,-0.73,-4.88,909.43,35.78
4192602,0.03,-0.03,1.24,-4.7,0.49,-5.19,909.34,35.77
4192652,0.03,0.0,1.23,-4.03,0.92,-5.55,909.31,35.77
4192690,0.03,-0.03,1.25,-3.3,3.23,-5.86,909.35,35.77
4192728,0.04,-0.05,1.2,-3.3,2.26,-6.1,909.37,35.78
4192766,0.01,-0.03,1.29,-2.87,1.71,-6.41,909.38,35.78
4192804,0.01,-0.04,1.19,-2.38,2.44,-6.59,909.32,35.77
4192843,0.04,-0.01,1.22,-2.08,1.95,-6.84,909.38,35.78
4192881,0.05,-0.02,1.15,-2.08,2.87,-7.08,909.28,35.78
4192919,-0.0,-0.05,1.12,-2.26,2.69,-7.14,909.25,35.78
4192957,0.0,-0.05,1.18,-2.44,4.64,-7.08,909.27,35.78
4192995,0.02,-0.03,1.13,-2.5,3.78,-7.39,909.28,35.77
4193144,-0.01,-0.04,1.16,-2.38,6.41,-7.63,909.25,35.72
4193182,-0.01,-0.02,1.23,-2.75,4.82,-7.2,909.2,35.72
4193221,-0.0,-0.01,1.24,-2.44,6.53,-7.32,909.24,35.72
4193310,0.04,-0.02,1.19,-2.38,6.9,-7.45,909.19,35.7
4193348,0.02,-0.03,1.17,-2.38,6.23,-7.26,909.21,35.72
4193386,0.03,-0.03,1.15,-2.08,6.96,-7.45,909.23,35.73
4193424,0.02,-0.03,1.16,-2.08,6.96,-7.45,909.19,35.74
4193463,0.03,-0.04,1.17,-2.26,5.74,-7.63,909.13,35.75
4193501,0.02,-0.03,1.16,-2.38,5.19,-7.75,909.14,35.74
4193550,0.05,-0.02,1.21,-2.87,5.25,-7.93,909.07,35.73
4193589,0.04,-0.02,1.18,-3.11,5.62,-8.18,909.08,35.74
4193627,0.02,-0.01,1.19,-3.3,5.74,-8.06,909.07,35.74
4193665,0.01,-0.03,1.2,-3.36,6.9,-8.12,909.04,35.74
4193703,0.02,-0.03,1.18,-3.78,6.41,-8.48,909.03,35.75
4193741,0.02,-0.0,1.26,-3.85,5.92,-8.67,909.03,35.74
4193779,0.02,-0.02,1.18,-3.66,6.71,-8.73,909.01,35.74
4193817,0.05,-0.02,1.27,-4.09,6.53,-8.73,909.09,35.76
4193855,0.05,-0.03,1.24,-4.33,7.26,-8.91,909.01,35.75
4193893,0.02,-0.01,1.23,-4.7,6.77,-9.03,909.02,35.76
4193943,0.02,-0.03,1.2,-4.58,7.75,-9.16,909.1,35.75
4193981,0.04,-0.03,1.19,-4.82,6.71,-9.58,909.06,35.75
4194019,0.02,-0.02,1.19,-5.13,7.32,-9.46,908.98,35.74
4194057,0.04,-0.02,1.17,-5.19,7.02,-9.52,909.05,35.76
4194095,0.03,-0.02,1.19,-5.37,7.39,-9.7,909.01,35.76
4194133,0.01,-0.02,1.19,-5.49,7.08,-9.7,909.01,35.76
4194171,-0.0,-0.03,1.21,-5.62,7.32,-9.64,909.06,35.76
4194209,0.03,-0.03,1.21,-5.68,6.65,-9.64,909.02,35.76
4194248,0.02,-0.01,1.24,-5.74,6.23,-10.01,908.99,35.76
4194297,0.02,-0.02,1.17,-6.1,6.47,-9.77,909.04,35.75
4194335,0.02,-0.01,1.23,-6.16,6.1,-10.07,908.97,35.76
4194374,0.02,-0.02,1.21,-6.35,6.77,-10.07,908.97,35.76
4194412,0.01,-0.01,1.25,-6.16,5.98,-10.13,908.96,35.76
4194450,-0.0,-0.02,1.26,-6.29,7.32,-10.07,908.92,35.75
4194488,0.01,-0.02,1.25,-6.53,6.77,-10.13,908.96,35.76
4194526,0.01,-0.01,1.28,-6.65,6.29,-10.01,908.96,35.76
4194564,0.01,-0.02,1.23,-6.84,6.23,-9.95,908.9,35.75
4194602,0.01,-0.02,1.24,-7.08,6.04,-9.83,908.89,35.75
4194652,0.01,-0.02,1.22,-7.32,5.25,-9.64,908.99,35.75
4194690,-0.01,-0.01,1.26,-7.14,4.46,-9.52,908.93,35.74
4194728,0.0,-0.03,1.23,-7.39,4.46,-9.52,908.93,35.75
4194766,0.01,-0.02,1.25,-7.26,2.5,-9.46,908.92,35.74
4194804,-0.0,-0.03,1.22,-7.02,2.75,-9.09,908.88,35.74
4194842,-0.01,-0.04,1.19,-7.02,2.38,-9.09,908.95,35.76
4194880,-0.0,-0.03,1.18,-6.96,2.56,-9.09,908.9,35.75
4194918,0.01,-0.03,1.16,-6.96,1.95,-8.85,908.86,35.75
4194956,-0.01,-0.03,1.15,-7.14,2.01,-8.73,908.9,35.76
4194995,-0.02,-0.04,1.16,-7.26,2.56,-8.85,908.88,35.75
4195044,0.0,-0.04,1.2,-7.57,3.05,-8.91,908.87,35.74
4195082,-0.02,-0.04,1.2,-7.87,3.23,-8.79,908.84,35.74
4195121,-0.02,-0.03,1.29,-7.75,3.05,-8.73,908.83,35.75
4195159,-0.01,-0.04,1.26,-8.0,5.37,-8.73,908.88,35.75
4195197,-0.0,-0.02,1.25,-8.3,3.91,-8.61,908.86,35.75
4195235,-0.02,-0.02,1.31,-7.87,5.74,-8.61,908.83,35.74
4195273,0.03,-0.05,1.24,-8.12,6.9,-8.73,908.81,35.74
4195311,0.01,-0.01,1.37,-8.18,5.86,-8.61,908.82,35.74
4195349,-0.01,-0.03,1.31,-8.0,6.71,-8.42,908.83,35.75
4195399,-0.02,-0.02,1.38,-8.06,6.59,-8.36,908.8,35.73
4195437,0.01,-0.02,1.34,-8.0,8.18,-8.42,908.83,35.74
4195475,0.01,-0.0,1.38,-8.36,6.9,-8.06,908.77,35.74
4195513,0.02,-0.01,1.37,-8.67,8.36,-8.18,908.74,35.73
4195551,-0.01,-0.01,1.41,-8.79,8.0,-8.0,908.82,35.74
4195589,0.01,-0.0,1.45,-8.54,8.12,-8.24,908.79,35.74
4195628,0.01,-0.0,1.42,-8.48,7.39,-8.12,908.78,35.75
4195666,0.0,0.0,1.44,-8.67,7.57,-7.87,908.77,35.74
4195704,0.01,-0.01,1.4,-8.36,8.73,-7.81,908.73,35.75
4195742,0.01,-0.0,1.42,-8.3,7.69,-7.75,908.77,35.76
4195792,0.01,-0.02,1.45,-7.69,8.06,-7.69,908.73,35.73
4195830,0.01,-0.01,1.42,-7.75,7.39,-7.93,908.69,35.74
4195868,0.03,0.01,1.48,-7.69,8.42,-7.87,908.71,35.74
4195906,0.03,-0.02,1.39,-7.75,7.26,-7.87,908.7,35.73
4195944,0.01,-0.01,1.42,-7.81,7.51,-8.06,908.75,35.75
4195982,0.01,-0.03,1.37,-7.75,8.85,-8.06,908.75,35.75
4196020,0.02,-0.01,1.44,-7.51,8.18,-8.48,908.7,35.75
4196058,0.02,-0.0,1.41,-7.39,8.61,-8.67,908.69,35.75
4196096,0.01,0.0,1.43,-7.2,7.51,-8.42,908.7,35.74
4196172,0.02,-0.01,1.5,-7.57,6.9,-8.79,908.71,35.72
4196210,0.0,0.01,1.55,-7.32,7.08,-8.67,908.59,35.71
4196248,0.01,0.01,1.51,-7.63,7.93,-8.85,908.68,35.73
4196338,-0.01,0.01,1.52,-7.45,7.45,-8.79,908.53,35.67
4196376,0.01,0.04,1.59,-7.26,7.2,-8.91,908.53,35.7
4196414,0.0,0.03,1.55,-7.2,7.39,-8.91,908.58,35.71
4196452,-0.0,0.04,1.58,-7.02,5.55,-8.18,908.53,35.72
4196490,-0.0,0.02,1.54,-6.84,5.8,-8.3,908.51,35.71
4196528,-0.01,0.02,1.54,-6.65,4.7,-8.12,908.57,35.72
4196566,0.01,0.01,1.54,-6.41,5.25,-8.36,908.56,35.72
4196616,0.02,0.0,1.41,-6.65,3.48,-8.48,908.52,35.71
4196654,0.01,-0.0,1.4,-6.23,3.85,-8.42,908.48,35.72
4196692,0.03,-0.04,1.27,-6.23,4.88,-8.67,908.49,35.72
4196730,0.01,-0.03,1.28,-6.1,2.93,-8.73,908.37,35.72
4196769,0.02,-0.04,1.18,-6.1,3.36,-9.03,908.42,35.72
4196807,-0.03,-0.04,1.11,-6.29,2.62,-9.03,908.41,35.72
4196845,0.03,-0.04,1.17,-6.77,4.7,-9.34,908.41,35.71
4196883,0.02,-0.04,1.17,-6.9,3.78,-9.83,908.36,35.72
4196921,-0.0,-0.03,1.21,-7.2,4.76,-10.01,908.4,35.73
4196971,0.02,-0.03,1.2,-7.81,5.68,-10.31,908.43,35.71
4197009,0.0,-0.03,1.22,-8.18,6.41,-10.8,908.41,35.72
4197047,0.0,-0.05,1.16,-8.48,5.92,-10.62,908.4,35.72
4197085,0.01,-0.05,1.14,-8.42,4.15,-10.56,908.41,35.73
4197123,0.01,-0.04,1.09,-8.42,4.58,-10.93,908.35,35.72
4197161,0.01,-0.01,1.12,-8.79,4.46,-10.86,908.36,35.73
4197200,-0.0,-0.01,1.18,-8.73,5.62,-10.8,908.32,35.72
4197238,-0.01,-0.03,1.22,-8.61,5.55,-11.11,908.32,35.72
4197276,-0.02,-0.01,1.34,-8.85,6.41,-11.29,908.28,35.72
4197325,-0.02,0.01,1.42,-8.36,7.63,-11.35,908.3,35.72
4197364,-0.01,0.02,1.46,-8.42,7.63,-11.41,908.32,35.72
4197402,-0.01,0.04,1.48,-8.36,9.16,-11.66,908.28,35.74
4197440,-0.01,0.03,1.51,-7.93,9.4,-11.54,908.27,35.74
4197478,-0.03,0.03,1.47,-7.69,10.19,-11.47,908.21,35.74
4197516,-0.02,0.05,1.51,-7.32,10.25,-11.41,908.2,35.74
4197554,-0.02,0.05,1.52,-7.02,11.47,-11.54,908.16,35.74
4197592,-0.02,0.05,1.54,-6.59,10.74,-11.11,908.17,35.74
4197630,-0.02,0.04,1.55,-6.29,11.35,-11.11,908.13,35.74
4197668,0.0,0.05,1.56,-5.92,10.19,-11.05,908.13,35.76
4197718,-0.03,0.06,1.54,-5.49,10.5,-10.68,908.07,35.74
4197756,-0.0,0.05,1.52,-5.31,9.89,-10.68,907.99,35.75
4197794,-0.03,0.06,1.56,-5.37,9.52,-10.8,908.02,35.75
4197832,-0.04,0.04,1.53,-5.55,8.61,-10.38,908.01,35.75
4197871,-0.03,0.05,1.56,-5.68,8.18,-10.13,907.92,35.78
4197909,-0.02,0.05,1.51,-6.16,9.52,-10.25,907.92,35.76
4197947,-0.02,0.05,1.54,-6.29,8.48,-10.01,907.93,35.76
4197985,-0.03,0.04,1.51,-6.23,8.54,-9.89,907.87,35.76
4198023,-0.05,0.03,1.47,-6.53,8.12,-9.52,907.94,35.76
4198073,-0.03,0.04,1.48,-7.02,7.81,-9.58,907.89,35.75
4198111,-0.04,0.03,1.46,-7.08,7.26,-9.22,907.98,35.76
4198149,-0.03,0.01,1.43,-7.32,5.8,-9.09,907.91,35.75
4198187,-0.0,0.01,1.41,-7.39,5.07,-8.91,907.92,35.74
4198225,-0.03,0.02,1.38,-7.69,4.52,-8.97,907.9,35.75
4198263,-0.03,0.01,1.38,-8.12,4.03,-8.54,907.9,35.74
4198301,-0.04,0.01,1.36,-8.54,3.23,-8.3,907.91,35.76
4198340,-0.04,0.01,1.39,-9.16,1.89,-8.24,907.9,35.77
4198378,-0.03,-0.0,1.35,-9.64,2.08,-8.18,907.87,35.75
4198427,-0.02,0.01,1.37,-10.25,1.04,-8.12,907.86,35.73
4198466,-0.02,0.0,1.37,-10.56,0.92,-8.06,907.82,35.74
4198504,-0.02,0.01,1.39,-10.68,0.12,-8.06,907.85,35.74
4198542,-0.04,0.01,1.41,-10.74,0.67,-8.12,907.86,35.75
4198580,-0.03,0.0,1.4,-10.74,-0.12,-8.12,907.85,35.74
4198618,-0.04,0.02,1.45,-10.56,0.06,-8.18,907.89,35.74
4198656,-0.03,0.01,1.44,-10.13,0.0,-8.18,907.87,35.73
4198694,-0.03,0.02,1.46,-10.13,0.12,-8.18,907.83,35.73
4198732,-0.04,0.01,1.43,-9.95,0.18,-8.06,907.83,35.74
4198770,-0.03,0.01,1.45,-9.7,0.43,-8.06,907.79,35.74
4198820,-0.04,0.02,1.41,-9.58,0.92,-7.81,907.82,35.73
4198858,-0.03,0.01,1.44,-9.4,0.06,-7.63,907.79,35.74
4198896,-0.03,0.0,1.4,-9.28,-0.12,-7.57,907.85,35.74
4198934,-0.03,0.0,1.38,-9.28,-0.06,-7.63,907.8,35.72
4198973,-0.03,0.01,1.4,-8.97,0.0,-7.51,907.79,35.74
4199011,-0.03,0.01,1.36,-8.79,0.79,-7.45,907.76,35.74
4199049,-0.03,0.02,1.42,-8.54,0.73,-7.57,907.76,35.75
4199087,-0.03,-0.01,1.38,-8.24,2.44,-7.57,907.75,35.76
4199125,-0.02,-0.0,1.43,-8.18,2.93,-7.87,907.82,35.75
4199201,-0.01,0.01,1.37,-7.75,4.33,-7.75,907.76,35.72
4199239,-0.02,0.01,1.38,-7.87,4.76,-7.75,907.73,35.72
4199277,-0.02,-0.02,1.33,-8.0,4.46,-7.75,907.74,35.73
4199366,-0.01,-0.01,1.35,-8.0,3.91,-7.63,907.67,35.7
4199405,-0.01,0.01,1.37,-8.12,3.48,-7.69,907.65,35.71
