timestamp,acc_x,acc_y,acc_z,rot_x,rot_y,rot_z,qfe,temp,Unnamed: 10
4187521,-0.04,-0.04,0.96,2.14,3.97,3.72,905.39,23.29,
4187560,-0.05,-0.04,0.97,1.95,3.36,4.21,905.35,23.28,
4187598,-0.04,-0.04,0.95,1.95,3.36,4.21,905.38,23.28,
4187648,-0.03,-0.03,0.96,1.71,2.75,4.46,905.42,23.28,
4187686,-0.03,-0.04,0.98,1.53,2.81,4.64,905.32,23.28,
4187724,-0.03,-0.04,1.01,1.53,2.5,4.76,905.34,23.28,
4187763,-0.04,-0.04,1.05,1.34,3.05,4.82,905.36,23.29,
4187801,-0.03,-0.03,1.08,1.1,2.44,4.94,905.35,23.29,
4187839,-0.04,-0.03,1.1,1.16,2.87,4.76,905.38,23.28,
4187877,-0.03,-0.03,1.08,0.92,3.3,4.76,905.33,23.28,
4187916,-0.02,-0.02,1.12,0.73,3.3,4.82,905.33,23.28,
4187954,-0.02,-0.03,1.07,0.67,4.15,5.0,905.36,23.28,
4188004,-0.03,-0.03,1.07,0.79,3.3,4.94,905.38,23.27,
4188042,-0.02,-0.04,1.06,0.98,3.85,4.94,905.39,23.27,
4188080,-0.01,-0.04,1.03,0.98,3.6,5.0,905.39,23.28,
4188119,-0.02,-0.03,1.06,1.4,3.36,5.0,905.38,23.29,
4188157,-0.02,-0.05,1.01,1.53,3.11,5.0,905.42,23.29,
4188195,-0.01,-0.04,1.03,1.71,2.5,5.0,905.39,23.28,
4188233,-0.02,-0.04,0.99,1.34,2.99,5.0,905.38,23.28,
4188272,-0.03,-0.04,0.99,1.59,2.75,5.07,905.39,23.28,
4188310,-0.02,-0.04,0.98,1.16,3.11,5.13,905.35,23.29,
4188348,-0.01,-0.04,0.98,1.16,3.11,5.0,905.45,23.29,
4188398,-0.01,-0.05,0.98,0.98,2.81,4.94,905.41,23.28,
4188436,-0.02,-0.05,0.97,1.04,2.62,4.88,905.36,23.28,
4188475,-0.01,-0.05,0.97,0.92,2.44,5.13,905.36,23.28,
4188513,-0.01,-0.05,0.95,0.79,2.08,4.94,905.36,23.28,
4188551,-0.0,-0.04,0.96,0.92,0.92,5.0,905.34,23.29,
4188589,-0.01,-0.05,0.95,0.85,1.22,5.07,905.4,23.29,
4188627,-0.0,-0.04,0.98,0.79,0.67,4.94,905.42,23.28,
4188666,-0.0,-0.05,1.0,0.67,0.79,4.94,905.35,23.28,
4188704,-0.01,-0.04,0.99,0.67,0.61,4.76,905.37,23.29,
4188742,-0.0,-0.04,1.0,0.37,0.85,4.64,905.33,23.28,
4188792,-0.01,-0.04,1.03,-0.06,1.1,4.58,905.39,23.28,
4188830,-0.0,-0.04,1.04,0.06,1.53,4.64,905.37,23.28,
4188868,-0.0,-0.04,1.07,-0.06,0.92,4.39,905.34,23.28,
4188907,-0.01,-0.04,1.07,0.0,1.28,4.15,905.4,23.28,
4188945,-0.01,-0.05,1.05,0.43,1.22,4.09,905.4,23.29,
4188983,-0.01,-0.04,1.04,0.37,1.46,3.97,905.37,23.28,
4189021,-0.01,-0.04,1.03,0.43,1.59,4.03,905.41,23.28,
4189059,-0.02,-0.04,1.01,0.49,1.71,3.78,905.38,23.29,
4189098,-0.01,-0.04,1.03,0.61,2.08,3.54,905.33,23.29,
4189174,0.0,-0.04,1.05,0.49,2.14,3.85,905.34,23.27,
4189212,-0.01,-0.04,1.06,0.43,2.14,3.42,905.37,23.27,
4189250,-0.0,-0.04,1.07,0.55,2.08,3.6,905.4,23.28,
4189340,-0.01,-0.04,1.1,0.24,2.38,3.42,905.32,23.24,
4189378,0.0,-0.03,1.11,0.18,2.32,3.3,905.33,23.26,
4189416,-0.01,-0.03,1.11,0.24,2.99,3.11,905.33,23.26,
4189454,-0.01,-0.03,1.11,0.18,3.42,3.05,905.33,23.27,
4189492,-0.01,-0.02,1.15,0.31,3.85,2.93,905.32,23.25,
4189531,-0.01,-0.02,1.16,0.43,3.85,2.81,905.31,23.28,
4189569,-0.01,-0.03,1.17,0.55,3.78,2.69,905.31,23.28,
4189619,-0.01,-0.02,1.2,0.43,3.17,2.81,905.27,23.25,
4189657,-0.02,-0.02,1.17,0.55,2.93,2.81,905.28,23.27,
4189695,-0.02,-0.02,1.22,0.79,2.14,2.93,905.26,23.27,
4189733,-0.01,-0.03,1.19,0.55,2.44,2.99,905.26,23.28,
4189772,-0.02,-0.03,1.17,0.85,1.59,2.81,905.25,23.28,
4189810,-0.02,-0.03,1.17,0.79,2.08,2.93,905.27,23.27,
4189848,-0.03,-0.03,1.18,0.98,1.59,3.11,905.24,23.28,
4189886,-0.02,-0.03,1.11,0.61,3.05,2.99,905.23,23.28,
4189924,-0.01,-0.03,1.19,1.28,3.05,2.93,905.25,23.28,
4189963,-0.02,-0.04,1.15,1.16,1.77,2.99,905.26,23.28,
4190013,-0.04,-0.03,1.18,1.22,1.77,2.87,905.18,23.26,
4190051,-0.03,-0.01,1.2,0.92,2.56,2.87,905.18,23.28,
4190089,-0.03,-0.03,1.17,0.61,3.6,3.17,905.21,23.27,
4190127,-0.04,-0.02,1.24,0.67,2.44,3.11,905.16,23.28,
4190165,-0.01,-0.03,1.28,0.98,3.85,2.99,905.11,23.28,
4190204,-0.02,-0.03,1.24,1.16,4.27,3.11,905.13,23.28,
4190242,-0.02,-0.02,1.26,1.28,4.15,2.75,905.19,23.28,
4190280,-0.03,-0.02,1.19,1.65,4.21,2.87,905.16,23.28,
4190318,-0.01,-0.04,1.21,1.83,4.58,2.75,905.16,23.28,
4190368,-0.02,-0.04,1.18,1.83,4.39,2.81,905.14,23.27,
4190406,-0.01,-0.04,1.18,2.2,4.03,2.99,905.16,23.29,
4190445,-0.03,-0.04,1.07,2.2,3.36,2.99,905.14,23.27,
4190483,-0.03,-0.04,1.07,2.32,2.75,3.23,905.17,23.28,
4190521,-0.02,-0.04,1.06,2.01,3.05,2.93,905.13,23.28,
4190559,-0.03,-0.03,1.04,1.53,2.5,3.23,905.1,23.28,
4190597,-0.0,-0.04,1.05,1.46,2.26,3.48,905.11,23.28,
4190636,-0.02,-0.05,1.06,1.04,1.65,3.42,905.07,23.28,
4190674,-0.02,-0.05,1.06,0.92,0.92,3.6,905.11,23.29,
4190712,-0.03,-0.05,1.0,0.92,1.4,3.6,905.03,23.27,
4190762,-0.01,-0.03,1.13,1.34,0.61,3.78,905.03,23.27,
4190800,0.01,-0.05,1.04,1.22,1.34,3.6,905.0,23.29,
4190839,-0.02,-0.02,1.11,1.65,0.0,3.48,905.01,23.27,
4190877,-0.02,-0.06,1.06,1.22,2.38,3.6,904.97,23.28,
4190915,0.0,-0.04,1.09,0.98,0.49,3.17,905.0,23.28,
4190953,-0.0,-0.04,1.16,1.04,0.67,3.3,905.01,23.28,
4190991,-0.02,-0.05,1.06,0.67,1.65,3.54,904.98,23.28,
4191030,-0.01,-0.04,1.1,1.22,2.38,3.3,905.0,23.27,
4191068,0.0,-0.04,1.09,0.85,2.99,3.3,904.94,23.28,
4191106,-0.01,-0.04,1.11,1.1,1.59,3.11,904.9,23.28,
4191156,-0.02,-0.04,1.1,0.73,3.17,3.05,904.95,23.26,
4191194,-0.02,-0.03,1.14,0.55,2.69,3.11,904.92,23.27,
4191232,-0.0,-0.04,1.16,0.67,1.77,3.11,904.9,23.28,
4191271,-0.03,-0.04,1.12,0.61,1.77,3.23,904.87,23.28,
4191309,-0.02,-0.04,1.12,0.79,2.38,3.17,904.82,23.26,
4191347,-0.0,-0.05,1.12,0.61,2.5,3.05,904.91,23.28,
4191385,-0.01,-0.04,1.09,0.79,2.32,3.17,904.86,23.27,
4191424,-0.02,-0.04,1.05,0.61,2.62,3.23,904.78,23.27,
4191462,-0.02,-0.04,1.06,0.61,3.17,3.05,904.79,23.27,
4191512,-0.02,-0.04,1.05,0.61,2.69,3.3,904.77,23.27,
4191550,-0.03,-0.05,1.05,0.85,3.17,3.05,904.81,23.28,
4191588,0.01,-0.03,1.06,0.49,3.85,3.11,904.77,23.28,
4191626,-0.0,-0.03,1.11,0.73,3.17,3.17,904.69,23.28,
4191665,-0.03,-0.04,1.07,0.73,3.3,3.23,904.73,23.28,
4191703,-0.03,-0.04,1.13,0.85,2.93,3.36,904.72,23.28,
4191741,-0.0,-0.05,1.13,0.55,3.72,3.11,904.7,23.27,
4191779,-0.02,-0.03,1.16,0.55,2.81,3.23,904.64,23.27,
4191818,-0.01,-0.03,1.15,0.49,3.72,3.36,904.65,23.29,
4191856,-0.02,-0.02,1.19,0.92,2.75,3.3,904.65,23.28,
4191906,-0.01,-0.04,1.19,0.67,3.97,3.42,904.65,23.27,
4191944,-0.01,-0.02,1.2,1.04,3.54,3.48,904.62,23.28,
4191982,-0.02,-0.03,1.16,0.73,4.58,3.42,904.56,23.27,
4192020,-0.02,-0.03,1.17,0.98,3.97,3.54,904.61,23.28,
4192059,-0.01,-0.04,1.14,0.67,4.33,3.54,904.52,23.28,
4192097,-0.0,-0.04,1.12,0.73,4.27,3.48,904.47,23.28,
4192135,-0.01,-0.03,1.1,0.73,4.39,3.66,904.51,23.28,
4192173,-0.0,-0.03,1.1,0.98,4.52,3.66,904.52,23.27,
4192212,-0.01,-0.04,1.09,0.85,4.21,3.6,904.43,23.28,
4192250,-0.01,-0.04,1.09,0.85,3.91,3.54,904.45,23.27,
4192326,-0.0,-0.04,1.09,1.16,3.91,3.42,904.43,23.25,
4192364,-0.02,-0.03,1.07,1.22,3.91,3.6,904.4,23.27,
4192402,-0.01,-0.04,1.05,1.22,4.33,3.48,904.36,23.26,
4192493,-0.01,-0.04,1.07,1.46,5.0,3.48,904.35,23.24,
4192531,-0.01,-0.03,1.06,1.28,4.88,3.48,904.25,23.25,
4192570,-0.02,-0.03,1.1,1.22,5.49,3.54,904.23,23.24,
4192608,-0.01,-0.04,1.1,0.98,5.25,3.6,904.29,23.26,
4192646,-0.0,-0.04,1.11,1.1,5.31,3.6,904.25,23.26,
4192684,-0.01,-0.04,1.09,1.16,5.43,3.42,904.2,23.26,
4192734,-0.01,-0.03,1.1,0.98,5.74,3.54,904.17,23.24,
4192772,-0.0,-0.03,1.1,0.61,5.19,3.6,904.15,23.27,
4192811,-0.01,-0.03,1.08,0.0,5.37,3.72,904.11,23.26,
4192849,0.01,-0.03,1.08,-0.31,4.94,3.78,904.13,23.26,
4192887,0.01,-0.03,1.09,-0.43,4.46,3.66,904.09,23.26,
4192925,0.0,-0.03,1.07,-0.55,3.48,3.66,904.11,23.27,
4192964,-0.0,-0.03,1.11,-0.55,3.23,3.85,904.09,23.27,
4193002,0.01,-0.04,1.08,-0.55,2.99,3.85,903.99,23.27,
4193040,0.0,-0.04,1.09,-0.49,1.34,3.85,904.05,23.28,
4193078,-0.01,-0.03,1.09,-0.61,1.28,3.85,904.05,23.27,
4193128,0.01,-0.03,1.07,-0.37,0.92,3.66,903.93,23.25,
4193166,0.01,-0.03,1.06,-0.24,0.73,3.48,903.91,23.27,
4193205,-0.0,-0.04,1.04,-0.43,0.85,3.54,903.87,23.25,
4193243,0.01,-0.03,1.06,-0.61,0.61,3.54,903.87,23.27,
4193281,-0.0,-0.03,1.06,-0.67,0.31,3.36,903.88,23.28,
4193319,-0.01,-0.04,1.02,-0.98,0.49,3.3,903.84,23.27,
4193357,0.0,-0.05,1.0,-1.34,1.22,3.17,903.79,23.27,
4193396,0.01,-0.04,1.04,-1.53,1.46,3.11,903.82,23.27,
4193434,-0.0,-0.04,1.04,-1.53,1.4,2.99,903.79,23.28,
4193484,-0.01,-0.02,1.07,-1.16,1.65,3.11,903.7,23.25,
4193522,0.01,-0.04,1.1,-0.85,1.46,2.75,903.72,23.27,
4193560,-0.01,-0.04,1.08,-0.73,1.4,2.69,903.74,23.27,
4193598,-0.01,-0.03,1.1,-0.73,0.92,2.75,903.66,23.26,
4193637,0.0,-0.03,1.08,-0.73,1.04,2.62,903.71,23.29,
4193675,0.0,-0.03,1.08,-0.43,0.61,2.69,903.69,23.27,
4193713,-0.0,-0.04,1.05,-0.24,0.85,2.62,903.62,23.27,
4193751,-0.0,-0.04,1.01,0.0,1.4,2.5,903.65,23.28,
4193790,-0.01,-0.03,1.04,0.37,0.67,2.38,903.59,23.27,
4193828,-0.01,-0.04,1.0,0.37,0.61,2.5,903.54,23.27,
4193878,-0.01,-0.03,1.0,0.79,0.49,2.26,903.52,23.27,
4193916,-0.01,-0.03,0.98,0.73,1.1,2.32,903.53,23.27,
4193954,-0.01,-0.03,0.98,1.1,1.1,2.2,903.48,23.27,
4193992,-0.0,-0.05,0.93,1.22,2.38,2.26,903.48,23.27,
4194030,-0.01,-0.04,0.91,1.16,3.3,1.95,903.45,23.27,
4194069,-0.01,-0.05,0.87,1.22,3.85,1.89,903.41,23.27,
4194107,-0.01,-0.04,0.87,1.22,4.21,1.83,903.44,23.27,
4194145,-0.0,-0.04,0.88,1.22,4.58,1.65,903.39,23.26,
4194183,-0.0,-0.05,0.86,1.4,5.43,1.71,903.36,23.27,
4194221,-0.02,-0.04,0.87,1.83,5.13,1.77,903.35,23.28,
4194271,0.0,-0.04,0.86,1.83,5.86,1.65,903.33,23.26,
4194309,-0.01,-0.04,0.82,2.14,6.04,1.53,903.29,23.28,
4194348,-0.01,-0.05,0.81,2.75,5.86,1.46,903.29,23.28,
4194386,-0.01,-0.05,0.78,2.5,6.65,1.53,903.28,23.27,
4194424,-0.0,-0.05,0.78,2.75,6.1,1.59,903.22,23.27,
4194462,-0.0,-0.05,0.78,3.23,5.31,1.65,903.21,23.28,
4194501,-0.0,-0.05,0.75,3.36,5.19,1.83,903.15,23.28,
4194539,-0.0,-0.04,0.77,3.54,4.03,1.77,903.17,23.28,
4194577,-0.0,-0.05,0.73,3.11,3.78,1.83,903.11,23.29,
4194627,-0.01,-0.04,0.78,2.87,2.08,2.08,903.1,23.26,
4194665,-0.0,-0.05,0.8,2.32,2.01,2.08,903.07,23.27,
4194703,-0.0,-0.04,0.83,2.01,1.34,2.01,903.06,23.27,
4194742,-0.02,-0.04,0.85,2.01,1.4,2.2,903.05,23.28,
4194780,-0.0,-0.04,0.86,1.83,1.34,2.14,902.99,23.27,
4194818,-0.0,-0.03,0.91,2.14,1.46,2.01,903.01,23.27,
4194856,0.0,-0.03,0.9,1.83,1.95,1.95,902.99,23.29,
4194894,0.0,-0.03,0.92,2.32,1.65,2.01,902.93,23.27,
4194933,0.0,-0.04,0.9,2.08,1.77,1.95,902.98,23.26,
4194971,0.0,-0.03,0.9,2.26,1.89,2.14,902.92,23.29,
4195021,-0.01,-0.03,0.86,1.89,1.65,2.26,902.88,23.26,
4195059,0.0,-0.03,0.88,1.83,1.1,2.2,902.93,23.27,
4195097,-0.0,-0.03,0.89,1.71,1.1,1.95,902.83,23.28,
4195135,0.01,-0.02,0.92,1.65,0.43,2.08,902.87,23.28,
4195174,-0.0,-0.02,0.95,1.65,0.92,2.08,902.8,23.28,
4195212,0.0,-0.02,0.96,1.77,0.85,2.14,902.78,23.27,
4195250,0.0,-0.02,1.0,2.14,0.73,2.08,902.78,23.26,
4195288,0.01,-0.02,0.98,2.38,1.04,1.95,902.77,23.27,
4195327,0.0,-0.02,0.97,2.99,1.04,1.89,902.8,23.27,
4195365,0.01,-0.02,0.95,3.23,1.71,1.65,902.79,23.26,
4195441,0.01,-0.02,0.92,3.54,3.05,1.34,902.69,23.23,
4195479,0.0,-0.02,0.9,3.72,3.72,1.28,902.71,23.25,
4195517,0.01,-0.02,0.9,3.66,4.09,0.92,902.71,23.24,
4195607,-0.01,-0.02,0.88,3.85,4.88,0.73,902.71,23.22,
4195645,-0.0,-0.04,0.83,4.15,5.74,0.73,902.71,23.22,
4195683,-0.0,-0.03,0.82,4.52,5.8,0.61,902.7,23.24,
4195721,-0.01,-0.03,0.81,5.0,6.47,0.61,902.56,23.24,
4195760,-0.02,-0.03,0.78,5.43,7.2,0.61,902.62,23.24,
4195798,-0.02,-0.04,0.8,5.8,6.77,0.67,902.67,23.25,
4195836,-0.01,-0.04,0.78,6.04,7.2,0.61,902.61,23.24,
4195886,-0.02,-0.03,0.74,6.04,7.26,0.61,902.58,23.24,
4195924,-0.01,-0.04,0.68,5.62,7.69,0.61,902.54,23.25,
4195962,-0.0,-0.04,0.69,5.19,6.53,0.73,902.59,23.25,
4196001,-0.02,-0.04,0.68,5.0,6.41,0.73,902.54,23.25,
4196039,-0.01,-0.03,0.7,4.39,5.68,0.79,902.5,23.24,
4196077,-0.01,-0.03,0.73,4.27,4.58,0.79,902.58,23.26,
4196115,-0.0,-0.04,0.75,3.78,3.72,0.79,902.53,23.26,
4196154,-0.0,-0.04,0.77,3.97,2.93,0.92,902.5,23.26,
4196192,0.0,-0.04,0.79,3.66,2.44,0.79,902.48,23.25,
4196242,-0.01,-0.03,0.81,3.91,1.46,0.92,902.48,23.25,
4196280,-0.02,-0.03,0.81,4.33,0.92,0.92,902.51,23.25,
4196318,-0.03,-0.03,0.82,4.7,0.12,0.85,902.41,23.24,
4196357,-0.02,-0.03,0.84,5.19,-0.18,0.98,902.46,23.26,
4196395,-0.03,-0.03,0.81,5.37,-0.24,1.4,902.41,23.25,
4196433,-0.03,-0.03,0.8,6.16,-0.73,1.22,902.35,23.25,
4196471,-0.03,-0.03,0.8,6.53,-1.04,1.46,902.41,23.25,
4196510,-0.04,-0.03,0.8,6.9,-1.95,1.71,902.41,23.27,
4196548,-0.04,-0.04,0.75,7.08,-2.32,1.95,902.39,23.27,
4196586,-0.03,-0.03,0.74,7.75,-2.99,1.83,902.41,23.28,
4196636,-0.02,-0.03,0.68,7.81,-4.21,2.01,902.33,23.25,
4196674,-0.04,-0.04,0.67,8.12,-5.37,2.08,902.32,23.27,
4196712,-0.02,-0.06,0.64,8.91,-5.43,2.2,902.27,23.27,
4196751,-0.04,-0.05,0.6,8.73,-5.74,2.2,902.26,23.27,
4196789,-0.04,-0.03,0.63,9.34,-6.23,2.14,902.26,23.26,
4196827,-0.04,-0.05,0.58,8.61,-6.16,2.38,902.28,23.27,
4196865,-0.03,-0.04,0.62,8.67,-7.14,2.32,902.25,23.27,
4196904,-0.04,-0.06,0.6,8.61,-7.87,2.5,902.25,23.27,
4196942,-0.04,-0.04,0.61,8.0,-8.12,2.56,902.14,23.27,
4196992,-0.03,-0.04,0.67,7.93,-8.61,2.44,902.25,23.25,
4197030,-0.05,-0.05,0.63,6.96,-8.73,2.62,902.25,23.27,
4197068,-0.07,-0.04,0.66,7.26,-9.28,2.93,902.25,23.28,
4197107,-0.05,-0.05,0.61,6.23,-7.75,2.69,902.18,23.28,
4197145,-0.03,-0.04,0.65,5.8,-8.3,2.75,902.22,23.27,
4197183,-0.05,-0.04,0.66,5.55,-8.42,2.93,902.19,23.27,
4197221,-0.06,-0.05,0.66,4.88,-7.63,2.93,902.22,23.27,
4197260,-0.05,-0.04,0.71,4.64,-7.87,2.75,902.29,23.29,
4197298,-0.04,-0.04,0.77,4.15,-8.73,3.17,902.22,23.26,
4197336,-0.06,-0.03,0.8,4.33,-8.91,3.3,902.23,23.27,
4197386,-0.07,-0.03,0.82,3.85,-8.12,3.48,902.24,23.27,
4197424,-0.07,-0.02,0.92,3.91,-8.85,3.66,902.26,23.28,
4197463,-0.05,-0.03,0.89,3.23,-8.06,3.6,902.22,23.28,
4197501,-0.07,-0.02,0.95,2.99,-7.93,3.97,902.26,23.28,
4197539,-0.07,-0.03,0.95,2.56,-7.45,3.91,902.21,23.28,
4197577,-0.07,-0.02,0.97,1.95,-6.96,3.97,902.25,23.28,
4197615,-0.06,-0.02,1.0,1.4,-6.29,4.27,902.23,23.27,
4197654,-0.06,-0.02,1.0,0.98,-5.68,4.39,902.24,23.26,
4197692,-0.07,-0.01,1.02,1.04,-4.82,4.46,902.25,23.28,
4197742,-0.06,-0.01,1.03,0.73,-4.58,4.64,902.24,23.26,
4197780,-0.07,-0.0,1.07,0.67,-4.15,4.82,902.24,23.28,
4197818,-0.07,-0.02,1.07,0.18,-3.91,5.13,902.24,23.27,
4197857,-0.05,-0.02,1.09,0.18,-3.66,5.19,902.28,23.27,
4197895,-0.06,-0.0,1.09,-0.06,-3.66,5.25,902.23,23.28,
4197933,-0.07,-0.01,1.1,-0.18,-3.78,5.55,902.26,23.27,
4197971,-0.07,-0.01,1.07,-0.37,-3.3,5.74,902.29,23.27,
4198010,-0.05,-0.01,1.14,-0.31,-4.09,5.8,902.24,23.26,
4198048,-0.07,-0.02,1.09,-0.73,-4.03,6.04,902.25,23.28,
4198086,-0.07,-0.01,1.11,-0.61,-4.7,6.29,902.29,23.28,
4198136,-0.07,-0.02,1.11,-0.92,-3.66,6.59,902.26,23.27,
4198174,-0.06,-0.01,1.13,-0.98,-5.13,6.84,902.25,23.28,
4198212,-0.06,-0.03,1.07,-1.1,-4.46,7.02,902.27,23.27,
4198251,-0.07,-0.02,1.04,-1.53,-4.09,7.14,902.31,23.27,
4198289,-0.06,-0.01,1.07,-1.59,-4.03,7.32,902.25,23.27,
4198327,-0.07,-0.02,1.05,-2.08,-4.21,7.45,902.33,23.27,
4198365,-0.07,-0.02,1.08,-2.26,-4.39,7.63,902.24,23.26,
4198404,-0.06,-0.03,1.1,-2.56,-4.15,7.87,902.3,23.28,
4198442,-0.07,-0.02,1.11,-2.69,-4.58,8.0,902.31,23.27,
4198518,-0.07,-0.01,1.15,-3.11,-5.0,8.36,902.31,23.24,
4198556,-0.06,-0.02,1.17,-3.48,-5.55,8.54,902.25,23.25,
4198594,-0.05,-0.01,1.19,-3.85,-5.55,8.61,902.25,23.25,
4198684,-0.06,-0.01,1.26,-4.58,-6.84,9.03,902.23,23.21,
4198722,-0.05,0.01,1.28,-4.64,-8.12,8.73,902.22,23.23,
4198760,-0.05,0.01,1.33,-4.52,-8.36,8.73,902.25,23.22,
4198799,-0.06,0.0,1.31,-4.64,-8.06,8.67,902.25,23.24,
4198837,-0.07,0.02,1.32,-4.58,-8.06,8.73,902.2,23.23,
4198875,-0.05,0.01,1.34,-4.15,-7.69,8.61,902.27,23.25,
4198925,-0.07,-0.01,1.31,-3.72,-7.45,8.42,902.23,23.24,
4198963,-0.06,0.0,1.3,-3.6,-7.14,8.24,902.23,23.22,
4199002,-0.07,0.0,1.27,-3.3,-7.02,8.36,902.26,23.24,
4199040,-0.07,-0.0,1.27,-3.3,-7.08,8.54,902.23,23.24,
4199078,-0.07,-0.0,1.27,-3.3,-7.2,8.48,902.23,23.24,
4199116,-0.06,-0.01,1.27,-3.36,-7.14,8.3,902.29,23.24,
4199154,-0.06,0.0,1.27,-3.48,-7.26,8.36,902.26,23.24,
4199193,-0.07,0.0,1.27,-3.23,-7.45,8.48,902.26,23.24,
4199231,-0.06,-0.01,1.24,-3.54,-7.32,8.36,902.23,23.24,
4199269,-0.07,-0.01,1.24,-3.6,-7.45,8.12,902.23,23.24,
4199319,-0.07,-0.01,1.19,-3.78,-7.26,8.3,902.23,23.24,
4199357,-0.07,-0.0,1.2,-3.72,-7.32,8.3,902.24,23.23,
4199396,-0.06,-0.01,1.18,-3.97,-7.57,8.48,902.22,23.24,
4199434,-0.05,-0.01,1.23,-3.91,-8.36,8.48,902.23,23.24,
4199472,-0.07,-0.02,1.2,-4.39,-8.42,8.42,902.21,23.24,
4199510,-0.08,-0.01,1.23,-4.03,-8.85,8.54,902.21,23.24,
4199549,-0.07,-0.02,1.19,-4.58,-8.91,8.54,902.22,23.24,
4199587,-0.07,-0.01,1.21,-4.15,-10.38,8.61,902.2,23.24,
4199625,-0.08,-0.02,1.13,-4.46,-10.31,8.85,902.27,23.25,
4199675,-0.07,-0.02,1.16,-4.58,-11.11,8.97,902.18,23.23,
4199713,-0.08,-0.02,1.11,-4.94,-11.11,9.03,902.25,23.24,
4199752,-0.08,-0.01,1.16,-4.94,-12.02,9.4,902.12,23.23,
4199790,-0.09,-0.01,1.15,-5.62,-11.17,9.22,902.2,23.24,
4199828,-0.08,-0.01,1.18,-5.92,-10.56,9.46,902.19,23.24,
4199866,-0.09,-0.02,1.2,-6.35,-9.03,9.64,902.25,23.24,
4199904,-0.09,-0.02,1.21,-6.47,-8.42,9.64,902.19,23.24,
4199943,-0.09,-0.02,1.25,-6.35,-6.16,9.58,902.24,23.23,
4199981,-0.09,-0.01,1.21,-6.29,-4.46,9.83,902.23,23.24,
4200031,-0.08,-0.01,1.25,-5.86,-3.42,10.25,902.27,23.23,
4200069,-0.08,-0.02,1.22,-5.74,-1.83,10.19,902.28,23.23,
4200107,-0.08,-0.01,1.24,-5.55,-1.34,10.56,902.24,23.24,
4200146,-0.09,-0.01,1.26,-5.37,-0.85,10.86,902.2,23.24,
4200184,-0.09,-0.01,1.24,-5.49,-0.85,11.17,902.22,23.23,
4200222,-0.1,-0.01,1.21,-5.37,-0.31,11.54,902.2,23.24,
4200260,-0.07,-0.01,1.2,-5.49,-0.55,11.84,902.27,23.24,
4200299,-0.08,-0.03,1.17,-5.92,0.18,12.27,902.21,23.23,
4200337,-0.08,-0.02,1.18,-6.23,-0.18,12.57,902.24,23.23,
4200387,-0.08,-0.01,1.19,-6.71,0.49,13.18,902.24,23.23,
4200425,-0.07,-0.02,1.21,-6.53,-0.06,13.37,902.21,23.23,
4200463,-0.07,-0.02,1.21,-7.08,0.18,13.79,902.24,23.24,
4200501,-0.07,-0.01,1.24,-7.2,0.06,13.85,902.29,23.24,
4200540,-0.04,-0.0,1.24,-7.75,0.67,13.98,902.27,23.24,
4200578,-0.04,-0.0,1.25,-7.69,-0.06,14.1,902.23,23.24,
4200616,-0.05,-0.01,1.26,-7.93,0.37,14.34,902.32,23.24,
4200654,-0.04,-0.02,1.25,-7.93,0.73,14.4,902.33,23.24,
4200693,-0.03,-0.0,1.26,-8.24,0.55,14.59,902.28,23.24,
4200731,-0.04,-0.0,1.27,-8.54,0.24,14.53,902.34,23.24,
4200781,-0.04,-0.01,1.27,-8.67,0.31,14.65,902.28,23.22,
4200819,-0.03,-0.01,1.29,-8.67,0.43,14.4,902.3,23.24,
4200857,-0.03,-0.0,1.3,-8.79,0.0,14.47,902.27,23.23,
4200896,-0.04,-0.01,1.29,-8.73,-0.12,14.59,902.3,23.23,
4200934,-0.04,-0.0,1.3,-8.85,0.12,14.4,902.32,23.24,
4200972,-0.02,-0.01,1.32,-8.97,0.37,14.34,902.35,23.24,
4201010,-0.02,-0.0,1.3,-9.09,0.31,14.22,902.37,23.24,
4201049,-0.02,0.0,1.31,-8.97,0.55,14.16,902.3,23.24,
4201087,-0.01,-0.0,1.33,-8.85,1.59,13.79,902.35,23.24,
4201137,-0.01,-0.0,1.37,-8.91,1.22,13.49,902.39,23.23,
4201175,-0.01,-0.0,1.35,-8.91,1.71,13.61,902.31,23.22,
4201213,-0.02,0.0,1.36,-8.73,1.77,13.31,902.36,23.24,
4201251,-0.02,-0.01,1.35,-8.85,2.32,13.12,902.34,23.23,
4201290,-0.01,-0.01,1.35,-8.67,2.14,12.7,902.34,23.23,
4201328,-0.02,-0.01,1.32,-8.73,2.26,12.63,902.38,23.24,
4201366,-0.02,-0.02,1.28,-8.73,2.44,12.63,902.34,23.23,
4201404,-0.01,-0.01,1.31,-8.91,2.14,12.33,902.33,23.24,
4201443,-0.01,-0.01,1.31,-8.91,1.95,12.33,902.39,23.24,
4201519,-0.0,-0.01,1.33,-9.28,1.95,12.08,902.4,23.21,
4201557,-0.01,-0.01,1.33,-9.34,1.34,11.96,902.39,23.23,
4201595,-0.01,-0.01,1.34,-9.52,1.16,11.78,902.41,23.23,
4201685,-0.01,-0.02,1.36,-10.01,0.92,11.41,902.33,23.19,
4201723,-0.02,-0.01,1.37,-10.07,0.18,11.05,902.34,23.2,
4201761,-0.01,-0.02,1.38,-10.07,0.06,10.93,902.37,23.21,
4201800,-0.01,-0.01,1.38,-10.38,-0.24,10.68,902.39,23.21,
4201838,-0.02,-0.01,1.39,-10.25,-0.31,10.74,902.36,23.21,
4201876,-0.02,-0.01,1.4,-10.13,-0.24,10.25,902.37,23.21,
4201926,-0.02,-0.0,1.43,-10.01,-0.06,10.07,902.41,23.21,
4201964,-0.01,-0.01,1.42,-9.89,-0.12,9.95,902.39,23.21,
4202003,-0.03,-0.0,1.45,-9.83,-0.18,9.77,902.44,23.22,
4202041,-0.02,0.0,1.45,-9.64,0.06,9.64,902.44,23.22,
4202079,-0.02,0.0,1.46,-9.95,-0.24,9.4,902.43,23.22,
4202117,-0.03,-0.0,1.45,-10.13,-0.37,9.46,902.38,23.22,
4202155,-0.02,0.0,1.44,-10.38,-0.31,9.28,902.35,23.22,
4202194,-0.03,-0.0,1.43,-10.38,0.06,9.09,902.41,23.2,
4202232,-0.03,0.0,1.42,-10.38,0.06,9.09,902.46,23.23,
4202270,-0.03,-0.0,1.46,-10.31,-0.12,8.79,902.39,23.22,
4202320,-0.04,-0.01,1.45,-10.07,-0.12,8.73,902.42,23.21,
4202358,-0.04,0.0,1.46,-9.64,-0.31,8.54,902.41,23.22,
4202396,-0.03,-0.01,1.43,-9.4,-0.43,8.36,902.42,23.22,
4202435,-0.03,-0.01,1.43,-9.16,-1.04,8.12,902.41,23.21,
4202473,-0.04,-0.01,1.4,-9.34,-0.55,7.87,902.4,23.21,
4202511,-0.04,-0.01,1.39,-9.46,-0.12,7.51,902.38,23.21,
4202549,-0.04,0.0,1.39,-9.58,0.37,7.51,902.38,23.21,
4202588,-0.05,-0.01,1.4,-9.64,0.92,7.32,902.41,23.21,
4202626,-0.06,-0.01,1.4,-9.77,1.4,6.96,902.37,23.21,
4202676,-0.05,0.0,1.44,-9.34,1.77,6.77,902.36,23.2,
4202714,-0.08,0.0,1.43,-8.97,1.71,6.84,902.4,23.21,
4202752,-0.07,-0.0,1.45,-8.48,1.89,6.77,902.39,23.21,
4202791,-0.05,-0.0,1.43,-8.0,2.08,6.41,902.41,23.22,
4202829,-0.07,-0.0,1.39,-7.39,1.83,6.59,902.41,23.22,
4202867,-0.08,-0.01,1.34,-7.14,1.89,6.59,902.35,23.2,
4202905,-0.09,-0.01,1.35,-6.71,1.53,6.65,902.37,23.22,
4202944,-0.1,-0.01,1.31,-6.59,1.53,6.65,902.36,23.21,
4202982,-0.1,-0.01,1.31,-6.16,1.34,6.77,902.3,23.21,
4203020,-0.1,-0.01,1.31,-5.92,1.4,7.08,902.32,23.22,
4203070,-0.11,-0.02,1.28,-5.74,2.08,7.39,902.35,23.21,
4203108,-0.11,-0.02,1.27,-5.31,2.32,7.69,902.31,23.22,
4203147,-0.11,-0.01,1.24,-5.49,2.44,7.87,902.25,23.22,
4203185,-0.13,-0.02,1.23,-5.43,2.62,8.3,902.28,23.22,
4203223,-0.12,-0.02,1.18,-5.86,3.3,8.48,902.28,23.23,
4203261,-0.12,-0.02,1.21,-5.86,2.62,8.73,902.28,23.22,
4203300,-0.12,-0.03,1.16,-6.29,3.48,9.28,902.28,23.22,
4203338,-0.12,-0.03,1.19,-6.1,3.11,9.7,902.34,23.22,
4203376,-0.12,-0.03,1.17,-6.23,3.91,9.89,902.31,23.23,
4203426,-0.12,-0.02,1.18,-6.41,3.66,10.31,902.29,23.21,
4203464,-0.12,-0.03,1.18,-6.53,3.91,10.8,902.31,23.2,
4203503,-0.11,-0.02,1.18,-6.77,3.6,10.8,902.3,23.22,
4203541,-0.11,-0.02,1.18,-7.2,3.6,11.41,902.28,23.22,
4203579,-0.11,-0.03,1.17,-7.81,3.54,11.47,902.33,23.24,
4203617,-0.1,-0.02,1.21,-8.42,3.91,11.72,902.29,23.23,
4203655,-0.1,-0.03,1.24,-8.42,4.21,11.96,902.36,23.23,
4203694,-0.09,-0.02,1.25,-8.36,3.91,12.27,902.33,23.23,
4203732,-0.1,-0.03,1.22,-8.54,3.97,12.45,902.38,23.24,
4203782,-0.09,-0.02,1.21,-8.42,3.36,12.82,902.37,23.22,
4203820,-0.1,-0.02,1.19,-8.36,3.66,12.76,902.39,23.23,
4203858,-0.1,-0.02,1.17,-8.48,3.85,12.94,902.39,23.22,
4203897,-0.09,-0.02,1.2,-8.36,4.21,13.18,902.42,23.24,
4203935,-0.08,-0.01,1.26,-8.36,4.46,13.12,902.37,23.23,
4203973,-0.1,-0.03,1.24,-8.67,5.31,13.37,902.42,23.23,
4204011,-0.09,-0.01,1.34,-8.67,4.27,13.49,902.36,23.22,
4204050,-0.09,-0.02,1.36,-8.97,5.19,13.61,902.43,23.23,
4204088,-0.08,-0.01,1.38,-8.79,4.58,13.73,902.41,23.23,
4204126,-0.09,-0.01,1.4,-8.67,5.37,13.85,902.49,23.24,
4204176,-0.09,-0.01,1.39,-8.24,4.76,14.1,902.45,23.22,
4204214,-0.07,-0.01,1.39,-8.24,4.82,14.28,902.48,23.22,
4204253,-0.08,-0.0,1.39,-7.81,4.33,14.4,902.47,23.24,
4204291,-0.08,-0.01,1.4,-7.51,3.72,14.59,902.46,23.24,
4204329,-0.07,-0.01,1.4,-7.14,3.36,14.71,902.49,23.23,
4204367,-0.08,-0.01,1.39,-6.9,2.99,14.83,902.54,23.24,
4204405,-0.07,-0.02,1.36,-6.84,2.56,15.08,902.55,23.24,
4204444,-0.08,-0.03,1.33,-6.77,1.59,15.14,902.58,23.24,
4204482,-0.09,-0.03,1.32,-6.77,1.46,15.26,902.56,23.25,
4204558,-0.07,-0.03,1.29,-7.14,1.1,15.44,902.63,23.21,
4204596,-0.07,-0.04,1.3,-7.63,0.79,15.5,902.63,23.22,
4204634,-0.08,-0.04,1.27,-7.75,1.22,15.62,902.61,23.22,
4204724,-0.07,-0.03,1.32,-8.79,2.01,15.5,902.6,23.19,
4204762,-0.08,-0.03,1.33,-9.58,2.32,15.62,902.56,23.2,
4204800,-0.07,-0.03,1.34,-9.95,2.81,15.81,902.68,23.22,
4204839,-0.06,-0.04,1.33,-10.31,2.26,15.62,902.65,23.21,
4204877,-0.05,-0.03,1.36,-10.62,2.38,15.56,902.7,23.22,
4204915,-0.07,-0.03,1.39,-10.93,2.26,15.75,902.71,23.22,
4204965,-0.06,-0.04,1.37,-11.05,2.2,15.62,902.69,23.22,
4205003,-0.07,-0.03,1.37,-11.72,2.01,15.69,902.7,23.21,
4205042,-0.07,-0.03,1.39,-11.72,1.77,15.75,902.76,23.23,
4205080,-0.04,-0.03,1.39,-12.33,1.22,15.81,902.72,23.22,
4205118,-0.06,-0.03,1.41,-12.76,1.59,15.75,902.74,23.24,
4205156,-0.06,-0.02,1.43,-13.18,1.83,15.5,902.67,23.23,
4205195,-0.04,-0.02,1.5,-13.49,1.95,15.32,902.7,23.22,
4205233,-0.05,-0.01,1.51,-13.92,2.5,15.32,902.75,23.23,
4205271,-0.05,-0.01,1.57,-13.85,2.69,15.14,902.78,23.23,
4205321,-0.04,-0.0,1.6,-13.92,3.78,15.08,902.75,23.22,
4205359,-0.05,0.0,1.63,-13.92,3.66,14.83,902.74,23.22,
4205397,-0.05,0.01,1.64,-13.98,3.91,14.77,902.76,23.24,
4205436,-0.04,0.02,1.69,-14.1,4.21,14.34,902.75,23.23,
4205474,-0.06,0.01,1.74,-13.92,4.21,14.34,902.75,23.22,
4205512,-0.05,0.02,1.79,-13.73,3.97,14.47,902.74,23.24,
4205550,-0.04,0.03,1.82,-13.67,3.78,14.28,902.74,23.23,
4205589,-0.03,0.03,1.86,-13.67,3.17,14.4,902.79,23.24,
4205627,-0.03,0.04,1.85,-13.73,2.5,14.34,902.78,23.23,
4205665,-0.04,0.03,1.86,-13.24,1.95,14.22,902.83,23.24,
4205715,-0.02,0.04,1.85,-13.55,1.34,14.04,902.77,23.22,
4205753,-0.03,0.04,1.83,-13.12,0.37,13.85,902.81,23.23,
4205792,-0.03,0.02,1.8,-12.88,0.61,13.67,902.88,23.24,
4205830,-0.04,0.01,1.74,-12.21,0.98,13.31,902.84,23.24,
4205868,-0.03,0.02,1.75,-11.72,0.85,13.0,902.88,23.23,
4205906,-0.03,0.01,1.69,-11.17,1.65,12.63,902.91,23.24,
4205944,-0.04,0.02,1.66,-10.99,1.34,12.27,902.91,23.24,
4205983,-0.05,-0.0,1.7,-10.74,2.32,12.21,902.9,23.22,
4206021,-0.02,-0.01,1.68,-10.68,2.56,11.72,902.88,23.24,
4206071,-0.04,-0.0,1.7,-10.5,3.11,11.66,902.93,23.22,
4206109,-0.04,-0.01,1.65,-10.5,3.85,11.54,902.92,23.22,
4206147,-0.04,-0.01,1.65,-10.44,3.36,11.54,902.98,23.23,
4206185,-0.05,-0.03,1.57,-10.01,3.17,11.29,902.97,23.22,
4206224,-0.05,-0.03,1.5,-9.95,3.11,11.41,902.94,23.24,
4206262,-0.03,-0.02,1.49,-10.01,3.11,11.35,902.97,23.23,
4206300,-0.03,-0.04,1.45,-9.77,2.5,11.35,903.01,23.22,
4206338,-0.04,-0.04,1.43,-9.58,1.83,11.66,903.03,23.23,
4206377,-0.04,-0.04,1.44,-9.52,1.53,11.41,902.99,23.23,
4206427,-0.03,-0.03,1.44,-9.4,0.12,11.35,903.07,23.22,
4206465,-0.04,-0.04,1.43,-9.52,0.24,11.23,902.99,23.22,
4206503,-0.04,-0.03,1.41,-9.77,0.37,11.11,903.03,23.23,
4206541,-0.04,-0.03,1.47,-10.13,-0.06,11.23,902.97,23.22,
4206579,-0.04,-0.04,1.49,-10.07,-0.18,11.17,902.97,23.23,
4206618,-0.06,-0.04,1.48,-10.44,0.31,11.17,903.02,23.23,
4206656,-0.05,-0.04,1.47,-10.56,0.67,11.29,903.05,23.23,
4206694,-0.04,-0.05,1.42,-10.31,-0.12,11.23,903.08,23.22,
4206732,-0.05,-0.05,1.4,-10.25,-0.73,11.23,903.0,23.23,
4206782,-0.05,-0.04,1.4,-10.01,-1.1,11.54,903.04,23.23,
4206821,-0.06,-0.05,1.35,-10.38,0.37,11.35,902.99,23.22,
4206859,-0.06,-0.02,1.44,-10.38,-0.79,11.29,902.97,23.23,
4206897,-0.05,-0.04,1.48,-10.56,0.61,11.35,903.0,23.22,
4206935,-0.05,-0.03,1.51,-10.86,0.24,11.35,902.95,23.22,
4206974,-0.05,-0.02,1.63,-10.99,0.67,11.6,902.96,23.23,
4207012,-0.05,-0.03,1.6,-10.68,1.16,11.72,902.94,23.22,
4207050,-0.07,-0.02,1.61,-10.19,1.1,11.66,902.95,23.22,
4207088,-0.05,-0.03,1.57,-9.83,2.14,11.78,902.96,23.24,
4207127,-0.04,-0.02,1.55,-9.64,2.14,11.72,903.0,23.22,
4207177,-0.06,-0.03,1.5,-9.4,2.56,12.02,902.99,23.21,
4207215,-0.04,-0.03,1.49,-8.79,3.36,11.84,903.03,23.21,
4207253,-0.06,-0.04,1.47,-8.61,4.09,12.27,903.05,23.21,
4207291,-0.04,-0.04,1.45,-8.0,4.21,12.27,903.11,23.23,
4207330,-0.04,-0.05,1.41,-7.81,4.88,12.21,903.06,23.23,
4207368,-0.04,-0.05,1.35,-7.63,5.25,12.33,903.04,23.22,
4207406,-0.05,-0.06,1.33,-7.81,5.37,12.45,903.03,23.22,
4207444,-0.04,-0.05,1.33,-7.81,4.27,12.51,903.07,23.22,
4207483,-0.05,-0.04,1.33,-8.0,4.27,12.76,903.0,23.22,
4207558,-0.04,-0.05,1.33,-8.36,5.0,13.06,903.1,23.21,
4207597,-0.03,-0.05,1.35,-8.42,4.88,12.94,903.06,23.21,
4207635,-0.05,-0.05,1.36,-8.48,4.64,13.24,903.1,23.2,
4207725,-0.04,-0.04,1.35,-8.42,4.76,13.79,903.1,23.18,
4207763,-0.04,-0.04,1.34,-8.54,3.66,13.98,903.08,23.19,
4207801,-0.01,-0.05,1.38,-8.73,3.54,13.85,903.06,23.19,
4207839,-0.02,-0.04,1.38,-9.4,3.66,13.92,903.1,23.2,
4207878,-0.03,-0.04,1.37,-9.4,3.78,13.98,903.12,23.21,
4207916,-0.03,-0.04,1.33,-9.7,4.64,13.92,903.09,23.2,
4207966,-0.02,-0.04,1.41,-9.58,5.31,13.55,903.11,23.2,
4208004,-0.02,-0.05,1.35,-9.28,5.31,13.49,903.13,23.2,
4208042,-0.04,-0.05,1.34,-9.28,5.92,13.37,903.21,23.2,
4208081,-0.01,-0.06,1.32,-8.79,6.9,13.24,903.18,23.2,
4208119,0.0,-0.05,1.3,-8.67,6.29,13.37,903.16,23.2,
4208157,-0.03,-0.04,1.31,-8.61,5.8,13.31,903.17,23.2,
4208195,-0.02,-0.05,1.31,-8.67,5.8,13.12,903.17,23.21,
4208234,-0.01,-0.05,1.4,-8.61,5.25,12.94,903.15,23.2,
4208272,-0.02,-0.06,1.4,-8.85,4.94,13.0,903.13,23.2,
4208322,-0.02,-0.04,1.42,-8.61,4.09,13.0,903.19,23.2,
4208360,-0.02,-0.04,1.4,-8.79,4.76,13.0,903.2,23.2,
4208398,-0.01,-0.05,1.4,-8.97,4.03,12.94,903.14,23.2,
4208437,-0.02,-0.05,1.38,-9.03,3.97,13.0,903.15,23.2,
4208475,-0.02,-0.03,1.38,-9.28,3.54,12.63,903.19,23.22,
4208513,-0.02,-0.02,1.4,-9.28,3.72,12.76,903.15,23.21,
4208551,-0.01,-0.04,1.43,-9.52,3.66,12.7,903.12,23.21,
4208590,-0.01,-0.04,1.46,-9.64,3.78,12.51,903.12,23.22,
4208628,-0.03,-0.04,1.42,-9.77,4.03,12.57,903.15,23.21,
4208666,-0.02,-0.02,1.47,-9.52,3.78,12.39,903.22,23.21,
4208716,-0.01,-0.04,1.4,-9.4,3.85,12.27,903.18,23.2,
4208754,-0.02,-0.04,1.41,-9.52,3.3,12.27,903.16,23.21,
4208793,-0.02,-0.05,1.38,-9.89,3.66,12.21,903.16,23.21,
4208831,-0.01,-0.02,1.48,-9.7,2.32,12.15,903.15,23.2,
4208869,-0.03,-0.04,1.42,-9.89,3.05,12.15,903.18,23.2,
4208907,-0.03,-0.04,1.43,-9.77,2.87,12.27,903.25,23.21,
4208946,-0.03,-0.04,1.43,-9.77,3.85,11.96,903.23,23.21,
4208984,-0.0,-0.04,1.4,-9.7,3.66,11.78,903.2,23.22,
4209022,-0.02,-0.04,1.41,-9.4,4.46,11.78,903.23,23.21,
4209072,-0.02,-0.02,1.37,-9.46,4.39,11.6,903.25,23.21,
4209110,-0.03,-0.03,1.41,-9.52,4.94,11.54,903.25,23.22,
4209148,-0.04,-0.05,1.36,-9.28,5.43,11.47,903.22,23.21,
4209187,-0.03,-0.04,1.44,-8.73,6.04,11.05,903.19,23.21,
4209225,-0.03,-0.04,1.41,-8.61,6.59,11.17,903.16,23.21,
4209263,-0.02,-0.02,1.42,-8.36,6.41,10.93,903.24,23.22,
4209301,-0.04,-0.03,1.4,-8.36,7.93,10.8,903.17,23.21,
4209340,-0.03,-0.03,1.38,-7.87,8.85,10.56,903.16,23.23,
4209378,-0.03,-0.03,1.4,-7.75,9.4,10.8,903.16,23.21,
4209428,-0.04,-0.02,1.38,-7.39,9.52,10.74,903.18,23.22,
4209466,-0.04,-0.04,1.38,-7.45,10.19,10.68,903.19,23.23,
4209504,-0.05,-0.03,1.44,-6.9,10.01,10.68,903.17,23.22,
4209543,-0.04,-0.03,1.42,-7.08,10.44,10.8,903.21,23.24,
4209581,-0.05,-0.02,1.42,-6.96,9.95,10.86,903.12,23.22,
4209619,-0.05,-0.02,1.46,-6.65,10.25,11.05,903.15,23.23,
4209657,-0.04,-0.03,1.4,-6.35,10.25,10.99,903.22,23.23,
4209696,-0.04,-0.01,1.42,-5.74,9.77,11.23,903.18,23.23,
4209734,-0.05,-0.03,1.34,-5.31,9.89,11.54,903.17,23.22,
4209772,-0.06,-0.02,1.36,-4.7,8.73,11.6,903.22,23.23,
4209822,-0.05,-0.04,1.28,-4.76,9.16,11.78,903.26,23.22,
4209860,-0.04,-0.04,1.3,-4.46,7.26,11.96,903.27,23.23,
4209898,-0.05,-0.05,1.21,-4.76,6.84,12.21,903.24,23.22,
4209937,-0.04,-0.03,1.23,-4.27,6.04,12.33,903.24,23.22,
4209975,-0.04,-0.05,1.18,-4.46,6.53,12.7,903.22,23.22,
4210013,-0.04,-0.03,1.2,-4.7,4.88,12.82,903.26,23.23,
4210051,-0.04,-0.04,1.23,-4.94,5.74,12.7,903.23,23.23,
4210090,-0.03,-0.05,1.21,-5.37,5.8,12.76,903.28,23.23,
4210128,-0.02,-0.03,1.26,-5.8,5.62,12.82,903.3,23.23,
4210178,-0.02,-0.03,1.23,-6.04,4.82,12.7,903.25,23.21,
4210216,-0.03,-0.03,1.31,-6.04,4.82,12.63,903.23,23.22,
4210254,-0.01,-0.04,1.29,-6.59,5.98,12.57,903.27,23.23,
4210293,-0.04,-0.03,1.35,-6.53,5.68,12.51,903.23,23.23,
4210331,-0.04,-0.03,1.34,-6.71,6.65,12.27,903.25,23.22,
4210369,-0.02,-0.02,1.41,-6.35,6.04,12.45,903.26,23.21,
4210407,-0.03,-0.02,1.38,-6.53,6.9,12.33,903.24,23.23,
4210446,-0.03,-0.02,1.38,-6.41,6.77,12.33,903.32,23.23,
4210484,-0.03,-0.02,1.4,-6.41,7.2,12.33,903.3,23.22,
4210560,-0.03,-0.02,1.44,-6.1,6.96,12.45,903.26,23.19,
4210598,-0.02,-0.03,1.44,-6.23,6.77,12.27,903.26,23.2,
4210636,-0.03,-0.01,1.48,-6.23,6.35,12.33,903.26,23.21,
4210726,-0.02,-0.02,1.47,-6.35,5.49,12.51,903.3,23.18,
4210764,-0.02,-0.03,1.46,-6.65,5.13,12.57,903.3,23.18,
4210803,-0.03,-0.03,1.44,-6.47,4.88,12.63,903.31,23.2,
4210841,-0.02,-0.02,1.44,-6.65,4.82,12.51,903.29,23.18,
4210879,-0.01,-0.02,1.45,-6.71,4.52,12.39,903.26,23.2,
4210917,-0.01,-0.03,1.46,-6.77,3.97,12.57,903.31,23.2,
4210956,-0.01,-0.03,1.45,-7.14,4.03,12.39,903.34,23.2,
4211006,-0.02,-0.02,1.48,-6.96,3.54,12.45,903.25,23.19,
4211044,-0.0,-0.02,1.45,-7.26,2.75,12.45,903.33,23.19,
4211082,-0.01,-0.01,1.46,-7.08,2.38,12.39,903.33,23.2,
4211120,-0.02,-0.03,1.4,-7.08,2.69,12.21,903.31,23.18,
4211159,-0.02,-0.03,1.35,-7.26,2.81,12.15,903.34,23.2,
4211197,-0.0,-0.04,1.35,-7.08,3.11,11.9,903.35,23.19,
4211235,-0.02,-0.05,1.33,-7.2,3.3,11.9,903.31,23.18,
4211273,-0.01,-0.03,1.35,-7.2,3.17,11.72,903.3,23.18,
4211312,-0.02,-0.03,1.33,-7.2,3.6,11.29,903.32,23.19,
4211362,-0.0,-0.03,1.39,-7.63,3.36,11.6,903.31,23.17,
4211400,-0.0,-0.03,1.43,-7.39,2.69,11.54,903.31,23.18,
4211438,-0.01,-0.03,1.41,-7.87,2.44,11.17,903.35,23.19,
4211476,-0.01,-0.02,1.47,-7.75,2.14,11.23,903.33,23.18,
4211515,0.01,-0.03,1.44,-7.81,3.11,11.05,903.34,23.18,
4211553,-0.0,-0.02,1.48,-7.81,1.95,10.99,903.38,23.2,
4211591,-0.02,-0.02,1.47,-8.0,2.14,10.99,903.23,23.18,
4211629,-0.01,-0.03,1.49,-7.75,1.83,10.86,903.29,23.19,
4211668,0.0,-0.03,1.53,-7.69,1.34,10.62,903.26,23.19,
4211718,-0.01,-0.01,1.56,-6.96,0.37,10.68,903.25,23.18,
4211756,-0.01,-0.02,1.52,-6.71,0.85,10.19,903.31,23.19,
4211794,0.0,-0.01,1.53,-6.65,0.61,10.5,903.31,23.2,
4211832,-0.0,-0.02,1.5,-6.35,0.67,10.19,903.19,23.19,
4211870,-0.01,-0.02,1.47,-5.98,0.61,10.19,903.27,23.21,
4211909,-0.02,-0.02,1.47,-5.55,1.77,9.83,903.24,23.2,
4211947,-0.01,-0.02,1.45,-5.13,1.77,9.83,903.26,23.2,
4211985,-0.01,-0.02,1.46,-4.76,2.32,9.52,903.29,23.2,
4212023,-0.01,-0.04,1.42,-4.15,3.23,9.58,903.2,23.19,
4212062,-0.02,-0.04,1.41,-3.91,3.54,9.46,903.26,23.19,
4212112,-0.02,-0.03,1.34,-3.78,2.99,9.34,903.18,23.18,
4212150,-0.03,-0.04,1.32,-3.66,2.87,9.4,903.25,23.2,
4212188,-0.01,-0.04,1.28,-3.54,2.2,9.46,903.15,23.2,
4212226,-0.03,-0.04,1.26,-3.78,2.14,9.46,903.2,23.19,
4212264,-0.04,-0.05,1.22,-4.03,2.32,9.4,903.19,23.2,
4212303,-0.02,-0.04,1.24,-4.09,2.08,9.58,903.2,23.2,
4212341,-0.03,-0.04,1.23,-3.91,1.65,9.64,903.16,23.21,
4212379,-0.04,-0.05,1.26,-3.85,1.4,9.77,903.16,23.2,
4212417,-0.03,-0.05,1.24,-3.66,1.89,9.83,903.15,23.21,
4212467,-0.03,-0.04,1.24,-3.11,1.59,9.89,903.15,23.18,
4212505,-0.05,-0.05,1.2,-2.81,1.65,10.19,903.15,23.19,
4212544,-0.04,-0.05,1.21,-2.87,1.46,10.13,903.14,23.21,
4212582,-0.03,-0.05,1.22,-2.62,1.46,10.38,903.11,23.2,
4212620,-0.03,-0.05,1.21,-2.69,1.28,10.5,903.07,23.2,
4212658,-0.04,-0.04,1.18,-2.87,1.22,10.5,903.13,23.2,
4212697,-0.03,-0.04,1.19,-3.3,1.28,10.68,903.03,23.2,
4212735,-0.03,-0.05,1.16,-3.42,1.65,10.68,903.01,23.21,
4212773,-0.03,-0.05,1.15,-4.09,1.77,10.62,903.0,23.19,
4212823,-0.03,-0.05,1.13,-5.13,2.44,10.8,903.04,23.2,
4212861,-0.02,-0.05,1.14,-5.74,2.56,11.05,903.01,23.2,
4212900,-0.02,-0.06,1.18,-6.59,2.62,10.74,902.99,23.21,
4212938,-0.03,-0.06,1.17,-6.96,2.81,10.74,903.01,23.21,
4212976,-0.03,-0.05,1.2,-7.2,2.93,10.93,902.98,23.21,
4213014,-0.02,-0.04,1.22,-7.81,3.36,11.23,902.97,23.21,
4213052,-0.02,-0.04,1.23,-8.0,3.05,11.11,902.93,23.21,
4213091,-0.02,-0.04,1.27,-8.48,3.11,11.23,902.97,23.2,
4213129,-0.02,-0.04,1.3,-8.61,2.38,11.23,902.94,23.21,
4213167,-0.01,-0.03,1.33,-8.61,2.14,11.47,902.96,23.21,
4213217,-0.01,-0.03,1.35,-8.73,1.22,11.54,902.96,23.19,
4213255,-0.02,-0.02,1.38,-8.97,0.92,11.41,902.99,23.2,
4213293,-0.02,-0.01,1.47,-8.73,0.43,11.72,902.97,23.19,
4213332,-0.01,-0.01,1.5,-8.61,0.0,11.78,902.94,23.2,
4213370,-0.02,0.0,1.58,-8.12,-1.04,11.72,902.94,23.2,
4213408,-0.02,-0.0,1.54,-8.0,-0.37,11.78,902.9,23.2,
4213446,-0.01,0.0,1.55,-7.57,-0.06,11.66,902.91,23.21,
4213484,-0.01,-0.0,1.51,-7.2,0.79,11.54,902.9,23.2,
4213523,-0.02,0.01,1.48,-6.53,1.1,11.54,902.88,23.2,
4213600,-0.01,-0.01,1.43,-5.25,2.75,11.54,902.9,23.16,
4213638,-0.02,-0.01,1.45,-4.58,2.69,11.35,902.88,23.18,
4213676,-0.02,-0.02,1.43,-4.15,2.81,11.17,902.83,23.18,
4213766,-0.01,-0.02,1.34,-3.85,4.03,11.11,902.85,23.15,
4213804,-0.01,-0.03,1.3,-3.66,3.97,10.99,902.8,23.15,
4213843,-0.01,-0.03,1.28,-3.6,3.11,11.11,902.77,23.16,
4213881,-0.02,-0.03,1.27,-3.54,2.93,10.86,902.76,23.17,
4213919,-0.01,-0.03,1.29,-3.6,2.5,11.05,902.8,23.17,
4213957,-0.01,-0.04,1.24,-3.6,2.2,11.11,902.75,23.18,
4214007,-0.02,-0.03,1.24,-3.54,1.16,11.05,902.76,23.17,
4214046,-0.02,-0.04,1.18,-3.6,1.83,11.17,902.76,23.17,
4214084,-0.01,-0.03,1.18,-3.78,0.49,10.99,902.73,23.17,
4214122,-0.01,-0.04,1.16,-3.97,0.55,10.99,902.77,23.18,
4214160,-0.02,-0.04,1.16,-3.91,-0.18,10.99,902.77,23.17,
4214198,-0.02,-0.04,1.19,-3.85,0.12,10.8,902.78,23.17,
4214237,0.0,-0.05,1.14,-3.97,-0.24,10.62,902.73,23.17,
4214275,-0.02,-0.04,1.14,-3.97,-0.24,10.56,902.7,23.16,
4214313,-0.04,-0.04,1.09,-4.09,0.67,10.62,902.72,23.16,
4214351,-0.01,-0.04,1.1,-4.15,0.61,10.31,902.79,23.17,
4214401,-0.02,-0.04,1.1,-4.27,0.43,10.38,902.66,23.16,
4214440,-0.03,-0.04,1.1,-4.33,0.24,10.44,902.72,23.17,
4214478,-0.03,-0.05,1.1,-4.64,0.79,10.19,902.67,23.17,
4214516,-0.03,-0.05,1.07,-4.82,0.49,10.19,902.68,23.17,
4214554,-0.03,-0.05,1.11,-4.7,0.37,10.38,902.6,23.16,
4214592,-0.03,-0.05,1.07,-4.88,0.92,10.31,902.63,23.16,
4214631,-0.03,-0.04,1.12,-4.39,0.31,10.07,902.6,23.17,
4214669,-0.03,-0.05,1.12,-4.82,0.67,10.19,902.62,23.17,
4214707,-0.03,-0.04,1.17,-4.7,0.31,10.19,902.61,23.17,
4214757,-0.03,-0.03,1.18,-4.82,0.92,10.07,902.56,23.16,
4214795,-0.02,-0.04,1.24,-5.19,1.1,10.13,902.59,23.16,
4214834,-0.02,-0.03,1.22,-5.31,1.04,10.25,902.63,23.17,
4214872,-0.03,-0.03,1.22,-5.13,0.85,10.25,902.61,23.16,
4214910,-0.04,-0.04,1.17,-5.25,0.67,10.38,902.6,23.17,
4214948,-0.02,-0.03,1.18,-5.13,0.61,9.95,902.6,23.17,
4214986,-0.02,-0.04,1.16,-5.25,0.92,9.83,902.6,23.17,
4215025,-0.02,-0.05,1.13,-4.88,0.85,10.19,902.58,23.16,
4215063,-0.03,-0.06,1.08,-4.94,1.22,9.89,902.59,23.16,
4215113,-0.02,-0.04,1.1,-4.7,0.73,9.89,902.49,23.16,
4215151,-0.03,-0.04,1.04,-5.31,0.61,9.95,902.55,23.15,
4215189,-0.03,-0.05,1.08,-5.43,0.06,9.7,902.54,23.16,
4215228,-0.02,-0.06,1.07,-5.98,0.55,9.64,902.55,23.17,
4215266,-0.03,-0.05,1.07,-6.04,-0.06,9.7,902.52,23.16,
4215304,-0.03,-0.05,1.07,-6.35,0.37,9.77,902.44,23.16,
4215342,-0.02,-0.04,1.07,-6.47,0.61,9.64,902.42,23.17,
4215380,-0.02,-0.04,1.11,-6.47,0.24,9.7,902.45,23.17,
4215419,-0.04,-0.04,1.09,-6.77,0.12,9.52,902.46,23.18,
4215457,-0.03,-0.03,1.15,-6.96,-0.67,9.52,902.46,23.18,
4215507,-0.03,-0.04,1.2,-7.08,0.06,9.52,902.42,23.16,
4215545,-0.03,-0.02,1.26,-7.26,-0.98,9.58,902.44,23.18,
4215583,-0.04,-0.02,1.26,-7.57,-0.18,9.58,902.41,23.17,
4215621,-0.03,-0.02,1.25,-7.75,-0.79,9.64,902.39,23.17,
4215660,-0.05,-0.01,1.29,-7.57,-0.43,9.52,902.41,23.18,
4215698,-0.07,-0.02,1.25,-7.51,-0.24,9.89,902.39,23.17,
4215736,-0.03,-0.01,1.29,-7.14,-0.55,9.64,902.36,23.18,
4215774,-0.04,-0.02,1.24,-7.2,-0.06,9.58,902.36,23.19,
4215813,-0.07,-0.02,1.27,-6.84,-0.18,9.83,902.38,23.18,
4215863,-0.04,-0.02,1.24,-6.84,1.34,9.52,902.31,23.17,
4215901,-0.06,0.0,1.29,-6.47,0.61,9.89,902.34,23.18,
4215939,-0.06,-0.03,1.24,-6.59,1.4,10.07,902.32,23.18,
4215977,-0.05,-0.02,1.27,-6.71,1.34,9.95,902.29,23.17,
4216016,-0.05,-0.02,1.29,-6.65,1.89,10.38,902.33,23.19,
4216054,-0.06,-0.02,1.3,-6.47,1.34,10.38,902.31,23.19,
4216092,-0.08,-0.02,1.28,-6.47,1.16,10.56,902.35,23.18,
4216130,-0.05,-0.02,1.28,-6.29,0.73,10.68,902.29,23.19,
4216168,-0.06,-0.01,1.29,-6.41,0.67,10.86,902.3,23.2,
4216218,-0.08,0.0,1.31,-6.29,0.55,11.17,902.24,23.18,
4216257,-0.07,0.0,1.33,-6.16,1.16,11.23,902.22,23.18,
4216295,-0.07,-0.01,1.29,-6.53,1.4,11.23,902.24,23.17,
4216333,-0.07,-0.02,1.31,-6.65,0.98,11.54,902.26,23.18,
4216371,-0.07,-0.01,1.29,-6.53,1.89,11.54,902.27,23.18,
4216410,-0.07,-0.0,1.32,-6.59,2.56,11.54,902.25,23.19,
4216448,-0.07,0.01,1.32,-6.65,2.99,11.78,902.24,23.18,
4216486,-0.08,-0.01,1.35,-6.29,3.48,11.66,902.31,23.18,
4216524,-0.08,-0.02,1.29,-6.41,4.27,11.84,902.27,23.18,
4216563,-0.07,0.01,1.37,-6.23,3.85,11.78,902.29,23.18,
4216638,-0.07,-0.02,1.28,-5.8,4.46,12.15,902.32,23.15,
4216677,-0.08,-0.02,1.29,-5.74,5.25,12.33,902.31,23.17,
4216715,-0.07,-0.01,1.24,-5.49,5.43,12.51,902.37,23.17,
4216805,-0.07,-0.03,1.21,-5.13,5.19,13.06,902.32,23.13,
4216843,-0.06,-0.03,1.21,-5.31,5.13,13.18,902.33,23.14,
4216881,-0.06,-0.03,1.21,-4.82,4.46,13.49,902.37,23.16,
4216919,-0.07,-0.03,1.14,-5.0,4.64,13.67,902.29,23.15,
4216957,-0.06,-0.02,1.14,-4.94,4.64,13.67,902.31,23.16,
4216996,-0.06,-0.04,1.12,-5.13,5.13,13.98,902.33,23.17,
4217046,-0.07,-0.03,1.11,-5.07,4.7,13.79,902.32,23.16,
4217084,-0.06,-0.03,1.12,-5.25,5.43,13.98,902.33,23.15,
4217122,-0.05,-0.03,1.12,-5.13,5.37,13.98,902.33,23.16,
4217160,-0.07,-0.04,1.12,-5.13,4.76,14.4,902.36,23.16,
4217199,-0.07,-0.04,1.1,-5.43,4.88,14.59,902.4,23.17,
4217237,-0.06,-0.05,1.09,-5.86,4.76,14.65,902.39,23.17,
4217275,-0.06,-0.05,1.05,-6.29,4.33,14.83,902.41,23.16,
4217313,-0.07,-0.04,1.01,-6.41,4.21,14.95,902.38,23.17,
4217352,-0.06,-0.04,0.95,-6.96,4.21,15.14,902.34,23.17,
4217402,-0.05,-0.05,0.97,-7.32,2.75,15.32,902.35,23.16,
4217440,-0.05,-0.04,1.04,-7.81,2.32,15.5,902.34,23.16,
4217478,-0.06,-0.03,1.1,-8.06,2.93,15.81,902.34,23.17,
4217516,-0.06,-0.02,1.18,-8.67,2.81,15.81,902.39,23.16,
4217555,-0.06,-0.03,1.29,-8.24,2.62,15.87,902.39,23.17,
4217593,-0.05,-0.04,1.27,-8.67,3.72,15.99,902.39,23.16,
4217631,-0.04,-0.02,1.32,-8.42,3.54,16.17,902.44,23.17,
4217669,-0.04,-0.02,1.28,-8.67,4.46,16.24,902.39,23.16,
4217707,-0.06,-0.02,1.23,-8.79,5.13,16.36,902.41,23.18,
4217746,-0.03,-0.03,1.29,-8.61,5.98,16.48,902.45,23.16,
4217796,-0.03,-0.03,1.28,-8.18,6.1,16.54,902.45,23.15,
4217834,-0.02,-0.02,1.31,-7.75,5.8,16.66,902.43,23.16,
4217872,-0.01,-0.02,1.31,-7.57,6.9,16.54,902.5,23.16,
4217910,-0.01,-0.01,1.34,-7.2,7.08,16.36,902.52,23.17,
4217949,-0.01,-0.03,1.35,-7.02,6.59,16.66,902.51,23.16,
4217987,-0.02,-0.03,1.33,-6.71,6.71,16.54,902.52,23.17,
4218025,-0.01,-0.02,1.33,-6.65,7.14,16.36,902.5,23.17,
4218063,-0.01,-0.01,1.33,-6.65,6.84,16.48,902.53,23.16,
4218102,0.0,-0.03,1.33,-6.53,6.71,16.3,902.52,23.15,
4218152,-0.0,-0.03,1.29,-6.65,7.63,16.24,902.54,23.16,
4218190,0.0,-0.02,1.29,-7.02,7.93,16.17,902.53,23.16,
4218228,-0.0,-0.02,1.3,-6.9,8.24,16.24,902.51,23.16,
4218266,-0.0,-0.03,1.26,-7.08,8.54,15.93,902.54,23.16,
4218304,0.01,-0.03,1.3,-6.71,8.54,15.69,902.54,23.16,
4218343,0.01,-0.04,1.26,-6.9,9.34,15.75,902.64,23.17,
4218381,0.02,-0.03,1.26,-6.77,9.22,15.38,902.59,23.17,
4218419,0.01,-0.03,1.25,-6.65,9.52,15.62,902.6,23.18,
4218457,0.0,-0.03,1.24,-6.65,9.09,15.32,902.6,23.17,
4218496,0.01,-0.03,1.28,-6.47,9.03,15.14,902.66,23.17,
4218546,0.02,-0.03,1.29,-6.53,9.22,15.01,902.61,23.15,
4218584,0.02,-0.03,1.31,-6.47,8.06,15.14,902.61,23.16,
4218622,0.01,-0.03,1.32,-6.41,7.57,14.95,902.66,23.17,
4218660,0.02,-0.03,1.32,-6.59,7.26,14.83,902.66,23.16,
4218698,0.03,-0.03,1.31,-6.59,7.02,14.77,902.69,23.16,
4218737,0.02,-0.02,1.31,-6.47,5.37,14.83,902.69,23.17,
4218775,0.02,-0.02,1.34,-6.71,5.37,14.59,902.69,23.18,
4218813,0.01,-0.03,1.34,-6.65,5.55,14.47,902.69,23.16,
4218851,0.03,-0.02,1.41,-6.65,5.98,14.22,902.65,23.16,
4218901,0.03,-0.03,1.4,-6.84,5.8,14.04,902.66,23.15,
4218939,0.02,-0.03,1.4,-6.96,6.04,13.85,902.73,23.15,
4218978,0.03,-0.03,1.37,-7.08,6.9,13.37,902.72,23.16,
4219016,0.04,-0.02,1.37,-6.84,6.96,13.37,902.69,23.16,
4219054,0.03,-0.03,1.34,-6.9,6.96,13.12,902.74,23.17,
4219092,0.02,-0.03,1.34,-6.71,7.2,13.0,902.69,23.16,
4219131,0.03,-0.03,1.35,-6.65,7.75,12.7,902.71,23.16,
4219169,0.03,-0.03,1.37,-6.71,7.2,12.63,902.71,23.16,
4219207,0.02,-0.03,1.38,-6.65,7.32,12.39,902.76,23.17,
4219257,0.03,-0.03,1.37,-6.35,7.75,12.15,902.73,23.15,
4219295,0.03,-0.03,1.38,-6.35,7.81,11.78,902.71,23.16,
4219334,0.03,-0.03,1.37,-6.23,7.81,11.9,902.72,23.17,
4219372,0.02,-0.03,1.36,-6.16,7.75,11.66,902.74,23.16,
4219410,0.03,-0.03,1.34,-6.41,8.06,11.47,902.76,23.16,
4219448,0.02,-0.03,1.4,-6.29,7.26,11.47,902.74,23.17,
4219486,0.04,-0.04,1.39,-6.35,7.51,11.41,902.79,23.18,
4219525,0.04,-0.02,1.44,-6.29,6.77,11.23,902.81,23.18,
4219563,0.04,-0.02,1.43,-6.23,6.41,11.05,902.86,23.17,
4219601,0.04,-0.02,1.45,-6.16,5.43,10.93,902.86,23.18,
4219677,0.04,-0.03,1.48,-6.35,3.97,10.38,902.88,23.14,
4219715,0.05,-0.02,1.47,-6.29,3.6,10.01,902.9,23.16,
4219754,0.05,-0.03,1.48,-5.92,3.54,9.83,902.88,23.16,
4219843,0.03,-0.03,1.43,-5.25,2.87,9.09,902.92,23.13,
4219881,0.04,-0.04,1.42,-4.94,2.93,8.61,902.92,23.14,
4219920,0.04,-0.04,1.34,-4.58,3.54,8.0,902.87,23.15,
4219958,0.04,-0.03,1.36,-4.21,2.62,7.93,902.91,23.14,
4219996,0.03,-0.03,1.38,-4.21,3.17,7.51,902.9,23.15,
4220034,0.03,-0.04,1.34,-3.91,3.97,6.96,902.88,23.16,
4220073,0.02,-0.03,1.37,-4.03,4.03,6.65,902.92,23.14,
4220122,0.03,-0.06,1.36,-3.91,4.94,6.47,902.91,23.13,
4220161,0.02,-0.04,1.38,-3.54,4.15,6.1,902.98,23.16,
4220199,0.02,-0.04,1.33,-3.54,4.52,5.8,902.98,23.16,
4220237,0.01,-0.03,1.33,-3.23,3.48,5.62,902.94,23.16,
4220275,-0.0,-0.04,1.36,-3.23,3.23,5.98,902.93,23.15,
4220314,0.01,-0.05,1.33,-3.05,2.87,5.68,902.9,23.15,
4220352,0.0,-0.05,1.33,-2.62,1.77,5.68,902.95,23.15,
4220390,0.01,-0.04,1.34,-2.38,1.22,5.68,902.93,23.16,
4220428,0.01,-0.05,1.34,-2.2,1.34,5.74,902.93,23.16,
4220478,-0.01,-0.04,1.34,-1.4,1.59,5.55,902.93,23.14,
4220516,0.0,-0.05,1.3,-1.59,1.77,5.25,902.88,23.13,
4220554,-0.01,-0.03,1.33,-1.59,0.79,5.13,902.92,23.15,
4220593,-0.02,-0.04,1.37,-1.59,1.59,5.19,902.92,23.16,
4220631,-0.0,-0.04,1.38,-1.46,1.59,4.88,902.89,23.15,
4220669,0.0,-0.03,1.4,-1.46,1.89,4.76,902.9,23.15,
4220707,-0.06,-0.04,1.36,-1.34,2.69,4.82,902.91,23.16,
4220745,-0.03,-0.04,1.34,-1.28,4.09,4.7,902.8,23.16,
4220784,-0.03,-0.04,1.33,-1.16,5.07,4.21,902.83,23.16,
4220822,-0.04,-0.05,1.3,-1.28,4.7,4.21,902.87,23.17,
4220872,-0.02,-0.05,1.29,-1.22,5.86,4.21,902.8,23.14,
4220910,-0.04,-0.05,1.23,-1.22,6.35,4.33,902.87,23.15,
4220948,-0.04,-0.05,1.22,-1.22,6.23,4.52,902.84,23.16,
4220986,-0.05,-0.05,1.16,-1.53,6.41,4.64,902.84,23.15,
4221025,-0.05,-0.05,1.19,-1.34,6.16,4.76,902.85,23.16,
4221063,-0.05,-0.06,1.16,-1.46,5.92,5.25,902.76,23.16,
4221101,-0.05,-0.05,1.17,-1.53,4.46,5.37,902.88,23.16,
4221139,-0.04,-0.05,1.16,-1.83,4.58,5.68,902.77,23.16,
4221177,-0.05,-0.05,1.16,-1.71,3.85,5.86,902.82,23.16,
4221227,-0.05,-0.05,1.15,-1.77,3.42,6.29,902.87,23.16,
4221266,-0.05,-0.05,1.16,-1.83,3.3,6.47,902.75,23.14,
4221304,-0.03,-0.05,1.18,-2.01,3.05,6.53,902.77,23.15,
4221342,-0.03,-0.05,1.18,-2.2,3.17,6.77,902.73,23.15,
4221380,-0.05,-0.05,1.19,-2.56,3.23,7.02,902.69,23.15,
4221418,-0.04,-0.06,1.2,-2.69,3.48,7.14,902.72,23.14,
4221457,-0.04,-0.05,1.2,-2.87,3.54,7.14,902.76,23.15,
4221495,-0.04,-0.05,1.24,-2.87,3.91,7.26,902.69,23.14,
4221533,-0.04,-0.05,1.21,-2.81,4.46,7.32,902.77,23.16,
4221571,-0.05,-0.05,1.21,-2.62,4.7,7.51,902.7,23.15,
4221621,-0.03,-0.06,1.17,-2.69,4.64,7.63,902.78,23.13,
4221660,-0.04,-0.04,1.19,-2.81,4.82,7.75,902.68,23.14,
4221698,-0.04,-0.05,1.19,-2.2,5.25,7.69,902.72,23.14,
4221736,-0.04,-0.06,1.16,-2.32,5.13,7.69,902.7,23.14,
4221774,-0.04,-0.05,1.16,-2.01,5.37,8.0,902.72,23.14,
4221812,-0.05,-0.06,1.15,-1.71,5.19,8.42,902.68,23.14,
4221851,-0.05,-0.05,1.14,-1.71,4.64,8.24,902.69,23.13,
4221889,-0.04,-0.06,1.11,-1.53,4.33,8.54,902.74,23.13,
4221927,-0.04,-0.06,1.09,-1.59,3.97,8.67,902.69,23.12,
4221977,-0.04,-0.06,1.07,-1.4,3.85,8.97,902.66,23.11,
4222015,-0.04,-0.06,1.06,-1.53,3.66,9.09,902.66,23.11,
4222053,-0.03,-0.06,1.1,-1.46,3.48,9.03,902.67,23.11,
4222092,-0.03,-0.07,1.11,-1.46,3.6,9.09,902.72,23.11,
4222130,-0.04,-0.06,1.11,-1.53,3.3,9.34,902.69,23.11,
4222168,-0.04,-0.06,1.15,-1.59,3.6,9.22,902.63,23.11,
4222206,-0.03,-0.06,1.1,-1.71,4.46,9.34,902.58,23.1,
4222245,-0.03,-0.06,1.15,-1.71,3.42,9.34,902.54,23.11,
4222283,-0.04,-0.07,1.14,-1.95,3.66,9.34,902.56,23.11,
4222321,-0.04,-0.06,1.13,-2.14,3.72,9.46,902.58,23.11,
4222371,-0.02,-0.04,1.18,-2.38,4.15,9.46,902.54,23.11,
4222409,-0.02,-0.05,1.15,-2.56,3.72,9.4,902.55,23.1,
4222447,-0.04,-0.05,1.22,-2.56,3.42,9.34,902.54,23.11,
4222486,-0.04,-0.06,1.23,-2.99,4.03,9.58,902.52,23.11,
4222524,-0.03,-0.05,1.26,-2.62,2.75,9.52,902.5,23.11,
4222562,-0.04,-0.05,1.23,-2.87,3.48,9.64,902.49,23.12,
4222600,-0.02,-0.05,1.23,-2.44,2.81,9.77,902.51,23.12,
4222638,-0.02,-0.05,1.19,-2.69,3.05,9.58,902.51,23.12,
4222677,-0.03,-0.05,1.18,-2.56,2.2,9.95,902.52,23.12,
4222753,-0.03,-0.04,1.18,-2.75,1.83,9.77,902.43,23.09,
4222791,-0.02,-0.05,1.2,-2.93,1.71,9.89,902.44,23.12,
4222829,-0.01,-0.06,1.16,-3.36,2.01,9.95,902.41,23.11,
4222919,-0.02,-0.05,1.19,-3.6,2.32,10.01,902.39,23.09,
4222957,-0.02,-0.04,1.22,-3.6,2.75,9.89,902.4,23.11,
4222995,-0.03,-0.05,1.21,-3.17,2.32,9.83,902.44,23.12,
4223033,-0.02,-0.05,1.23,-3.17,2.32,9.89,902.41,23.12,
4223072,-0.02,-0.05,1.21,-3.11,2.87,9.7,902.35,23.13,
4223110,-0.01,-0.05,1.21,-2.93,2.56,9.64,902.41,23.11,
4223148,-0.04,-0.05,1.21,-2.75,2.69,9.77,902.38,23.13,
4223198,-0.01,-0.05,1.21,-2.62,2.62,9.7,902.39,23.11,
4223236,-0.01,-0.04,1.23,-2.2,1.95,9.4,902.32,23.12,
4223274,-0.02,-0.06,1.19,-2.2,2.08,9.52,902.39,23.13,
4223313,-0.02,-0.05,1.19,-2.14,1.65,9.52,902.36,23.11,
4223351,-0.01,-0.05,1.16,-2.26,1.59,9.52,902.32,23.12,
4223389,-0.01,-0.05,1.15,-2.14,0.73,9.4,902.3,23.11,
4223427,-0.03,-0.05,1.15,-1.95,1.1,9.16,902.28,23.11,
4223466,-0.01,-0.05,1.11,-2.2,0.85,9.16,902.25,23.12,
4223504,-0.02,-0.05,1.16,-2.32,0.0,9.16,902.22,23.11,
4223554,-0.03,-0.06,1.13,-2.44,0.12,9.09,902.24,23.1,
4223592,-0.02,-0.05,1.19,-2.44,-0.18,8.97,902.25,23.12,
4223630,-0.01,-0.06,1.18,-2.44,0.67,8.97,902.24,23.12,
4223668,-0.03,-0.05,1.18,-2.2,-0.31,8.73,902.22,23.12,
4223706,-0.03,-0.05,1.22,-2.26,0.43,8.67,902.19,23.12,
4223744,-0.02,-0.06,1.17,-2.32,1.34,8.54,902.25,23.13,
4223783,-0.02,-0.04,1.21,-2.08,0.79,8.36,902.15,23.14,
4223821,-0.03,-0.06,1.17,-2.01,1.28,8.48,902.17,23.13,
4223859,-0.03,-0.05,1.19,-1.83,1.1,8.3,902.21,23.15,
4223897,-0.01,-0.05,1.17,-1.95,1.95,8.24,902.13,23.14,
4223947,-0.01,-0.05,1.21,-1.77,1.04,8.3,902.09,23.13,
4223985,-0.03,-0.06,1.18,-1.89,1.53,8.12,902.15,23.13,
4224024,-0.03,-0.05,1.2,-1.83,1.77,8.18,902.15,23.14,
4224062,-0.0,-0.06,1.2,-1.83,1.59,8.12,902.06,23.14,
4224100,-0.02,-0.05,1.19,-1.71,0.79,8.0,902.03,23.13,
4224138,-0.02,-0.05,1.18,-1.59,0.79,7.87,902.07,23.13,
4224177,0.0,-0.05,1.17,-1.4,0.37,7.87,902.1,23.14,
4224215,-0.0,-0.05,1.16,-1.46,-0.12,8.0,902.03,23.14,
4224253,-0.02,-0.06,1.14,-1.53,-0.24,7.81,902.02,23.13,
4224303,-0.0,-0.06,1.13,-1.53,-0.24,7.63,901.95,23.13,
4224341,-0.01,-0.06,1.13,-1.59,0.18,7.57,901.96,23.12,
4224379,-0.0,-0.06,1.14,-1.46,0.37,7.32,901.95,23.13,
4224418,-0.02,-0.05,1.13,-1.4,1.22,7.26,901.9,23.13,
4224456,-0.02,-0.06,1.12,-1.53,1.28,7.26,901.92,23.13,
4224494,-0.01,-0.06,1.12,-1.46,1.83,7.02,901.93,23.15,
4224532,-0.02,-0.06,1.11,-1.95,2.26,6.9,901.88,23.14,
4224570,-0.02,-0.05,1.14,-1.71,2.56,6.59,901.95,23.14,
4224609,-0.02,-0.05,1.14,-1.65,2.99,6.65,901.88,23.15,
4224659,-0.03,-0.05,1.15,-1.59,3.05,6.9,901.83,23.13,
4224697,-0.04,-0.06,1.16,-1.46,3.6,6.77,901.84,23.13,
4224735,-0.03,-0.05,1.15,-1.4,3.6,6.84,901.81,23.14,
4224773,-0.04,-0.05,1.17,-0.98,3.48,6.77,901.78,23.14,
4224811,-0.04,-0.06,1.12,-0.92,3.85,6.96,901.79,23.13,
4224850,-0.04,-0.06,1.08,-0.67,4.15,7.2,901.8,23.14,
4224888,-0.03,-0.06,1.04,-0.61,4.7,7.08,901.78,23.14,
4224926,-0.03,-0.06,1.0,-0.43,3.85,7.32,901.71,23.15,
4224964,-0.04,-0.06,0.98,-0.37,3.23,7.45,901.7,23.14,
4225002,-0.02,-0.06,0.98,-0.73,3.23,7.75,901.7,23.15,
4225052,-0.02,-0.06,0.99,-1.34,1.59,7.81,901.71,23.14,
4225091,-0.04,-0.06,1.04,-1.71,0.31,8.0,901.71,23.14,
4225129,-0.02,-0.07,1.06,-1.95,0.49,7.81,901.66,23.14,
4225167,-0.01,-0.07,1.1,-2.2,0.18,8.18,901.65,23.14,
4225205,-0.02,-0.07,1.03,-2.5,0.31,8.3,901.63,23.15,
4225243,-0.03,-0.07,1.01,-2.62,-0.06,8.06,901.68,23.15,
4225282,-0.03,-0.06,0.99,-2.99,0.31,8.24,901.69,23.15,
4225320,-0.01,-0.07,0.98,-2.93,0.12,8.24,901.61,23.16,
4225358,-0.02,-0.07,0.96,-3.17,0.43,8.12,901.6,23.16,
4225408,-0.02,-0.07,0.99,-2.93,0.79,8.24,901.56,23.14,
4225446,-0.02,-0.07,0.96,-3.66,0.67,8.0,901.54,23.14,
4225484,-0.01,-0.07,1.01,-3.48,0.92,8.0,901.52,23.15,
4225523,-0.02,-0.08,0.98,-4.39,1.83,7.93,901.46,23.14,
4225561,-0.03,-0.06,0.99,-5.07,1.1,8.0,901.52,23.15,
4225599,-0.01,-0.06,1.0,-5.92,1.77,7.81,901.54,23.15,
4225637,-0.03,-0.05,1.06,-6.71,1.59,7.93,901.43,23.14,
4225676,-0.02,-0.06,1.12,-7.32,2.56,8.06,901.46,23.14,
4225714,-0.03,-0.06,1.16,-7.93,2.87,7.81,901.5,23.15,
4225752,-0.03,-0.04,1.26,-7.93,3.48,7.75,901.51,23.14,
4225828,-0.02,-0.04,1.34,-7.87,3.91,7.51,901.45,23.12,
4225866,-0.03,-0.04,1.35,-7.75,4.64,7.69,901.39,23.11,
4225905,-0.03,-0.02,1.36,-7.26,4.76,7.57,901.4,23.13,
4225995,-0.03,-0.02,1.42,-6.35,5.55,7.57,901.36,23.1,
4226033,-0.02,-0.02,1.44,-5.98,6.04,7.39,901.36,23.11,
4226071,-0.02,-0.01,1.46,-5.55,5.86,7.39,901.31,23.1,
4226109,-0.03,-0.01,1.48,-5.07,5.19,7.57,901.29,23.11,
4226148,-0.04,-0.02,1.45,-4.76,4.76,7.57,901.26,23.12,
4226186,-0.04,-0.02,1.47,-4.15,3.6,7.93,901.27,23.12,
4226236,-0.03,-0.03,1.4,-3.6,3.05,8.0,901.3,23.1,
4226274,-0.05,-0.01,1.38,-2.99,1.95,8.06,901.26,23.12,
4226312,-0.03,-0.03,1.36,-2.62,1.16,8.48,901.29,23.12,
4226350,-0.05,-0.04,1.33,-2.2,-0.12,8.48,901.23,23.13,
4226389,-0.05,-0.03,1.3,-2.14,-0.24,8.67,901.2,23.12,
4226427,-0.04,-0.04,1.27,-2.2,-0.92,8.61,901.22,23.11,
4226465,-0.05,-0.04,1.25,-1.89,-0.79,8.79,901.2,23.13,
4226503,-0.05,-0.05,1.17,-1.65,-0.55,8.91,901.14,23.12,
4226542,-0.04,-0.05,1.16,-1.28,-0.24,8.91,901.18,23.13,
4226580,-0.04,-0.05,1.09,-1.46,0.0,8.97,901.13,23.12,
4226630,-0.05,-0.05,1.05,-1.22,-0.06,8.97,901.12,23.11,
4226668,-0.05,-0.05,1.05,-1.1,0.24,9.03,901.06,23.13,
4226706,-0.04,-0.07,1.03,-0.98,0.31,8.91,901.04,23.13,
4226745,-0.06,-0.04,1.07,-1.1,-0.67,8.91,900.99,23.13,
4226783,-0.06,-0.06,1.08,-1.1,0.0,9.34,901.04,23.15,
4226821,-0.04,-0.06,1.05,-1.4,-0.31,9.28,900.94,23.13,
4226859,-0.05,-0.06,1.06,-1.4,-0.98,9.28,900.95,23.14,
4226897,-0.06,-0.06,1.04,-1.83,-1.16,9.52,900.97,23.13,
4226936,-0.05,-0.06,1.04,-2.08,-1.59,9.52,900.97,23.14,
4226986,-0.05,-0.05,1.05,-2.38,-2.5,9.58,900.89,23.13,
4227024,-0.06,-0.06,1.04,-2.69,-3.05,9.89,900.94,23.14,
4227062,-0.05,-0.07,1.06,-2.87,-3.23,9.77,900.89,23.13,
4227100,-0.05,-0.06,1.04,-3.23,-3.36,10.01,900.91,23.14,
4227139,-0.04,-0.06,1.02,-3.42,-3.6,10.07,900.89,23.13,
4227177,-0.06,-0.06,0.94,-3.91,-2.93,10.01,900.85,23.13,
4227215,-0.06,-0.05,0.97,-3.91,-3.3,10.07,900.8,23.13,
4227253,-0.04,-0.07,0.96,-3.85,-2.99,10.31,900.88,23.14,
4227292,-0.05,-0.06,0.97,-4.15,-2.87,10.19,900.87,23.15,
4227341,-0.05,-0.05,1.02,-4.46,-2.01,10.38,900.82,23.14,
4227380,-0.06,-0.05,1.04,-4.7,-2.32,10.56,900.8,23.13,
4227418,-0.05,-0.05,1.1,-4.76,-2.01,10.68,900.77,23.13,
4227456,-0.05,-0.06,1.12,-4.76,-2.01,10.56,900.74,23.13,
4227494,-0.06,-0.05,1.13,-4.76,-1.1,10.93,900.77,23.13,
4227533,-0.06,-0.04,1.11,-4.7,-0.85,10.93,900.81,23.14,
4227571,-0.04,-0.04,1.13,-4.33,-0.18,10.74,900.74,23.14,
4227609,-0.04,-0.04,1.13,-4.58,0.06,10.99,900.74,23.12,
4227647,-0.05,-0.04,1.18,-4.09,-0.06,10.93,900.7,23.13,
4227697,-0.05,-0.04,1.15,-3.97,0.61,10.99,900.78,23.11,
4227735,-0.03,-0.04,1.2,-3.6,1.04,10.93,900.81,23.13,
4227774,-0.02,-0.04,1.17,-3.54,1.83,10.86,900.76,23.14,
4227812,-0.02,-0.04,1.16,-3.11,1.46,11.05,900.77,23.13,
4227850,-0.01,-0.05,1.1,-2.99,2.2,10.74,900.7,23.13,
4227888,-0.01,-0.04,1.08,-3.05,2.38,10.62,900.71,23.13,
4227927,-0.0,-0.05,1.07,-3.11,2.99,10.5,900.72,23.13,
4227965,-0.01,-0.04,1.05,-3.3,2.99,10.25,900.63,23.13,
4228003,-0.01,-0.05,1.06,-3.36,3.11,9.95,900.65,23.13,
4228041,-0.01,-0.06,1.06,-3.72,2.87,10.07,900.66,23.14,
4228091,-0.0,-0.05,1.09,-4.33,2.81,9.77,900.62,23.13,
4228129,-0.01,-0.05,1.09,-4.76,2.62,9.34,900.61,23.12,
4228167,-0.01,-0.05,1.1,-5.25,2.38,9.28,900.64,23.14,
4228206,-0.02,-0.05,1.1,-5.55,2.2,8.91,900.56,23.13,
4228244,-0.02,-0.04,1.13,-5.8,2.38,8.91,900.61,23.13,
4228282,-0.01,-0.03,1.15,-5.98,2.32,8.67,900.61,23.12,
4228320,-0.02,-0.03,1.17,-5.86,2.44,8.48,900.52,23.13,
4228359,-0.02,-0.03,1.17,-5.86,2.32,8.3,900.58,23.13,
4228397,-0.03,-0.03,1.19,-5.62,2.5,8.0,900.59,23.13,
4228447,-0.03,-0.03,1.2,-5.37,2.44,8.0,900.54,23.11,
4228485,-0.03,-0.03,1.19,-5.13,2.87,7.87,900.52,23.11,
4228523,-0.03,-0.03,1.21,-4.52,2.5,7.69,900.49,23.11,
4228562,-0.02,-0.03,1.23,-4.21,3.3,7.69,900.53,23.13,
4228600,-0.03,-0.0,1.2,-3.48,3.17,7.39,900.53,23.11,
4228638,-0.04,-0.03,1.2,-2.93,3.85,7.39,900.52,23.11,
4228676,-0.03,-0.04,1.15,-2.56,4.33,7.08,900.53,23.11,
4228715,-0.04,-0.03,1.16,-1.95,4.39,7.08,900.5,23.11,
4228753,-0.04,-0.04,1.12,-1.4,4.64,7.02,900.48,23.11,
4228791,-0.04,-0.04,1.11,-1.28,4.64,6.84,900.44,23.11,
4228867,-0.05,-0.04,1.06,-0.49,5.13,6.71,900.4,23.09,
4228905,-0.05,-0.03,1.07,0.06,4.39,6.9,900.39,23.09,
4228944,-0.06,-0.04,1.03,0.49,4.82,6.96,900.42,23.11,
4229033,-0.05,-0.05,1.0,1.46,4.46,6.9,900.42,23.08,
4229072,-0.06,-0.04,0.98,2.14,3.91,7.26,900.36,23.08,
4229110,-0.06,-0.04,0.95,2.32,4.33,7.2,900.38,23.1,
4229148,-0.06,-0.04,0.92,2.44,4.03,7.32,900.37,23.09,
4229186,-0.07,-0.05,0.9,2.81,4.15,7.45,900.37,23.1,
4229225,-0.08,-0.05,0.84,2.69,4.03,7.69,900.36,23.09,
4229275,-0.07,-0.05,0.82,3.11,4.21,7.87,900.34,23.09,
4229313,-0.07,-0.05,0.77,2.75,4.52,8.0,900.34,23.09,
4229351,-0.06,-0.05,0.81,3.05,4.21,8.24,900.32,23.1,
4229389,-0.07,-0.05,0.75,2.56,4.58,8.36,900.35,23.11,
4229427,-0.07,-0.04,0.76,2.5,4.76,8.48,900.25,23.1,
4229466,-0.07,-0.06,0.73,1.89,5.68,8.61,900.31,23.1,
4229504,-0.06,-0.06,0.75,1.34,4.58,8.67,900.3,23.11,
4229542,-0.07,-0.06,0.74,0.67,4.58,8.91,900.25,23.11,
4229580,-0.07,-0.06,0.76,-0.18,4.33,8.97,900.23,23.11,
4229619,-0.06,-0.05,0.8,-1.04,4.7,9.16,900.28,23.11,
4229669,-0.06,-0.04,0.83,-2.01,4.15,9.4,900.26,23.11,
4229707,-0.06,-0.05,0.87,-2.26,4.09,9.52,900.25,23.11,
4229745,-0.07,-0.06,0.86,-3.3,4.39,9.77,900.15,23.11,
4229783,-0.06,-0.04,0.93,-3.54,3.91,9.7,900.24,23.12,
4229822,-0.07,-0.04,0.94,-4.15,4.09,9.89,900.24,23.11,
4229860,-0.08,-0.04,0.98,-4.39,3.78,10.01,900.2,23.11,
4229898,-0.08,-0.04,1.0,-4.52,4.15,10.13,900.26,23.11,
4229936,-0.07,-0.03,1.04,-4.58,3.78,10.5,900.2,23.11,
4229975,-0.08,-0.03,1.05,-4.76,3.6,10.38,900.26,23.11,
4230025,-0.08,-0.03,1.08,-4.64,3.36,10.62,900.22,23.1,
4230063,-0.08,-0.02,1.11,-4.58,3.36,10.74,900.24,23.11,
4230101,-0.08,-0.02,1.14,-4.64,3.23,10.93,900.18,23.11,
4230139,-0.08,-0.01,1.19,-4.52,2.44,10.93,900.18,23.11,
4230177,-0.07,-0.02,1.23,-4.76,2.62,10.93,900.19,23.1,
4230216,-0.07,-0.02,1.24,-4.82,2.75,11.05,900.21,23.12,
4230254,-0.08,-0.01,1.29,-4.88,2.44,10.99,900.21,23.12,
4230292,-0.07,-0.01,1.31,-4.76,2.26,11.05,900.19,23.12,
4230330,-0.07,-0.0,1.34,-4.33,2.32,11.05,900.2,23.13,
4230369,-0.07,-0.01,1.33,-4.09,2.2,11.11,900.2,23.1,
4230419,-0.07,-0.01,1.33,-3.85,2.32,10.86,900.19,23.1,
4230457,-0.08,-0.01,1.34,-3.6,2.01,11.11,900.26,23.1,
4230495,-0.08,-0.01,1.34,-3.36,2.32,11.17,900.27,23.09,
4230533,-0.07,-0.01,1.31,-3.36,1.46,11.11,900.23,23.09,
4230572,-0.08,-0.0,1.33,-3.23,1.16,11.23,900.25,23.11,
4230610,-0.08,-0.01,1.3,-3.17,1.04,11.11,900.25,23.1,
4230648,-0.07,-0.01,1.35,-3.11,0.49,11.35,900.23,23.1,
4230686,-0.07,-0.01,1.31,-3.11,0.24,11.35,900.22,23.11,
4230724,-0.09,-0.0,1.34,-2.93,-0.43,11.23,900.27,23.11,
4230774,-0.07,-0.02,1.34,-2.87,-0.18,11.29,900.24,23.1,
4230813,-0.07,-0.02,1.32,-3.05,-0.67,11.29,900.27,23.11,
4230851,-0.08,-0.01,1.31,-2.87,-0.85,11.29,900.25,23.11,
4230889,-0.08,-0.02,1.26,-3.3,-0.49,11.29,900.32,23.12,
4230927,-0.06,-0.02,1.25,-3.11,-0.37,11.29,900.25,23.11,
4230966,-0.07,-0.03,1.27,-3.05,-1.22,11.47,900.29,23.11,
4231004,-0.08,-0.03,1.21,-3.23,-0.61,11.41,900.36,23.12,
4231042,-0.08,-0.03,1.21,-3.36,-0.31,11.17,900.33,23.11,
4231080,-0.07,-0.03,1.16,-3.85,0.24,11.11,900.31,23.13,
4231130,-0.08,-0.03,1.18,-4.09,0.06,11.47,900.26,23.11,
4231169,-0.08,-0.04,1.17,-4.46,0.67,11.11,900.23,23.11,
4231207,-0.07,-0.02,1.22,-4.88,0.18,11.23,900.3,23.12,
4231245,-0.07,-0.02,1.26,-5.13,-0.06,11.29,900.31,23.11,
4231283,-0.08,-0.03,1.24,-5.25,-0.12,11.54,900.33,23.12,
4231322,-0.08,-0.03,1.27,-5.43,0.37,11.47,900.28,23.12,
4231360,-0.07,-0.03,1.28,-5.49,0.37,11.6,900.34,23.12,
4231398,-0.07,-0.03,1.26,-5.43,0.85,11.47,900.41,23.13,
4231436,-0.07,-0.03,1.24,-5.25,0.67,11.54,900.35,23.12,
4231486,-0.08,-0.03,1.24,-5.25,1.16,11.66,900.37,23.11,
4231525,-0.07,-0.04,1.18,-5.37,1.46,11.6,900.38,23.12,
4231563,-0.05,-0.03,1.26,-5.68,1.53,11.6,900.37,23.13,
4231601,-0.07,-0.04,1.22,-6.47,1.83,11.72,900.35,23.12,
4231639,-0.07,-0.04,1.17,-7.14,1.77,11.84,900.38,23.12,
4231677,-0.06,-0.04,1.23,-7.45,2.87,11.66,900.34,23.13,
4231716,-0.04,-0.03,1.2,-7.93,3.17,11.72,900.33,23.12,
4231754,-0.05,-0.04,1.24,-7.93,2.69,11.84,900.34,23.11,
4231792,-0.05,-0.04,1.23,-8.18,2.38,11.78,900.33,23.12,
4231830,-0.06,-0.04,1.28,-8.24,1.65,12.02,900.33,23.11,
4231908,-0.06,-0.03,1.19,-8.48,0.31,12.02,900.42,23.09,
4231946,-0.05,-0.04,1.24,-8.61,0.0,12.15,900.34,23.1,
4231984,-0.05,-0.07,1.2,-8.36,-0.43,12.02,900.38,23.09,
4232074,-0.05,-0.05,1.22,-8.24,-0.43,12.21,900.36,23.06,
4232112,-0.06,-0.05,1.23,-8.36,-0.43,12.08,900.42,23.07,
4232150,-0.08,-0.04,1.25,-8.42,-0.31,12.08,900.37,23.08,
4232189,-0.06,-0.04,1.32,-8.3,-0.06,12.27,900.38,23.07,
4232227,-0.05,-0.05,1.3,-8.54,-0.18,12.15,900.35,23.09,
4232265,-0.06,-0.02,1.39,-8.42,-0.12,12.15,900.31,23.07,
4232315,-0.04,-0.02,1.41,-8.48,0.85,12.15,900.37,23.08,
4232353,-0.05,-0.04,1.46,-8.12,0.73,11.9,900.48,23.1,
4232392,-0.06,-0.05,1.43,-8.36,1.77,11.78,900.41,23.09,
4232430,-0.07,-0.03,1.45,-8.18,1.89,11.96,900.46,23.09,
4232468,-0.05,-0.02,1.44,-8.18,2.44,11.78,900.39,23.1,
4232506,-0.05,-0.02,1.43,-8.12,1.95,11.6,900.39,23.09,
4232545,-0.04,-0.03,1.4,-8.48,3.05,11.54,900.41,23.1,
4232583,-0.05,-0.02,1.47,-8.61,3.48,11.47,900.47,23.1,
4232621,-0.03,-0.02,1.44,-8.85,3.72,11.35,900.33,23.1,
4232671,-0.05,-0.0,1.54,-8.85,2.75,11.41,900.41,23.1,
4232709,-0.04,-0.03,1.51,-9.22,2.87,11.23,900.36,23.1,
4232748,-0.03,-0.01,1.59,-9.16,2.32,10.93,900.42,23.11,
4232786,-0.04,0.0,1.56,-9.34,3.6,11.17,900.41,23.11,
4232824,-0.04,0.02,1.6,-9.16,2.87,10.99,900.47,23.11,
4232862,-0.02,-0.01,1.65,-8.67,3.36,10.8,900.43,23.11,
4232901,-0.05,-0.03,1.58,-8.42,2.69,10.8,900.42,23.11,
4232939,-0.06,-0.03,1.58,-8.12,2.08,10.74,900.41,23.12,
4232977,-0.05,-0.02,1.46,-7.81,2.14,10.93,900.42,23.11,
4233015,-0.04,-0.03,1.37,-7.63,0.67,11.05,900.4,23.1,
4233065,-0.05,-0.06,1.31,-6.9,0.73,10.8,900.45,23.11,
4233104,-0.05,-0.05,1.25,-6.9,0.92,10.86,900.5,23.11,
4233142,-0.05,-0.05,1.22,-6.53,0.61,10.8,900.43,23.12,
4233180,-0.05,-0.05,1.2,-6.59,0.12,10.68,900.42,23.12,
4233218,-0.05,-0.08,1.21,-6.41,0.12,10.86,900.47,23.12,
4233257,-0.04,-0.08,1.2,-6.53,0.18,10.68,900.47,23.12,
4233295,-0.05,-0.06,1.19,-6.65,0.18,10.8,900.44,23.12,
4233333,-0.05,-0.05,1.16,-6.9,0.0,10.74,900.37,23.11,
4233371,-0.05,-0.06,1.15,-7.45,0.18,10.8,900.41,23.13,
4233421,-0.05,-0.06,1.2,-8.18,0.0,10.74,900.41,23.11,
4233459,-0.04,-0.06,1.2,-8.85,0.31,10.62,900.4,23.11,
4233498,-0.06,-0.04,1.31,-8.48,0.06,10.68,900.49,23.12,
4233536,-0.05,-0.08,1.23,-8.97,2.2,10.68,900.46,23.11,
4233574,-0.04,-0.06,1.29,-8.24,2.38,10.8,900.44,23.12,
4233612,-0.05,-0.07,1.29,-8.12,2.93,10.8,900.45,23.12,
4233651,-0.06,-0.07,1.2,-7.87,2.56,10.74,900.49,23.13,
4233689,-0.02,-0.06,1.26,-7.75,2.81,10.68,900.45,23.12,
4233727,-0.0,-0.07,1.24,-8.0,2.81,10.5,900.47,23.11,
4233777,-0.03,-0.06,1.32,-8.06,2.01,10.56,900.41,23.11,
4233815,-0.04,-0.06,1.31,-8.61,3.05,10.38,900.44,23.11,
4233854,-0.03,-0.04,1.37,-8.79,2.87,10.19,900.41,23.13,
4233892,-0.03,-0.04,1.38,-9.28,3.36,10.13,900.43,23.12,
4233930,-0.02,-0.05,1.36,-9.52,3.85,10.01,900.41,23.11,
4233968,-0.03,-0.05,1.33,-9.58,2.99,10.01,900.41,23.13,
4234007,-0.04,-0.05,1.28,-9.89,2.69,9.83,900.45,23.14,
4234045,-0.04,-0.05,1.28,-9.89,1.65,9.95,900.38,23.13,
4234083,-0.04,-0.07,1.24,-10.44,2.56,9.58,900.42,23.13,
4234121,-0.05,-0.06,1.24,-10.93,2.81,9.64,900.36,23.13,
4234171,-0.04,-0.06,1.24,-10.86,2.81,9.52,900.44,23.12,
4234210,-0.04,-0.04,1.28,-11.23,2.44,9.64,900.42,23.14,
4234248,-0.03,-0.04,1.31,-11.41,2.75,9.64,900.34,23.11,
4234286,-0.04,-0.06,1.31,-10.74,2.5,9.83,900.47,23.13,
4234324,-0.07,-0.05,1.31,-10.31,2.26,9.7,900.35,23.13,
4234363,-0.05,-0.05,1.32,-9.83,2.38,9.7,900.32,23.14,
4234401,-0.06,-0.03,1.35,-9.58,3.05,9.52,900.36,23.13,
4234439,-0.06,-0.05,1.34,-9.52,3.11,9.52,900.38,23.13,
4234477,-0.04,-0.05,1.36,-9.22,3.3,9.52,900.41,23.14,
4234527,-0.08,-0.03,1.37,-8.0,3.66,9.52,900.38,23.12,
4234566,-0.06,-0.03,1.37,-7.69,4.82,9.83,900.37,23.13,
4234604,-0.06,-0.03,1.41,-7.26,4.52,9.95,900.3,23.12,
4234642,-0.06,-0.03,1.45,-6.47,4.21,9.83,900.36,23.13,
4234680,-0.08,-0.05,1.38,-5.86,4.39,10.07,900.33,23.14,
4234719,-0.07,-0.03,1.36,-5.62,4.88,10.07,900.37,23.13,
4234757,-0.06,-0.04,1.33,-4.7,3.97,10.38,900.37,23.14,
4234795,-0.07,-0.05,1.25,-4.82,3.36,10.68,900.35,23.12,
4234833,-0.09,-0.05,1.29,-4.27,2.69,10.8,900.41,23.14,
4234909,-0.06,-0.04,1.3,-3.23,1.95,11.23,900.37,23.11,
4234948,-0.07,-0.05,1.26,-3.48,2.56,11.54,900.39,23.12,
4234986,-0.06,-0.05,1.29,-2.87,2.69,11.54,900.36,23.11,
4235076,-0.06,-0.05,1.23,-3.97,2.56,12.15,900.39,23.1,
4235114,-0.06,-0.05,1.22,-4.39,2.62,12.08,900.37,23.1,
4235152,-0.05,-0.06,1.26,-5.0,2.01,12.27,900.4,23.1,
4235190,-0.04,-0.07,1.26,-5.74,1.65,12.33,900.37,23.11,
4235229,-0.06,-0.06,1.26,-6.23,1.77,12.51,900.39,23.11,
4235267,-0.04,-0.05,1.29,-6.84,2.62,12.51,900.38,23.11,
4235305,-0.04,-0.05,1.25,-7.26,2.93,12.51,900.36,23.12,
4235355,-0.06,-0.05,1.32,-7.93,3.11,12.39,900.3,23.1,
4235393,-0.04,-0.05,1.35,-8.85,3.42,12.45,900.4,23.12,
4235432,-0.03,-0.03,1.43,-9.34,2.99,12.51,900.35,23.13,
4235470,-0.04,-0.04,1.41,-9.64,3.6,12.39,900.4,23.12,
4235508,-0.04,-0.02,1.47,-9.46,3.72,12.39,900.38,23.12,
4235546,-0.03,-0.04,1.45,-9.16,4.27,12.45,900.41,23.12,
4235585,-0.02,-0.05,1.44,-8.73,3.97,12.45,900.38,23.12,
4235623,-0.04,-0.04,1.46,-8.54,4.27,12.45,900.44,23.12,
4235661,-0.03,-0.04,1.45,-8.36,3.97,12.27,900.43,23.13,
4235711,-0.05,-0.03,1.43,-7.93,3.6,12.51,900.43,23.11,
4235750,-0.05,-0.04,1.42,-7.69,4.15,12.33,900.38,23.11,
4235788,-0.03,-0.04,1.4,-7.45,4.39,12.33,900.4,23.12,
4235826,-0.04,-0.02,1.44,-7.2,4.15,12.27,900.38,23.12,
4235864,-0.05,-0.05,1.42,-7.14,5.07,12.21,900.37,23.12,
4235903,-0.05,-0.04,1.42,-6.96,4.88,12.21,900.36,23.12,
4235941,-0.03,-0.05,1.42,-6.77,5.19,12.51,900.38,23.12,
4235979,-0.05,-0.04,1.35,-6.9,5.19,12.02,900.39,23.13,
4236017,-0.04,-0.03,1.4,-6.35,4.82,12.21,900.38,23.13,
4236067,-0.05,-0.05,1.35,-6.47,4.64,12.27,900.38,23.1,
4236106,-0.04,-0.05,1.38,-6.47,3.78,12.51,900.41,23.12,
4236144,-0.03,-0.06,1.34,-6.77,3.97,12.45,900.45,23.12,
4236182,-0.05,-0.05,1.3,-6.77,3.6,12.39,900.41,23.12,
4236220,-0.04,-0.05,1.27,-6.9,4.03,12.63,900.4,23.12,
4236259,-0.03,-0.05,1.27,-6.9,3.54,12.45,900.44,23.14,
4236297,-0.04,-0.07,1.22,-6.96,4.15,12.45,900.39,23.12,
4236335,-0.04,-0.06,1.2,-7.02,4.03,12.45,900.4,23.14,
4236373,-0.04,-0.06,1.21,-7.14,4.21,12.45,900.43,23.12,
4236412,-0.02,-0.06,1.2,-7.51,3.85,12.33,900.41,23.13,
4236462,-0.04,-0.06,1.16,-7.75,4.46,12.57,900.43,23.11,
4236500,-0.04,-0.06,1.17,-7.69,4.15,12.45,900.42,23.13,
4236538,-0.03,-0.06,1.16,-8.0,3.85,12.45,900.46,23.13,
4236576,-0.04,-0.05,1.19,-8.12,2.44,12.57,900.44,23.12,
4236615,-0.03,-0.05,1.26,-8.06,1.83,12.57,900.43,23.13,
4236653,-0.04,-0.05,1.25,-8.61,1.34,12.7,900.4,23.13,
4236691,-0.03,-0.04,1.33,-8.61,0.67,12.82,900.4,23.13,
4236730,-0.03,-0.05,1.29,-9.09,0.61,12.88,900.43,23.13,
4236768,-0.03,-0.04,1.34,-8.61,-0.12,13.0,900.42,23.11,
4236818,-0.04,-0.04,1.34,-8.48,0.0,13.06,900.48,23.12,
4236856,-0.04,-0.03,1.38,-8.61,-1.16,13.0,900.46,23.11,
4236894,-0.03,-0.04,1.37,-8.73,-0.18,13.12,900.44,23.13,
4236932,-0.04,-0.04,1.34,-8.54,-0.12,12.94,900.45,23.13,
4236971,-0.04,-0.03,1.36,-8.3,0.37,13.06,900.43,23.12,
4237009,-0.02,-0.04,1.34,-8.18,0.55,12.82,900.46,23.12,
4237047,-0.04,-0.03,1.33,-7.87,1.1,12.88,900.47,23.12,
4237085,-0.04,-0.03,1.34,-7.69,1.65,12.76,900.48,23.12,
4237124,-0.03,-0.03,1.35,-7.2,1.16,12.94,900.46,23.12,
4237174,-0.05,-0.03,1.32,-7.08,2.08,12.88,900.48,23.11,
4237212,-0.03,-0.03,1.37,-6.9,2.01,12.82,900.43,23.11,
4237250,-0.01,-0.03,1.39,-6.59,2.5,12.94,900.47,23.12,
4237288,-0.03,-0.03,1.35,-6.41,1.77,13.06,900.48,23.11,
4237327,-0.03,-0.02,1.35,-6.35,2.01,12.94,900.48,23.14,
4237365,-0.04,-0.03,1.35,-6.59,2.5,13.24,900.48,23.12,
4237403,-0.02,-0.04,1.31,-6.65,1.4,13.06,900.44,23.12,
4237441,-0.03,-0.0,1.34,-6.59,1.04,13.0,900.46,23.12,
4237480,-0.03,-0.04,1.27,-7.08,1.95,13.18,900.45,23.12,
4237530,-0.0,-0.02,1.36,-6.84,0.92,13.12,900.51,23.12,
4237568,-0.02,-0.03,1.32,-7.14,0.73,13.06,900.43,23.12,
4237606,-0.03,-0.02,1.34,-6.96,-0.06,13.43,900.5,23.13,
4237644,-0.02,-0.02,1.36,-6.96,0.24,13.24,900.49,23.11,
4237683,-0.02,-0.02,1.36,-6.96,-0.43,13.31,900.45,23.12,
4237721,-0.01,-0.03,1.33,-7.26,-0.55,13.24,900.44,23.11,
4237759,-0.02,-0.02,1.34,-7.14,-0.61,13.31,900.49,23.12,
4237797,-0.03,-0.03,1.31,-7.08,0.0,13.24,900.49,23.12,
4237836,-0.03,-0.03,1.29,-7.26,0.18,13.12,900.45,23.13,
4237874,-0.01,-0.02,1.31,-6.96,1.71,13.12,900.47,23.13,
4237950,-0.04,-0.02,1.32,-6.71,1.95,13.0,900.44,23.1,
4237988,-0.03,-0.04,1.3,-6.47,2.69,12.88,900.49,23.12,
4238026,-0.02,-0.04,1.32,-6.47,2.26,12.94,900.48,23.11,
4238116,-0.03,-0.05,1.14,-6.1,4.27,12.82,900.5,23.07,
4238154,-0.03,-0.05,1.1,-5.68,5.43,12.57,900.5,23.09,
4238193,-0.03,-0.05,1.03,-6.1,6.53,12.57,900.53,23.1,
4238231,-0.02,-0.05,1.04,-5.8,6.77,12.57,900.45,23.11,
4238269,-0.02,-0.05,1.04,-5.86,6.9,12.51,900.54,23.11,
4238307,-0.02,-0.05,1.08,-6.16,7.32,12.51,900.52,23.11,
4238357,-0.01,-0.06,1.12,-6.59,7.32,12.51,900.51,23.11,
4238396,-0.03,-0.05,1.14,-6.65,7.45,12.39,900.49,23.11,
4238434,-0.03,-0.05,1.12,-7.32,7.69,12.51,900.54,23.12,
4238472,-0.02,-0.05,1.13,-7.75,7.45,12.45,900.45,23.11,
4238510,-0.01,-0.05,1.13,-8.0,7.14,12.45,900.5,23.1,
4238548,-0.02,-0.05,1.14,-8.24,6.59,12.27,900.51,23.13,
4238587,-0.02,-0.04,1.17,-8.42,6.23,12.33,900.53,23.12,
4238625,-0.02,-0.05,1.2,-8.54,6.23,12.27,900.53,23.13,
4238663,-0.02,-0.05,1.23,-8.73,5.8,12.21,900.55,23.13,
4238713,-0.03,-0.04,1.27,-8.54,5.55,12.51,900.56,23.12,
4238751,-0.04,-0.04,1.27,-8.79,5.37,12.57,900.58,23.12,
4238789,-0.03,-0.04,1.26,-8.85,5.13,12.33,900.61,23.13,
4238828,-0.04,-0.04,1.29,-8.67,4.58,12.7,900.62,23.13,
4238866,-0.04,-0.04,1.27,-8.79,4.52,12.76,900.59,23.13,
4238904,-0.04,-0.03,1.31,-8.61,4.39,12.7,900.68,23.15,
4238942,-0.03,-0.04,1.32,-8.42,4.58,12.7,900.65,23.14,
4238981,-0.03,-0.04,1.33,-8.61,4.33,12.63,900.62,23.14,
4239019,-0.03,-0.03,1.35,-8.61,4.76,12.57,900.63,23.13,
4239057,-0.03,-0.04,1.33,-8.79,5.49,12.63,900.65,23.13,
4239107,-0.02,-0.03,1.38,-8.85,5.25,12.45,900.63,23.11,
4239145,-0.03,-0.03,1.36,-8.85,5.55,12.7,900.68,23.12,
4239184,-0.04,-0.03,1.36,-8.91,5.8,12.45,900.66,23.12,
4239222,-0.03,-0.02,1.39,-9.16,5.92,12.27,900.66,23.11,
4239260,-0.03,-0.02,1.4,-9.09,5.92,12.27,900.65,23.13,
4239298,-0.04,-0.02,1.45,-9.03,5.92,12.27,900.68,23.13,
4239337,-0.05,-0.02,1.46,-9.22,6.84,11.9,900.74,23.13,
4239375,-0.02,-0.01,1.52,-8.73,6.9,11.96,900.66,23.13,
4239413,-0.04,-0.0,1.53,-8.54,6.47,12.21,900.73,23.13,
4239463,-0.04,-0.01,1.5,-8.36,5.8,12.39,900.8,23.1,
4239501,-0.04,-0.02,1.49,-8.0,5.62,12.39,900.78,23.13,
4239540,-0.04,-0.02,1.48,-7.57,5.25,12.45,900.78,23.12,
4239578,-0.04,-0.01,1.46,-7.45,4.82,12.51,900.83,23.12,
4239616,-0.03,-0.02,1.42,-7.51,5.62,12.39,900.79,23.12,
4239654,-0.03,-0.02,1.42,-7.51,5.98,12.51,900.78,23.13,
4239693,-0.03,-0.02,1.43,-7.39,5.13,12.39,900.73,23.12,
4239731,-0.03,-0.03,1.43,-7.26,4.46,12.51,900.82,23.12,
4239769,-0.05,-0.01,1.47,-7.14,3.85,12.21,900.78,23.13,
4239819,-0.01,-0.02,1.46,-7.08,3.48,12.27,900.82,23.11,
4239857,-0.03,-0.01,1.46,-6.96,2.93,12.33,900.83,23.13,
4239896,-0.06,-0.02,1.42,-6.77,3.17,12.51,900.84,23.12,
4239934,-0.04,-0.02,1.42,-6.71,3.17,12.21,900.83,23.12,
4239972,-0.04,-0.02,1.45,-6.53,2.93,12.27,900.83,23.12,
4240010,-0.03,-0.02,1.4,-6.59,2.69,12.51,900.82,23.12,
4240049,-0.03,-0.02,1.42,-6.59,2.62,12.08,900.84,23.13,
4240087,-0.05,-0.03,1.37,-6.96,3.23,12.45,900.82,23.13,
4240125,-0.04,-0.02,1.39,-6.77,3.11,12.45,900.84,23.13,
4240163,-0.04,-0.02,1.39,-6.84,2.93,12.33,900.9,23.13,
4240213,-0.05,-0.03,1.39,-6.84,3.6,12.27,900.9,23.12,
4240251,-0.04,-0.02,1.39,-6.9,3.85,12.21,900.92,23.12,
4240290,-0.04,-0.02,1.39,-6.53,4.76,12.21,900.9,23.14,
4240328,-0.04,-0.03,1.39,-6.35,5.49,12.21,900.9,23.13,
4240366,-0.04,-0.02,1.4,-6.29,6.35,11.96,900.93,23.12,
4240404,-0.05,-0.03,1.41,-6.41,6.96,12.15,900.9,23.13,
4240443,-0.04,-0.02,1.41,-6.35,6.65,12.15,900.87,23.11,
4240481,-0.04,-0.02,1.41,-6.41,6.84,12.08,900.92,23.13,
4240519,-0.03,-0.02,1.41,-6.53,6.47,12.21,900.92,23.13,
4240569,-0.03,-0.02,1.44,-6.53,6.04,12.27,900.94,23.12,
4240607,-0.04,-0.02,1.46,-6.77,5.49,12.27,900.97,23.12,
4240646,-0.04,-0.01,1.49,-6.77,5.0,12.51,900.98,23.12,
4240684,-0.04,-0.01,1.47,-7.02,5.13,12.51,900.98,23.12,
4240722,-0.02,-0.01,1.49,-7.08,4.52,12.51,900.94,23.12,
4240760,-0.03,-0.01,1.49,-6.84,4.15,12.33,900.97,23.13,
4240799,-0.02,-0.01,1.49,-7.02,3.48,12.7,900.96,23.12,
4240837,-0.03,-0.01,1.53,-7.08,3.05,12.51,901.04,23.11,
4240875,-0.03,-0.01,1.51,-6.71,3.17,12.63,901.01,23.12,
4240951,-0.03,-0.01,1.51,-6.9,3.05,12.33,900.96,23.1,
4240989,-0.04,-0.01,1.51,-6.65,3.11,12.45,901.0,23.12,
4241027,-0.03,-0.02,1.47,-6.71,3.42,12.45,901.02,23.12,
4241117,-0.03,-0.02,1.45,-6.65,3.78,12.08,901.01,23.08,
4241155,-0.03,-0.01,1.45,-6.59,3.6,12.15,901.02,23.1,
4241194,-0.03,-0.01,1.45,-6.71,3.78,12.02,901.06,23.1,
4241232,-0.03,-0.01,1.48,-6.59,3.36,11.96,901.07,23.11,
4241270,-0.02,-0.02,1.45,-6.77,3.78,12.08,901.06,23.1,
4241308,-0.03,-0.02,1.46,-6.65,3.78,11.9,901.04,23.1,
4241358,-0.02,-0.02,1.43,-6.59,4.09,11.72,901.01,23.1,
4241397,-0.03,-0.02,1.43,-6.41,3.6,11.84,901.04,23.11,
4241435,-0.03,-0.02,1.42,-6.41,3.91,11.72,901.1,23.12,
4241473,-0.02,-0.03,1.4,-6.29,3.72,11.9,901.01,23.11,
4241511,-0.02,-0.02,1.42,-6.29,3.66,11.72,901.05,23.11,
4241550,-0.03,-0.02,1.39,-6.16,3.54,11.66,901.02,23.11,
4241588,-0.03,-0.03,1.41,-6.23,3.42,11.66,901.02,23.11,
4241626,-0.03,-0.04,1.38,-6.16,3.72,11.47,901.0,23.13,
4241664,-0.02,-0.02,1.41,-6.16,3.17,11.47,901.07,23.13,
4241703,-0.04,-0.03,1.35,-6.35,3.72,11.47,901.0,23.1,
4241753,-0.03,-0.03,1.37,-6.29,3.54,11.41,901.02,23.1,
4241791,-0.02,-0.04,1.32,-6.1,3.54,11.47,901.05,23.13,
4241829,-0.04,-0.03,1.32,-6.29,3.05,11.54,901.0,23.12,
4241867,-0.03,-0.04,1.31,-6.35,3.3,11.66,901.05,23.12,
4241906,-0.03,-0.04,1.31,-6.35,2.87,11.66,901.02,23.12,
4241944,-0.03,-0.03,1.31,-6.41,2.38,11.66,901.03,23.13,
4241982,-0.04,-0.04,1.3,-6.29,1.65,11.66,900.97,23.11,
4242020,-0.04,-0.04,1.3,-6.29,2.08,11.78,900.98,23.13,
4242059,-0.03,-0.04,1.31,-6.16,2.26,11.6,901.0,23.13,
4242109,-0.03,-0.03,1.33,-6.16,2.62,11.6,901.02,23.12,
4242147,-0.03,-0.04,1.32,-6.16,2.99,11.54,901.02,23.13,
4242185,-0.03,-0.04,1.3,-5.86,3.05,11.54,901.03,23.13,
4242223,-0.03,-0.03,1.31,-6.04,3.3,11.41,901.07,23.12,
4242262,-0.02,-0.04,1.3,-5.92,3.78,11.41,901.0,23.12,
4242300,-0.02,-0.03,1.3,-5.92,3.91,11.41,901.06,23.12,
4242338,-0.03,-0.03,1.29,-5.8,4.15,11.41,901.01,23.12,
4242376,-0.02,-0.04,1.29,-5.74,3.91,11.41,901.0,23.13,
4242415,-0.03,-0.04,1.26,-5.86,3.78,11.41,901.06,23.13,
4242465,-0.03,-0.04,1.28,-5.8,3.78,11.41,901.0,23.12,
4242503,-0.03,-0.05,1.25,-5.62,3.66,11.41,901.05,23.13,
4242541,-0.03,-0.04,1.24,-5.74,3.17,11.23,901.04,23.14,
4242579,-0.02,-0.04,1.22,-6.04,3.36,11.35,901.01,23.13,
4242618,-0.03,-0.03,1.23,-5.98,2.93,11.47,901.04,23.13,
4242656,-0.03,-0.04,1.24,-6.16,3.17,11.6,900.98,23.13,
4242694,-0.03,-0.04,1.24,-6.16,3.05,11.47,901.03,23.13,
4242732,-0.04,-0.04,1.26,-6.35,3.11,11.41,900.93,23.13,
4242771,-0.02,-0.04,1.27,-6.23,2.62,11.6,900.97,23.13,
4242809,-0.03,-0.04,1.25,-6.35,2.93,11.47,900.99,23.13,
4242859,-0.03,-0.04,1.28,-6.16,3.11,11.47,900.98,23.12,
4242897,-0.03,-0.04,1.27,-6.35,3.48,11.54,900.96,23.11,
4242935,-0.03,-0.03,1.27,-6.29,3.23,11.35,900.95,23.13,
4242974,-0.02,-0.04,1.27,-6.16,3.48,11.35,900.97,23.11,
4243012,-0.03,-0.04,1.27,-6.23,3.3,11.29,901.0,23.12,
4243050,-0.03,-0.04,1.27,-6.23,2.99,11.23,900.96,23.12,
4243088,-0.03,-0.04,1.27,-6.04,3.17,11.29,900.99,23.12,
4243127,-0.02,-0.03,1.28,-6.29,3.48,11.29,900.94,23.1,
4243165,-0.02,-0.03,1.3,-6.23,3.42,11.41,900.94,23.13,
4243215,-0.02,-0.04,1.31,-6.29,3.72,11.35,900.89,23.1,
4243253,-0.02,-0.03,1.35,-6.1,3.48,11.23,900.94,23.11,
4243291,-0.03,-0.03,1.33,-6.23,3.48,11.35,900.97,23.12,
4243330,-0.03,-0.02,1.37,-6.04,4.09,11.23,900.9,23.1,
4243368,-0.02,-0.02,1.35,-6.23,4.94,11.05,900.92,23.1,
4243406,-0.03,-0.01,1.4,-5.98,5.37,10.93,900.89,23.1,
4243444,-0.03,-0.02,1.42,-5.92,5.86,11.05,900.88,23.11,
4243483,-0.02,-0.02,1.44,-5.74,5.98,10.99,900.88,23.11,
4243521,-0.03,-0.0,1.46,-5.43,5.98,10.99,900.88,23.11,
4243571,-0.03,-0.01,1.47,-5.07,4.94,10.99,900.92,23.11,
4243609,-0.02,-0.02,1.43,-5.31,5.25,11.11,900.9,23.11,
4243647,-0.02,-0.02,1.48,-4.76,4.27,11.29,900.9,23.11,
4243686,-0.03,-0.04,1.38,-4.88,4.94,11.23,900.87,23.12,
4243724,-0.02,-0.02,1.4,-4.46,3.54,11.35,900.9,23.13,
4243762,-0.01,-0.03,1.35,-4.33,4.33,11.29,900.87,23.12,
4243800,-0.03,-0.03,1.32,-4.09,3.05,11.29,900.89,23.13,
4243839,-0.04,-0.04,1.29,-3.97,3.36,11.41,900.87,23.12,
4243877,-0.03,-0.04,1.27,-3.91,2.14,11.47,900.89,23.13,
4243915,-0.03,-0.03,1.3,-3.85,1.65,11.66,900.88,23.13,
4243991,-0.03,-0.02,1.27,-4.15,1.22,11.78,900.81,23.1,
4244029,-0.02,-0.03,1.32,-4.15,0.61,11.9,900.82,23.1,
4244068,-0.03,-0.03,1.34,-4.33,-0.24,12.15,900.79,23.12,
4244157,-0.02,-0.03,1.31,-4.82,-0.06,12.15,900.74,23.07,
4244196,-0.03,-0.03,1.28,-4.94,0.43,12.21,900.78,23.09,
4244234,-0.03,-0.04,1.24,-5.13,0.37,12.21,900.75,23.1,
4244272,-0.02,-0.02,1.27,-5.19,0.67,11.96,900.72,23.1,
4244310,-0.01,-0.04,1.24,-5.49,1.77,11.96,900.71,23.11,
4244349,-0.02,-0.04,1.27,-5.62,1.46,11.84,900.74,23.11,
4244398,-0.02,-0.03,1.28,-5.55,2.62,11.72,900.72,23.1,
4244437,-0.02,-0.03,1.32,-5.25,2.99,11.6,900.72,23.11,
4244475,-0.02,-0.03,1.31,-5.07,3.05,11.66,900.72,23.11,
4244513,-0.03,-0.03,1.31,-5.07,3.36,11.41,900.75,23.12,
4244551,-0.02,-0.03,1.28,-5.0,4.03,11.41,900.75,23.11,
4244590,-0.02,-0.03,1.29,-4.88,3.97,11.41,900.74,23.12,
4244628,-0.01,-0.02,1.29,-4.94,3.42,11.35,900.73,23.11,
4244666,-0.03,-0.03,1.24,-5.13,3.97,11.47,900.73,23.11,
4244704,-0.03,-0.02,1.26,-4.88,3.85,11.54,900.67,23.12,
4244754,-0.02,-0.03,1.25,-4.64,4.27,11.47,900.69,23.1,
4244793,-0.02,-0.03,1.23,-4.82,4.39,11.47,900.65,23.11,
4244831,-0.03,-0.04,1.23,-4.52,4.76,11.29,900.68,23.11,
4244869,-0.02,-0.03,1.21,-4.33,4.52,11.47,900.7,23.12,
4244907,-0.03,-0.03,1.2,-4.21,4.7,11.54,900.67,23.12,
4244946,-0.03,-0.03,1.18,-4.33,4.33,11.66,900.67,23.12,
4244984,-0.02,-0.04,1.17,-4.46,4.58,11.54,900.63,23.13,
4245022,-0.02,-0.04,1.17,-4.58,4.7,11.54,900.65,23.13,
4245060,-0.01,-0.03,1.16,-5.07,4.33,11.84,900.67,23.13,
4245110,-0.02,-0.04,1.18,-5.37,4.64,11.66,900.66,23.11,
4245149,-0.0,-0.02,1.21,-5.37,3.36,11.84,900.62,23.12,
4245187,-0.01,-0.01,1.28,-5.68,3.42,12.02,900.6,23.12,
4245225,-0.03,-0.03,1.31,-6.04,2.93,11.9,900.63,23.13,
4245263,-0.01,-0.02,1.39,-5.86,2.93,11.6,900.59,23.13,
4245302,-0.01,-0.01,1.44,-5.8,3.6,11.54,900.6,23.12,
4245340,-0.01,-0.0,1.43,-5.43,3.17,11.72,900.58,23.12,
4245378,-0.02,-0.01,1.38,-5.19,3.91,11.47,900.58,23.12,
4245416,-0.02,-0.02,1.35,-5.07,3.66,11.54,900.56,23.13,
4245455,-0.02,-0.03,1.32,-4.82,3.97,11.41,900.59,23.13,
4245505,-0.03,-0.02,1.3,-4.46,3.66,11.17,900.56,23.11,
4245543,0.0,-0.03,1.3,-4.27,4.09,10.93,900.55,23.12,
4245581,-0.0,-0.03,1.29,-4.58,4.03,10.62,900.52,23.14,
4245619,-0.01,-0.04,1.28,-4.64,3.6,10.86,900.49,23.12,
4245658,-0.03,-0.03,1.27,-4.94,3.42,10.8,900.51,23.13,
4245696,-0.04,-0.03,1.25,-4.94,3.6,10.62,900.48,23.11,
4245734,-0.03,-0.03,1.23,-4.76,3.66,10.74,900.46,23.13,
4245772,-0.02,-0.04,1.2,-4.76,3.42,10.56,900.48,23.13,
4245811,-0.02,-0.04,1.21,-4.52,3.54,10.62,900.55,23.12,
4245861,-0.02,-0.04,1.19,-4.46,4.39,10.74,900.5,23.12,
4245899,-0.02,-0.03,1.22,-4.15,4.03,10.68,900.43,23.12,
4245937,-0.02,-0.04,1.18,-4.03,4.21,10.68,900.45,23.13,
4245975,-0.03,-0.04,1.17,-3.78,4.27,10.5,900.45,23.13,
4246014,-0.02,-0.04,1.13,-4.09,4.76,10.5,900.37,23.12,
4246052,-0.02,-0.03,1.15,-3.97,4.27,10.31,900.41,23.12,
4246090,-0.03,-0.05,1.12,-4.27,5.07,10.44,900.41,23.13,
4246128,-0.02,-0.04,1.13,-4.46,4.88,10.25,900.37,23.13,
4246167,-0.02,-0.04,1.15,-4.64,5.07,10.38,900.39,23.11,
4246217,-0.03,-0.04,1.12,-4.76,5.49,10.25,900.34,23.11,
4246255,-0.03,-0.04,1.13,-5.13,5.37,10.19,900.35,23.11,
4246293,-0.01,-0.04,1.16,-5.0,6.1,10.07,900.42,23.12,
4246331,-0.02,-0.05,1.12,-5.19,6.1,10.01,900.41,23.12,
4246370,-0.03,-0.04,1.18,-5.07,6.29,9.95,900.35,23.12,
4246408,-0.02,-0.04,1.16,-5.31,6.71,9.95,900.37,23.12,
4246446,-0.03,-0.04,1.22,-5.13,6.35,9.89,900.35,23.11,
4246484,-0.02,-0.04,1.19,-5.37,6.96,9.83,900.28,23.12,
4246523,-0.03,-0.02,1.25,-5.07,6.71,9.83,900.33,23.13,
4246561,-0.02,-0.02,1.28,-5.19,6.77,9.95,900.33,23.13,
4246611,-0.03,-0.02,1.3,-5.07,6.9,9.95,900.27,23.1,
4246649,-0.05,-0.02,1.31,-5.13,6.59,9.95,900.28,23.12,
4246687,-0.04,-0.02,1.33,-5.0,6.71,10.07,900.27,23.12,
4246726,-0.02,-0.01,1.32,-5.13,6.47,10.19,900.29,23.12,
4246764,-0.02,-0.02,1.32,-4.88,6.23,10.13,900.31,23.12,
4246802,-0.03,-0.02,1.27,-4.88,6.9,10.19,900.3,23.13,
4246840,-0.02,-0.02,1.3,-4.7,5.92,10.5,900.26,23.12,
4246879,-0.01,-0.02,1.3,-4.46,5.62,10.44,900.25,23.12,
4246917,-0.04,-0.03,1.27,-4.33,5.31,10.25,900.28,23.12,
4246993,-0.01,-0.02,1.32,-4.58,5.13,10.44,900.26,23.09,
4247031,-0.04,-0.03,1.26,-4.58,5.0,10.38,900.23,23.1,
4247069,-0.03,-0.03,1.28,-4.39,5.43,10.56,900.24,23.11,
4247159,-0.03,-0.03,1.25,-4.09,5.92,10.31,900.18,23.06,
4247197,-0.03,-0.03,1.25,-4.33,5.98,10.13,900.17,23.09,
4247235,-0.02,-0.04,1.28,-4.15,5.8,10.13,900.18,23.07,
4247274,-0.01,-0.04,1.26,-4.39,4.76,10.38,900.17,23.09,
4247312,-0.02,-0.03,1.25,-4.7,4.46,10.25,900.11,23.1,
4247350,-0.01,-0.03,1.22,-4.7,4.15,10.19,900.17,23.11,
4247388,-0.02,-0.03,1.23,-4.7,4.52,10.07,900.12,23.11,
4247438,-0.02,-0.04,1.21,-4.58,5.0,9.89,900.01,23.08,
4247477,-0.02,-0.04,1.26,-4.64,4.64,9.89,900.1,23.11,
4247515,-0.03,-0.03,1.26,-4.46,5.07,9.64,900.1,23.1,
4247553,-0.02,-0.03,1.28,-4.46,5.0,9.4,900.02,23.1,
4247591,-0.01,-0.03,1.28,-4.46,5.37,9.52,900.07,23.1,
4247629,-0.02,-0.04,1.26,-4.58,4.94,9.46,900.04,23.1,
4247668,-0.03,-0.04,1.23,-4.76,5.55,9.46,900.07,23.12,
4247706,-0.02,-0.04,1.21,-4.58,5.8,9.4,900.0,23.12,
4247744,-0.06,-0.03,1.22,-4.52,5.25,9.4,900.06,23.12,
4247794,-0.04,-0.05,1.17,-4.39,6.16,9.58,899.98,23.11,
4247832,-0.03,-0.04,1.2,-4.27,5.37,9.58,899.99,23.11,
4247871,-0.02,-0.04,1.16,-4.64,5.74,9.52,899.94,23.11,
4247909,-0.04,-0.03,1.17,-4.76,4.58,9.77,899.97,23.11,
4247947,-0.04,-0.04,1.25,-4.76,5.74,10.01,899.91,23.12,
4247985,-0.02,-0.05,1.2,-5.37,5.8,10.13,899.92,23.12,
4248024,-0.05,-0.02,1.32,-4.88,4.27,10.07,899.89,23.11,
4248062,-0.04,-0.04,1.26,-5.43,5.25,10.44,899.91,23.11,
4248100,-0.01,-0.03,1.31,-5.25,3.85,10.25,899.91,23.13,
4248150,-0.03,-0.03,1.28,-5.07,4.76,10.38,899.91,23.12,
4248188,-0.03,-0.04,1.28,-5.0,4.58,10.56,899.83,23.11,
4248227,-0.03,-0.03,1.33,-4.64,4.52,10.62,899.86,23.1,
4248265,-0.04,-0.03,1.33,-4.7,5.13,10.68,899.83,23.12,
4248303,-0.02,-0.02,1.37,-4.76,4.58,10.68,899.83,23.12,
4248341,-0.02,-0.02,1.38,-4.82,4.52,10.8,899.79,23.1,
4248380,-0.02,-0.03,1.34,-4.64,4.46,10.99,899.81,23.13,
4248418,-0.02,-0.01,1.36,-4.58,3.85,10.93,899.82,23.11,
4248456,-0.03,-0.02,1.4,-4.15,3.66,10.93,899.71,23.11,
4248494,-0.02,-0.03,1.36,-4.03,3.97,10.99,899.81,23.11,
4248544,-0.03,-0.02,1.34,-3.85,3.66,11.11,899.8,23.11,
4248583,-0.02,-0.03,1.34,-3.97,3.11,11.05,899.74,23.1,
4248621,-0.01,-0.03,1.3,-3.91,2.56,11.17,899.72,23.11,
4248659,-0.01,-0.02,1.32,-3.85,1.4,11.47,899.73,23.11,
4248697,-0.01,-0.04,1.26,-3.85,1.34,11.47,899.73,23.11,
4248736,-0.02,-0.04,1.2,-4.09,0.98,11.41,899.74,23.11,
4248774,-0.01,-0.04,1.2,-3.78,0.92,11.47,899.73,23.11,
4248812,-0.01,-0.05,1.16,-3.97,0.67,11.35,899.73,23.11,
4248850,-0.01,-0.05,1.11,-4.09,1.28,11.23,899.69,23.11,
4248900,0.02,-0.04,1.18,-3.85,1.77,11.05,899.62,23.1,
4248939,-0.0,-0.05,1.15,-3.97,1.89,10.74,899.61,23.1,
4248977,-0.02,-0.04,1.16,-4.21,1.95,10.68,899.58,23.11,
4249015,0.0,-0.05,1.19,-4.15,3.11,10.5,899.58,23.1,
4249053,0.01,-0.05,1.19,-4.21,3.42,10.31,899.61,23.11,
4249092,-0.01,-0.04,1.17,-4.03,3.42,10.25,899.62,23.12,
4249130,0.0,-0.05,1.18,-3.91,4.58,10.19,899.48,23.11,
4249168,-0.01,-0.04,1.14,-3.91,5.55,9.95,899.49,23.11,
4249206,-0.0,-0.04,1.16,-3.78,5.62,9.83,899.5,23.12,
4249256,-0.0,-0.04,1.14,-3.54,6.29,9.77,899.44,23.1,
4249294,0.0,-0.04,1.15,-3.36,6.47,9.77,899.47,23.1,
4249333,0.0,-0.04,1.15,-3.3,6.47,9.52,899.45,23.09,
4249371,0.01,-0.04,1.16,-3.42,5.86,9.64,899.41,23.11,
4249409,0.01,-0.03,1.18,-3.6,5.37,9.58,899.4,23.11,
4249447,0.01,-0.03,1.17,-3.78,4.33,9.58,899.39,23.1,
4249486,0.0,-0.03,1.21,-4.03,3.48,9.58,899.35,23.11,
4249524,0.01,-0.04,1.2,-4.21,2.81,9.4,899.37,23.1,
4249562,0.0,-0.03,1.23,-4.09,2.38,9.34,899.36,23.1,
4249600,0.0,-0.03,1.21,-4.15,1.65,9.22,899.32,23.1,
4249650,-0.0,-0.03,1.2,-4.15,1.1,9.22,899.32,23.1,
4249689,-0.0,-0.04,1.19,-4.03,1.22,8.97,899.34,23.1,
4249727,-0.0,-0.03,1.19,-4.09,1.4,8.79,899.3,23.1,
4249765,-0.02,-0.03,1.19,-3.72,1.4,8.79,899.28,23.11,
4249803,-0.0,-0.03,1.19,-3.54,2.14,8.42,899.22,23.11,
4249841,-0.01,-0.03,1.22,-2.99,2.5,8.42,899.28,23.12,
4249880,-0.01,-0.04,1.18,-2.99,3.17,8.06,899.28,23.12,
4249918,-0.01,-0.03,1.19,-2.69,2.99,8.06,899.22,23.11,
4249956,-0.01,-0.04,1.15,-2.2,4.15,7.87,899.16,23.1,
4249994,-0.0,-0.03,1.18,-1.65,4.03,7.93,899.18,23.11,
4250070,-0.02,-0.04,1.14,-0.79,3.85,7.63,899.2,23.09,
4250109,-0.01,-0.04,1.12,-0.55,3.97,7.69,899.18,23.09,
4250147,-0.01,-0.03,1.11,0.12,3.42,7.57,899.1,23.09,
4250237,-0.02,-0.05,1.03,0.79,3.36,7.69,899.09,23.06,
4250275,-0.01,-0.04,1.03,1.22,3.05,7.63,899.1,23.08,
4250313,-0.01,-0.05,0.99,1.46,2.99,7.63,899.07,23.08,
4250351,-0.01,-0.05,0.97,1.53,2.75,7.63,899.07,23.09,
4250390,-0.0,-0.05,0.95,1.77,3.05,7.57,898.97,23.09,
4250428,-0.02,-0.05,0.92,1.95,2.87,7.75,898.97,23.09,
4250478,-0.03,-0.05,0.89,2.08,3.3,7.63,898.97,23.09,
4250516,-0.01,-0.05,0.87,2.14,3.66,7.45,898.9,23.09,
4250554,-0.01,-0.05,0.86,1.89,3.91,7.51,898.9,23.09,
4250593,-0.02,-0.05,0.82,2.01,4.58,7.51,898.88,23.1,
4250631,-0.02,-0.05,0.82,1.71,4.82,7.57,898.81,23.11,
4250669,-0.02,-0.05,0.81,1.4,5.31,7.45,898.82,23.11,
4250707,-0.03,-0.05,0.81,0.79,6.1,7.51,898.8,23.1,
4250746,-0.02,-0.05,0.84,0.92,6.35,7.69,898.81,23.1,
4250784,-0.02,-0.05,0.84,0.43,6.84,7.69,898.84,23.1,
4250822,-0.03,-0.05,0.86,0.49,6.9,7.87,898.76,23.09,
4250872,-0.02,-0.04,0.89,-0.06,7.57,7.87,898.75,23.1,
4250910,-0.02,-0.04,0.92,0.12,7.75,7.87,898.71,23.1,
4250949,-0.02,-0.04,0.9,-0.12,7.87,8.06,898.73,23.1,
4250987,-0.02,-0.04,0.94,0.06,7.69,8.06,898.73,23.1,
4251025,-0.02,-0.04,0.92,0.0,8.06,8.18,898.74,23.11,
4251063,-0.01,-0.04,0.95,-0.18,7.26,8.18,898.77,23.1,
4251102,-0.02,-0.04,0.95,-0.43,7.08,8.12,898.7,23.11,
4251140,-0.01,-0.04,0.96,-0.49,6.71,8.3,898.76,23.11,
4251178,-0.01,-0.04,0.99,-0.55,6.41,8.36,898.73,23.11,
4251228,-0.01,-0.03,0.99,-0.43,5.43,8.48,898.7,23.09,
4251266,-0.02,-0.04,1.01,-0.55,5.13,8.48,898.69,23.1,
4251305,-0.02,-0.04,1.01,-0.55,4.76,8.54,898.75,23.11,
4251343,-0.02,-0.04,1.03,-0.37,4.46,8.48,898.72,23.12,
4251381,-0.02,-0.03,1.01,-0.37,4.33,8.48,898.67,23.11,
4251419,-0.02,-0.03,1.03,-0.37,4.03,8.73,898.63,23.11,
4251458,-0.02,-0.04,1.01,-0.55,4.46,8.67,898.64,23.11,
4251496,-0.02,-0.03,1.03,-0.12,3.78,8.67,898.62,23.11,
4251534,-0.02,-0.04,1.01,-0.43,4.21,8.67,898.66,23.12,
4251572,-0.01,-0.03,1.01,-0.18,3.66,8.61,898.7,23.11,
4251622,-0.02,-0.05,0.96,-0.49,3.66,8.73,898.55,23.1,
4251660,-0.03,-0.04,0.96,0.0,2.99,8.61,898.6,23.1,
4251699,-0.02,-0.04,0.95,-0.43,3.42,8.3,898.64,23.11,
4251737,-0.02,-0.04,0.94,-0.31,2.99,8.48,898.54,23.12,
4251775,-0.01,-0.04,0.96,-0.24,2.81,8.54,898.59,23.12,
4251813,-0.03,-0.04,0.95,-0.12,2.62,8.42,898.59,23.12,
4251852,-0.03,-0.03,0.98,0.0,2.81,8.54,898.56,23.13,
4251890,-0.02,-0.04,0.97,-0.06,2.75,8.61,898.57,23.12,
4251928,-0.03,-0.03,0.99,0.12,2.32,8.48,898.56,23.11,
4251978,-0.03,-0.04,0.97,0.18,3.05,8.73,898.51,23.11,
4252016,-0.02,-0.04,0.97,0.24,2.81,8.61,898.53,23.11,
4252055,-0.03,-0.03,0.99,0.43,2.69,8.54,898.48,23.11,
4252093,-0.03,-0.03,0.97,0.43,3.05,8.79,898.54,23.11,
4252131,-0.03,-0.03,0.99,0.31,3.36,8.67,898.53,23.1,
4252169,-0.02,-0.03,1.01,0.49,3.85,8.54,898.44,23.1,
4252208,-0.03,-0.03,1.03,0.49,3.66,8.61,898.51,23.11,
4252246,-0.03,-0.03,1.02,0.24,3.97,8.67,898.42,23.12,
4252284,-0.01,-0.02,1.04,0.43,4.33,8.54,898.45,23.11,
4252322,-0.03,-0.03,1.04,0.31,4.39,8.61,898.46,23.12,
4252372,-0.03,-0.03,1.08,0.55,5.0,8.48,898.47,23.1,
4252411,-0.03,-0.03,1.05,0.43,5.8,8.54,898.44,23.1,
4252449,-0.02,-0.02,1.08,0.67,5.62,8.54,898.49,23.12,
4252487,-0.02,-0.02,1.07,1.04,5.62,8.67,898.55,23.12,
4252525,-0.02,-0.03,1.05,1.53,5.86,8.54,898.46,23.11,
4252564,-0.01,-0.0,1.01,1.71,6.04,8.48,898.45,23.12,
4252602,-0.01,-0.03,0.99,1.95,5.37,8.54,898.47,23.11,
4252640,-0.01,-0.04,0.95,1.89,5.19,8.61,898.46,23.11,
4252678,-0.01,-0.04,0.95,1.65,4.64,8.54,898.44,23.11,
4252717,-0.01,-0.04,0.95,0.98,3.85,8.48,898.43,23.11,
4252767,-0.01,-0.04,0.94,0.18,3.11,8.3,898.45,23.1,
4252805,-0.01,-0.04,0.94,-0.18,2.38,8.18,898.43,23.11,
4252843,-0.0,-0.04,0.94,-0.67,1.83,8.18,898.45,23.11,
4252881,-0.0,-0.04,0.93,-0.85,1.53,7.93,898.42,23.11,
4252919,-0.01,-0.04,0.93,-1.22,1.4,7.93,898.45,23.11,
4252958,-0.01,-0.04,0.95,-1.34,1.28,7.69,898.38,23.1,
4252996,-0.01,-0.04,0.96,-1.46,1.1,7.57,898.41,23.12,
4253034,-0.02,-0.04,0.98,-1.46,0.92,7.45,898.41,23.11,
4253072,-0.01,-0.04,0.99,-1.53,1.28,7.26,898.35,23.11,
4253150,-0.01,-0.03,0.99,-1.4,1.1,6.96,898.41,23.08,
4253188,-0.02,-0.03,1.0,-1.34,1.04,7.14,898.37,23.09,
4253226,-0.02,-0.03,1.0,-1.4,1.46,6.9,898.38,23.09,
4253316,-0.02,-0.02,1.03,-1.34,1.28,6.96,898.39,23.06,
4253355,-0.01,-0.02,1.09,-1.28,1.28,6.9,898.38,23.08,
4253393,-0.01,-0.02,1.1,-1.1,1.22,6.96,898.38,23.09,
4253431,-0.03,-0.02,1.11,-1.04,0.92,6.77,898.33,23.09,
4253469,-0.02,-0.02,1.11,-0.85,1.89,6.77,898.4,23.09,
4253508,-0.01,-0.02,1.07,-0.85,1.22,6.65,898.32,23.09,
4253546,-0.02,-0.01,1.08,-0.67,0.79,6.84,898.38,23.1,
4253596,-0.03,-0.03,1.06,-0.37,0.24,6.59,898.37,23.09,
4253634,-0.02,-0.03,1.08,-0.43,0.37,6.71,898.36,23.1,
4253672,-0.02,-0.03,1.05,-0.67,-0.18,6.84,898.37,23.1,
4253711,-0.03,-0.03,1.05,-0.73,-0.92,6.71,898.4,23.1,
4253749,-0.02,-0.03,1.01,-1.04,-0.85,6.59,898.36,23.09,
4253787,-0.03,-0.03,1.02,-0.85,-1.59,6.65,898.42,23.1,
4253825,-0.03,-0.04,1.0,-1.04,-1.89,6.71,898.38,23.1,
4253864,-0.03,-0.03,1.01,-0.92,-1.59,6.47,898.29,23.1,
4253902,-0.04,-0.02,1.06,-1.04,-1.1,6.59,898.34,23.11,
4253952,-0.03,-0.03,1.11,-0.92,-0.61,6.41,898.36,23.09,
4253990,-0.05,-0.02,1.12,-0.79,0.06,6.47,898.36,23.09,
4254028,-0.04,-0.03,1.15,-0.61,0.67,6.65,898.33,23.1,
4254067,-0.03,-0.02,1.14,-0.43,1.4,6.35,898.34,23.1,
4254105,-0.04,-0.02,1.12,-0.06,2.26,6.71,898.36,23.1,
4254143,-0.03,-0.02,1.08,0.0,2.08,6.65,898.37,23.1,
4254181,-0.04,-0.02,1.07,0.18,2.32,6.71,898.28,23.1,
4254220,-0.03,-0.03,1.05,-0.06,2.5,6.71,898.29,23.1,
4254258,-0.03,-0.03,1.07,-0.37,2.75,6.77,898.35,23.1,
4254296,-0.03,-0.04,1.04,-0.31,2.56,6.84,898.32,23.09,
4254346,-0.04,-0.04,1.02,-0.55,2.87,6.71,898.32,23.07,
4254384,-0.04,-0.04,1.02,-0.92,3.42,6.71,898.31,23.09,
4254422,-0.03,-0.03,1.04,-0.85,3.3,6.84,898.32,23.09,
4254461,-0.05,-0.04,0.98,-1.16,3.23,7.08,898.3,23.09,
4254499,-0.05,-0.03,1.03,-1.16,3.23,7.2,898.31,23.08,
4254537,-0.04,-0.04,0.99,-1.53,3.97,7.14,898.33,23.09,
4254575,-0.04,-0.03,1.03,-1.4,3.11,7.2,898.33,23.09,
4254614,-0.04,-0.04,1.01,-1.4,3.6,7.32,898.34,23.09,
4254652,-0.04,-0.03,0.99,-1.53,3.48,7.32,898.28,23.09,
4254702,-0.04,-0.04,1.0,-1.46,2.99,7.63,898.33,23.07,
4254740,-0.05,-0.04,0.98,-1.46,2.01,7.63,898.25,23.08,
4254778,-0.05,-0.04,0.99,-1.65,1.77,7.69,898.25,23.08,
4254817,-0.03,-0.04,0.98,-1.89,1.53,7.75,898.29,23.09,
4254855,-0.03,-0.04,0.97,-2.26,1.28,7.93,898.29,23.1,
4254893,-0.04,-0.04,0.96,-2.38,1.34,7.87,898.34,23.1,
4254931,-0.05,-0.04,0.96,-2.62,1.4,7.87,898.34,23.08,
4254970,-0.04,-0.04,0.96,-2.87,1.59,8.12,898.33,23.1,
4255008,-0.04,-0.04,0.98,-2.62,1.71,7.87,898.42,23.1,
4255058,-0.05,-0.03,0.96,-2.99,2.32,8.0,898.34,23.09,
4255096,-0.03,-0.03,0.98,-2.69,2.5,8.0,898.32,23.1,
4255134,-0.03,-0.03,0.97,-3.11,3.17,7.69,898.31,23.1,
4255173,-0.04,-0.03,1.01,-2.87,2.93,7.87,898.29,23.11,
4255211,-0.06,-0.03,1.02,-3.17,3.85,7.87,898.33,23.1,
4255249,-0.04,-0.03,1.06,-2.93,3.54,7.69,898.29,23.1,
4255287,-0.05,-0.02,1.08,-3.11,3.17,7.69,898.3,23.1,
4255326,-0.05,-0.03,1.08,-2.93,2.93,8.0,898.3,23.1,
4255364,-0.04,-0.02,1.1,-2.93,3.48,7.93,898.35,23.1,
4255402,-0.05,-0.02,1.11,-2.56,3.05,7.93,898.31,23.1,
4255452,-0.06,-0.02,1.09,-2.26,3.05,8.24,898.26,23.07,
4255490,-0.06,-0.03,1.11,-1.77,2.93,8.18,898.3,23.09,
4255529,-0.06,-0.03,1.1,-1.83,2.87,8.24,898.24,23.07,
4255567,-0.06,-0.03,1.12,-1.59,2.56,8.48,898.28,23.08,
4255605,-0.06,-0.02,1.14,-1.34,2.56,8.42,898.29,23.08,
4255643,-0.05,-0.01,1.16,-1.46,2.2,8.61,898.24,23.09,
4255682,-0.05,-0.01,1.18,-1.71,2.2,8.79,898.32,23.08,
4255720,-0.05,-0.02,1.2,-1.46,1.71,8.79,898.27,23.07,
4255758,-0.07,-0.02,1.16,-1.71,2.01,8.91,898.3,23.07,
4255808,-0.05,-0.02,1.13,-1.46,2.32,9.09,898.31,23.06,
4255846,-0.04,-0.02,1.08,-1.53,2.44,9.03,898.29,23.07,
4255885,-0.05,-0.03,1.03,-1.34,2.69,9.22,898.32,23.09,
4255923,-0.06,-0.04,1.02,-1.28,3.23,9.22,898.36,23.08,
4255961,-0.04,-0.03,1.03,-1.16,3.36,9.03,898.36,23.08,
4255999,-0.05,-0.03,1.03,-1.4,3.17,9.09,898.34,23.08,
4256038,-0.06,-0.03,1.07,-1.34,2.81,9.28,898.31,23.08,
4256076,-0.03,-0.04,1.1,-1.83,3.23,9.16,898.38,23.09,
4256114,-0.04,-0.03,1.11,-1.89,2.93,9.28,898.36,23.09,
4256152,-0.05,-0.02,1.09,-2.32,3.05,9.4,898.34,23.1,
4256228,-0.05,-0.02,1.11,-2.32,2.93,9.58,898.34,23.05,
4256267,-0.05,-0.02,1.13,-2.26,1.89,9.7,898.33,23.08,
4256305,-0.04,-0.02,1.13,-2.14,2.26,9.58,898.3,23.08,
4256395,-0.04,-0.03,1.14,-2.2,2.69,9.64,898.32,23.05,
4256433,-0.04,-0.03,1.14,-2.38,2.93,9.46,898.36,23.07,
4256471,-0.05,-0.02,1.14,-2.26,3.42,9.46,898.37,23.07,
4256509,-0.05,-0.02,1.16,-2.08,2.38,9.46,898.28,23.07,
4256548,-0.05,-0.02,1.17,-2.01,2.75,9.58,898.34,23.07,
4256586,-0.04,-0.01,1.19,-2.14,2.69,9.52,898.35,23.08,
4256636,-0.05,0.0,1.24,-2.44,3.11,9.58,898.34,23.06,
4256674,-0.06,-0.01,1.23,-2.26,2.56,9.77,898.3,23.06,
4256712,-0.06,-0.02,1.24,-2.32,2.56,9.77,898.36,23.08,
4256751,-0.05,-0.01,1.25,-2.08,1.95,9.7,898.32,23.08,
4256789,-0.05,-0.0,1.25,-1.77,1.4,9.89,898.36,23.08,
4256827,-0.04,-0.01,1.2,-1.77,1.77,9.7,898.34,23.07,
4256865,-0.06,-0.02,1.17,-1.83,1.04,9.83,898.27,23.07,
4256904,-0.06,-0.0,1.21,-2.01,1.65,9.95,898.29,23.07,
4256942,-0.05,-0.01,1.25,-2.01,1.65,9.89,898.3,23.07,
4256980,-0.07,-0.0,1.22,-2.5,1.83,9.77,898.25,23.07,
4257030,-0.06,-0.0,1.32,-2.5,1.71,9.95,898.22,23.05,
4257068,-0.06,-0.02,1.27,-2.75,1.83,10.13,898.27,23.07,
4257107,-0.08,0.0,1.3,-2.56,1.53,10.19,898.35,23.07,
4257145,-0.07,-0.0,1.28,-2.56,2.44,10.13,898.25,23.06,
4257183,-0.07,-0.01,1.24,-2.2,2.14,10.25,898.34,23.08,
4257221,-0.07,-0.02,1.25,-2.01,2.38,10.38,898.31,23.07,
4257260,-0.06,-0.01,1.21,-1.95,2.62,10.5,898.32,23.08,
4257298,-0.05,-0.01,1.24,-1.77,2.44,10.74,898.39,23.09,
4257336,-0.06,-0.02,1.2,-2.08,2.32,10.86,898.32,23.07,
4257386,-0.06,-0.02,1.23,-2.08,2.32,10.99,898.39,23.07,
4257424,-0.06,-0.02,1.21,-2.2,2.69,10.99,898.31,23.07,
4257463,-0.05,-0.01,1.23,-2.2,2.08,10.99,898.3,23.08,
4257501,-0.06,-0.01,1.21,-2.5,2.32,11.11,898.3,23.07,
4257539,-0.05,-0.02,1.21,-2.62,2.32,11.29,898.32,23.09,
4257577,-0.05,-0.02,1.21,-2.69,2.93,11.17,898.4,23.08,
4257616,-0.05,-0.02,1.22,-2.44,2.75,11.23,898.35,23.08,
4257654,-0.05,-0.03,1.21,-2.44,3.3,11.23,898.37,23.08,
4257692,-0.04,-0.03,1.21,-2.56,2.81,11.17,898.38,23.08,
4257730,-0.03,-0.03,1.19,-2.75,3.3,11.17,898.36,23.09,
4257780,-0.04,-0.02,1.19,-2.62,2.93,11.05,898.38,23.06,
4257819,-0.04,-0.02,1.18,-2.69,2.69,11.23,898.38,23.08,
4257857,-0.04,-0.03,1.18,-2.99,2.69,11.11,898.33,23.07,
4257895,-0.04,-0.03,1.17,-3.17,2.56,11.29,898.38,23.08,
4257933,-0.03,-0.03,1.18,-3.05,2.2,11.11,898.36,23.08,
4257972,-0.04,-0.02,1.17,-3.3,2.26,11.11,898.37,23.09,
4258010,-0.04,-0.02,1.16,-3.17,2.2,11.05,898.38,23.09,
4258048,-0.04,-0.03,1.19,-3.05,2.38,11.17,898.36,23.09,
4258086,-0.03,-0.04,1.18,-3.36,2.38,10.86,898.41,23.09,
4258136,-0.04,-0.02,1.21,-3.23,2.32,10.93,898.4,23.08,
4258175,-0.03,-0.03,1.19,-3.42,2.81,10.86,898.35,23.07,
4258213,-0.04,-0.02,1.23,-3.36,2.38,10.74,898.38,23.07,
4258251,-0.03,-0.02,1.23,-3.23,2.44,10.68,898.36,23.07,
4258289,-0.04,-0.02,1.22,-3.23,2.38,10.8,898.33,23.06,
4258328,-0.04,-0.03,1.23,-3.3,2.62,10.62,898.32,23.07,
4258366,-0.04,-0.03,1.23,-3.11,2.56,10.44,898.3,23.06,
4258404,-0.04,-0.03,1.24,-2.81,2.32,10.56,898.35,23.08,
4258442,-0.03,-0.03,1.21,-2.81,2.56,10.44,898.41,23.08,
4258492,-0.04,-0.02,1.22,-2.87,2.56,10.38,898.39,23.06,
4258531,-0.03,-0.03,1.22,-2.93,2.87,10.38,898.35,23.06,
4258569,-0.02,-0.03,1.24,-2.93,2.56,10.38,898.36,23.07,
4258607,-0.03,-0.03,1.25,-2.75,1.89,10.38,898.4,23.07,
4258645,-0.02,-0.03,1.23,-2.99,2.26,10.31,898.38,23.07,
4258684,-0.02,-0.03,1.26,-2.62,0.85,10.31,898.34,23.07,
4258722,-0.03,-0.05,1.19,-2.69,0.98,10.44,898.33,23.06,
4258760,-0.03,-0.05,1.17,-2.56,0.55,9.95,898.38,23.08,
4258798,-0.02,-0.05,1.14,-2.69,1.53,10.01,898.4,23.07,
4258837,-0.02,-0.04,1.11,-2.56,0.92,10.07,898.39,23.08,
4258887,-0.03,-0.05,1.06,-2.93,1.28,10.07,898.33,23.06,
4258925,-0.02,-0.05,1.06,-2.69,0.49,9.77,898.38,23.07,
4258963,-0.03,-0.06,1.02,-2.75,0.55,9.83,898.33,23.06,
4259001,-0.03,-0.05,1.0,-2.93,0.24,9.77,898.29,23.07,
4259040,-0.03,-0.06,1.02,-2.87,0.55,9.64,898.37,23.08,
4259078,-0.02,-0.06,0.99,-3.23,0.79,9.7,898.32,23.07,
4259116,-0.03,-0.05,1.02,-3.6,0.31,9.77,898.31,23.08,
4259154,-0.02,-0.05,1.03,-3.97,0.61,9.58,898.31,23.09,
4259193,-0.03,-0.05,1.03,-4.64,0.92,9.64,898.24,23.07,
4259321,-0.02,-0.05,1.1,-5.8,1.4,9.28,898.32,23.03,
4259359,-0.02,-0.04,1.15,-5.8,0.24,9.22,898.3,23.04,
4259397,-0.02,-0.05,1.16,-5.92,1.04,8.97,898.26,23.05,
4259487,-0.01,-0.04,1.21,-5.98,0.18,9.03,898.25,23.03,
4259525,-0.02,-0.04,1.22,-5.92,-0.06,8.67,898.27,23.04,
4259563,-0.02,-0.03,1.24,-5.74,-0.06,8.79,898.26,23.04,
4259601,-0.03,-0.03,1.23,-6.1,-0.43,8.85,898.29,23.05,
4259640,-0.03,-0.04,1.25,-5.86,-0.61,8.73,898.23,23.06,
4259678,-0.04,-0.03,1.24,-6.35,-0.12,8.61,898.24,23.06,
4259728,-0.02,-0.03,1.31,-6.41,-0.24,8.48,898.22,23.05,
4259766,-0.03,-0.04,1.29,-6.29,-0.06,8.36,898.19,23.06,
4259804,-0.05,-0.04,1.27,-6.23,0.55,8.36,898.18,23.06,
4259843,-0.03,-0.04,1.29,-5.74,1.22,8.18,898.17,23.06,
4259881,-0.02,-0.05,1.26,-5.31,1.22,8.0,898.14,23.05,
4259919,-0.05,-0.03,1.26,-4.88,1.46,8.12,898.21,23.08,
4259957,-0.05,-0.04,1.23,-4.76,2.5,8.06,898.15,23.07,
4259995,-0.03,-0.03,1.22,-4.7,1.83,8.0,898.13,23.07,
4260034,-0.04,-0.03,1.23,-4.46,2.01,8.24,898.14,23.07,
4260072,-0.04,-0.05,1.19,-4.46,2.14,8.61,898.14,23.07,
4260122,-0.03,-0.04,1.21,-4.39,1.4,8.3,898.08,23.05,
4260160,-0.04,-0.05,1.18,-4.33,0.55,8.54,898.16,23.06,
4260198,-0.06,-0.04,1.18,-4.52,-0.24,8.79,898.11,23.06,
4260237,-0.04,-0.03,1.19,-4.58,-0.31,8.79,898.12,23.07,
4260275,-0.02,-0.04,1.24,-4.82,-0.98,8.85,898.06,23.07,
4260313,-0.05,-0.04,1.19,-5.37,-0.98,9.09,898.04,23.06,
4260351,-0.06,-0.03,1.21,-5.31,-0.43,9.09,898.1,23.06,
4260390,-0.04,-0.04,1.23,-5.49,0.0,8.85,898.08,23.07,
4260428,-0.05,-0.03,1.25,-5.49,-0.55,9.09,898.1,23.08,
4260478,-0.06,-0.02,1.26,-5.31,0.49,9.28,898.06,23.06,
4260516,-0.05,-0.02,1.31,-4.7,1.22,9.22,898.09,23.06,
4260554,-0.05,-0.03,1.28,-4.7,2.2,9.28,898.06,23.07,
4260592,-0.05,-0.03,1.3,-4.15,2.26,9.28,898.05,23.06,
4260630,-0.04,-0.04,1.32,-3.54,4.03,9.34,898.09,23.07,
4260669,-0.04,-0.02,1.24,-3.36,3.6,9.46,898.05,23.08,
4260707,-0.03,-0.02,1.28,-2.81,3.48,9.34,898.05,23.07,
4260745,-0.03,-0.05,1.16,-2.69,3.91,9.52,898.0,23.08,
4260783,-0.05,-0.05,1.2,-1.95,2.87,9.7,898.03,23.08,
4260822,-0.02,-0.04,1.15,-2.08,3.23,9.64,897.95,23.09,
4260872,-0.04,-0.04,1.14,-1.89,1.1,9.95,897.98,23.07,
4260910,-0.03,-0.05,1.06,-2.32,1.4,10.07,898.05,23.09,
4260948,-0.03,-0.05,1.08,-2.56,0.61,10.01,897.93,23.08,
4260986,-0.05,-0.06,1.08,-3.11,0.73,10.38,897.97,23.08,
4261025,-0.03,-0.05,1.09,-3.3,0.12,10.31,897.94,23.08,
4261063,-0.03,-0.04,1.08,-3.78,0.67,10.25,898.0,23.09,
4261101,-0.03,-0.05,1.09,-3.78,0.61,10.31,898.0,23.09,
4261139,-0.03,-0.04,1.1,-4.09,0.49,10.19,897.96,23.08,
4261178,-0.04,-0.04,1.13,-4.27,0.31,10.38,897.96,23.07,
4261228,-0.03,-0.04,1.15,-4.39,0.67,10.38,897.93,23.06,
4261266,-0.02,-0.04,1.16,-4.15,0.43,10.38,897.91,23.07,
4261304,-0.02,-0.04,1.15,-4.15,0.24,10.31,897.88,23.07,
4261342,-0.03,-0.03,1.13,-3.91,0.37,10.19,897.94,23.07,
4261381,-0.02,-0.04,1.13,-3.85,0.49,10.25,897.9,23.07,
4261419,-0.02,-0.04,1.15,-3.72,0.37,10.19,897.9,23.07,
4261457,-0.02,-0.03,1.17,-3.6,-0.06,10.07,897.86,23.07,
4261495,-0.02,-0.03,1.18,-3.54,-0.18,10.01,897.87,23.07,
4261534,-0.02,-0.03,1.2,-3.48,-0.18,9.95,897.89,23.08,
4261584,-0.02,-0.03,1.24,-3.66,0.0,9.89,897.78,23.05,
4261622,-0.01,-0.02,1.25,-3.72,-0.31,9.95,897.86,23.06,
4261660,-0.03,-0.02,1.26,-4.03,-0.73,9.89,897.82,23.06,
4261698,-0.03,-0.03,1.25,-4.15,-0.73,9.83,897.83,23.07,
4261736,-0.02,-0.03,1.27,-3.97,-0.85,9.7,897.86,23.06,
4261775,-0.02,-0.03,1.23,-3.78,-0.98,9.64,897.89,23.06,
4261813,-0.03,-0.03,1.22,-3.66,-1.59,9.7,897.88,23.06,
4261851,-0.02,-0.03,1.19,-3.72,-1.04,9.58,897.85,23.07,
4261889,-0.03,-0.05,1.17,-3.54,-1.04,9.4,897.83,23.06,
4261928,-0.03,-0.04,1.16,-3.72,-1.28,9.34,897.84,23.06,
4261978,-0.04,-0.04,1.13,-3.48,-0.92,9.34,897.82,23.05,
4262016,-0.03,-0.04,1.15,-3.72,-1.28,9.4,897.75,23.05,
4262054,-0.03,-0.04,1.16,-3.85,-0.98,9.09,897.81,23.06,
4262092,-0.05,-0.04,1.13,-4.03,-0.92,9.03,897.77,23.06,
4262130,-0.04,-0.04,1.13,-4.46,-0.24,9.09,897.75,23.05,
4262169,-0.05,-0.05,1.09,-4.64,0.31,8.79,897.81,23.06,
4262207,-0.03,-0.04,1.12,-4.64,1.04,8.91,897.75,23.06,
4262245,-0.04,-0.04,1.09,-4.7,1.77,8.91,897.75,23.07,
4262283,-0.05,-0.04,1.1,-4.82,1.89,9.22,897.77,23.06,
4262359,-0.03,-0.05,1.11,-4.94,2.44,9.03,897.76,23.03,
4262398,-0.03,-0.05,1.13,-4.82,2.01,9.09,897.74,23.06,
4262436,-0.04,-0.05,1.13,-5.0,2.14,9.16,897.72,23.05,
4262526,-0.04,-0.04,1.16,-5.0,1.65,9.28,897.71,23.02,
4262564,-0.04,-0.04,1.16,-5.25,1.59,9.46,897.69,23.03,
4262602,-0.04,-0.04,1.15,-5.37,2.01,9.28,897.67,23.03,
4262640,-0.03,-0.04,1.18,-5.49,2.2,9.4,897.75,23.06,
4262679,-0.03,-0.04,1.18,-5.43,2.44,9.46,897.64,23.05,
4262717,-0.05,-0.04,1.19,-5.43,2.26,9.58,897.68,23.05,
4262767,-0.04,-0.04,1.19,-5.19,3.54,9.4,897.63,23.03,
4262805,-0.03,-0.04,1.18,-5.31,3.11,9.52,897.62,23.06,
4262843,-0.05,-0.04,1.17,-5.25,3.54,9.58,897.6,23.05,
4262882,-0.05,-0.04,1.16,-5.19,4.03,9.58,897.65,23.05,
4262920,-0.02,-0.05,1.17,-5.31,4.52,9.58,897.62,23.05,
4262958,-0.04,-0.04,1.18,-5.43,4.03,9.64,897.64,23.06,
4262996,-0.05,-0.05,1.16,-5.37,4.15,9.7,897.58,23.06,
4263035,-0.05,-0.04,1.16,-5.07,3.66,9.95,897.57,23.06,
4263073,-0.04,-0.04,1.18,-5.25,4.39,9.7,897.54,23.06,
4263111,-0.05,-0.04,1.16,-5.0,4.09,9.83,897.6,23.06,
4263161,-0.04,-0.04,1.19,-5.19,4.33,9.83,897.57,23.05,
4263199,-0.04,-0.03,1.23,-4.94,3.85,9.64,897.56,23.05,
4263238,-0.05,-0.03,1.23,-4.88,3.66,10.01,897.56,23.05,
4263276,-0.06,-0.03,1.24,-4.82,3.6,10.13,897.6,23.06,
4263314,-0.05,-0.03,1.22,-4.76,3.6,10.01,897.6,23.06,
4263352,-0.05,-0.03,1.23,-4.46,3.3,10.25,897.54,23.06,
4263391,-0.06,-0.03,1.17,-4.64,3.42,10.13,897.5,23.06,
4263429,-0.04,-0.03,1.17,-4.39,3.36,9.95,897.53,23.05,
4263467,-0.04,-0.04,1.14,-4.52,3.66,10.01,897.5,23.06,
4263517,-0.04,-0.04,1.12,-4.27,3.97,9.83,897.48,23.05,
4263555,-0.06,-0.04,1.11,-3.85,4.21,9.77,897.5,23.06,
4263594,-0.07,-0.04,1.06,-3.72,4.39,9.83,897.5,23.06,
4263632,-0.09,-0.03,1.11,-3.48,3.72,10.07,897.48,23.06,
4263670,-0.1,-0.04,1.08,-3.66,4.09,10.38,897.48,23.06,
4263708,-0.07,-0.04,1.12,-3.66,3.48,10.31,897.52,23.06,
4263747,-0.08,-0.03,1.12,-3.97,4.09,10.56,897.5,23.05,
4263785,-0.09,-0.03,1.12,-3.72,4.09,10.86,897.53,23.06,
4263823,-0.07,-0.03,1.15,-3.72,4.33,11.23,897.43,23.06,
4263861,-0.06,-0.03,1.15,-3.72,3.78,11.23,897.5,23.06,
4263911,-0.07,-0.04,1.12,-3.72,4.27,11.54,897.51,23.05,
4263950,-0.07,-0.03,1.14,-3.66,4.03,11.6,897.46,23.05,
4263988,-0.07,-0.03,1.13,-3.66,4.09,11.84,897.53,23.07,
4264026,-0.06,-0.03,1.13,-3.48,4.33,12.08,897.54,23.06,
4264064,-0.07,-0.03,1.12,-3.66,4.52,11.96,897.52,23.07,
4264103,-0.06,-0.04,1.11,-3.42,4.64,12.15,897.51,23.07,
4264141,-0.06,-0.04,1.11,-3.42,4.52,12.39,897.47,23.05,
4264179,-0.06,-0.04,1.07,-3.66,4.64,12.33,897.48,23.06,
4264217,-0.06,-0.03,1.08,-3.66,4.39,12.57,897.53,23.06,
4264267,-0.05,-0.04,1.05,-4.03,4.64,12.63,897.5,23.06,
4264306,-0.07,-0.03,1.07,-4.33,4.82,12.7,897.47,23.05,
4264344,-0.06,-0.04,1.08,-4.64,5.49,12.82,897.52,23.06,
4264382,-0.07,-0.03,1.07,-4.88,5.62,12.82,897.55,23.07,
4264420,-0.06,-0.02,1.11,-5.07,5.98,13.18,897.49,23.06,
4264459,-0.06,-0.04,1.08,-5.37,6.9,13.06,897.54,23.07,
4264497,-0.06,-0.02,1.14,-5.31,6.41,13.24,897.53,23.07,
4264535,-0.05,-0.03,1.14,-5.49,7.51,13.43,897.56,23.07,
4264573,-0.05,-0.03,1.13,-5.49,6.53,13.43,897.6,23.07,
4264623,-0.04,-0.03,1.15,-5.37,7.02,13.31,897.54,23.05,
4264662,-0.04,-0.03,1.16,-5.07,6.65,13.73,897.54,23.07,
4264700,-0.04,-0.03,1.12,-5.0,6.53,13.67,897.58,23.08,
4264738,-0.05,-0.02,1.13,-5.07,5.8,13.73,897.6,23.07,
4264776,-0.03,-0.02,1.16,-5.37,5.8,13.85,897.59,23.06,
4264815,-0.03,-0.03,1.17,-5.25,5.31,13.73,897.61,23.07,
4264853,-0.03,-0.02,1.2,-5.0,5.13,13.79,897.64,23.07,
4264891,-0.03,-0.03,1.19,-4.64,4.88,13.67,897.64,23.07,
4264929,-0.04,-0.03,1.18,-4.7,4.94,13.61,897.63,23.06,
4264968,-0.03,-0.03,1.19,-4.64,4.52,13.55,897.64,23.06,
4265018,-0.04,-0.03,1.15,-4.21,4.03,13.43,897.67,23.05,
4265056,-0.03,-0.04,1.18,-4.03,3.97,13.49,897.63,23.06,
4265094,-0.02,-0.04,1.15,-4.03,3.78,13.24,897.69,23.05,
4265132,-0.03,-0.03,1.15,-3.97,3.72,13.12,897.7,23.05,
4265171,-0.03,-0.04,1.09,-4.03,3.91,13.0,897.67,23.05,
4265209,-0.01,-0.04,1.11,-4.58,3.48,12.76,897.7,23.05,
4265247,-0.01,-0.04,1.09,-5.0,3.72,12.63,897.62,23.05,
4265285,-0.02,-0.04,1.1,-5.37,2.75,12.63,897.73,23.05,
4265324,-0.03,-0.04,1.1,-5.92,2.87,12.39,897.73,23.05,
4265400,-0.02,-0.04,1.15,-6.59,2.38,12.33,897.72,23.03,
4265438,-0.03,-0.04,1.14,-6.77,2.38,12.08,897.76,23.05,
4265476,-0.04,-0.03,1.16,-6.84,2.81,12.08,897.73,23.03,
4265566,-0.03,-0.02,1.22,-6.41,2.69,11.6,897.75,23.01,
4265604,-0.01,-0.03,1.24,-6.23,2.38,11.66,897.82,23.02,
4265642,-0.02,-0.02,1.26,-5.98,2.01,11.54,897.76,23.03,
4265681,-0.02,-0.03,1.26,-5.92,2.38,11.29,897.76,23.02,
4265719,-0.02,-0.02,1.29,-5.43,1.59,11.29,897.78,23.04,
4265757,-0.04,-0.02,1.3,-5.62,0.79,11.35,897.77,23.03,
4265807,-0.02,-0.01,1.34,-5.49,-0.55,11.23,897.73,23.01,
4265845,-0.02,-0.02,1.36,-5.37,-0.12,11.11,897.82,23.04,
4265884,-0.01,-0.02,1.35,-5.55,-1.22,10.99,897.78,23.03,
4265922,-0.03,-0.0,1.41,-5.55,-1.1,10.8,897.77,23.03,
4265960,-0.02,-0.01,1.37,-5.31,-1.71,10.93,897.72,23.04,
4265998,-0.04,-0.01,1.39,-5.49,-2.08,10.74,897.78,23.04,
4266037,-0.03,-0.01,1.41,-5.62,-2.56,10.74,897.74,23.05,
4266075,-0.04,-0.01,1.41,-5.37,-2.44,10.44,897.78,23.04,
4266113,-0.04,-0.0,1.4,-5.43,-2.38,10.25,897.81,23.05,
4266163,-0.04,0.0,1.4,-5.0,-2.08,10.19,897.77,23.03,
4266201,-0.05,-0.01,1.34,-5.13,-1.1,10.19,897.79,23.04,
4266240,-0.05,-0.0,1.34,-5.19,-1.22,9.95,897.83,23.04,
4266278,-0.05,0.0,1.36,-5.19,-0.49,10.01,897.76,23.04,
4266316,-0.05,-0.01,1.32,-5.07,-0.18,9.89,897.82,23.05,
4266354,-0.05,-0.0,1.35,-5.25,0.12,9.83,897.8,23.05,
4266393,-0.05,-0.02,1.33,-5.13,1.28,9.77,897.8,23.05,
4266431,-0.05,-0.01,1.3,-4.94,1.59,9.89,897.79,23.04,
4266469,-0.05,-0.01,1.28,-5.0,2.2,9.89,897.86,23.05,
4266507,-0.05,-0.02,1.26,-5.07,2.14,9.77,897.86,23.05,
4266557,-0.05,-0.02,1.28,-4.88,2.69,10.01,897.84,23.04,
4266596,-0.06,-0.02,1.24,-4.88,3.11,9.95,897.87,23.04,
4266634,-0.05,-0.02,1.26,-4.76,3.6,9.95,897.83,23.04,
4266672,-0.06,-0.02,1.27,-4.58,4.03,10.07,897.83,23.05,
4266710,-0.05,-0.01,1.26,-4.94,3.97,10.13,897.79,23.04,
4266749,-0.06,-0.02,1.26,-4.7,4.64,10.07,897.85,23.05,
4266787,-0.07,-0.03,1.14,-5.19,5.49,10.01,897.8,23.05,
4266825,-0.06,-0.03,1.19,-4.39,6.47,10.01,897.87,23.05,
4266863,-0.04,-0.04,1.08,-4.27,7.26,10.07,897.83,23.06,
4266913,-0.06,-0.03,1.1,-3.6,7.2,10.25,897.8,23.04,
4266952,-0.04,-0.05,1.06,-3.78,8.3,10.31,897.81,23.05,
4266990,-0.06,-0.03,1.08,-3.72,6.96,10.44,897.83,23.05,
4267028,-0.08,-0.04,1.06,-4.21,6.9,10.99,897.87,23.06,
4267066,-0.06,-0.04,1.12,-4.39,5.98,10.86,897.84,23.04,
4267105,-0.05,-0.03,1.13,-4.76,6.23,10.8,897.86,23.05,
4267143,-0.06,-0.03,1.12,-4.7,5.43,11.54,897.95,23.06,
4267181,-0.04,-0.02,1.15,-4.94,5.13,11.6,897.92,23.06,
4267219,-0.05,-0.03,1.17,-5.19,5.13,11.66,897.93,23.06,
4267269,-0.04,-0.03,1.19,-5.0,4.21,12.02,897.91,23.04,
4267307,-0.06,-0.03,1.18,-5.25,3.97,11.84,897.93,23.05,
4267346,-0.05,-0.03,1.17,-5.37,3.72,11.96,897.92,23.05,
4267384,-0.03,-0.02,1.19,-5.55,3.3,11.96,897.92,23.05,
4267422,-0.03,-0.03,1.18,-5.55,3.17,12.02,897.99,23.05,
4267460,-0.04,-0.02,1.2,-5.68,2.75,12.08,897.98,23.06,
4267499,-0.04,-0.03,1.2,-5.62,2.5,12.21,897.97,23.05,
4267537,-0.04,-0.02,1.23,-5.8,1.83,12.27,897.87,23.05,
4267575,-0.04,-0.02,1.23,-5.74,1.28,12.33,897.92,23.06,
4267613,-0.04,-0.02,1.24,-5.8,0.55,12.33,898.02,23.06,
4267663,-0.03,-0.02,1.24,-5.8,0.31,12.45,897.99,23.05,
4267702,-0.02,-0.02,1.26,-5.74,-0.37,12.45,898.02,23.06,
4267740,-0.03,-0.02,1.24,-5.74,-0.92,12.51,898.02,23.07,
4267778,-0.03,-0.02,1.26,-5.98,-0.98,12.57,898.04,23.06,
4267816,-0.03,-0.02,1.27,-6.04,-1.59,12.51,897.97,23.07,
4267855,-0.04,-0.01,1.26,-6.16,-1.83,12.57,897.99,23.06,
4267893,-0.04,-0.01,1.26,-6.1,-2.2,12.57,897.99,23.06,
4267931,-0.03,-0.01,1.28,-6.1,-2.44,12.51,897.98,23.07,
4267969,-0.03,-0.02,1.28,-6.23,-2.44,12.45,898.02,23.06,
4268019,-0.03,-0.02,1.27,-6.29,-2.08,12.15,898.04,23.06,
4268058,-0.03,-0.02,1.3,-6.1,-1.34,12.08,897.99,23.07,
4268096,-0.03,-0.01,1.28,-6.47,-0.67,12.02,897.97,23.06,
4268134,-0.04,-0.0,1.31,-6.23,-0.18,11.9,897.97,23.08,
4268172,-0.04,-0.01,1.3,-6.47,0.49,11.96,898.05,23.07,
4268211,-0.03,-0.01,1.33,-6.47,0.92,12.02,898.06,23.07,
4268249,-0.04,-0.01,1.33,-6.71,1.34,11.9,897.98,23.07,
4268287,-0.02,-0.01,1.33,-6.29,2.08,11.78,898.06,23.07,
4268325,-0.03,-0.01,1.33,-6.23,2.99,11.78,897.99,23.07,
4268401,-0.04,-0.01,1.33,-5.55,3.36,11.72,898.09,23.05,
4268440,-0.04,-0.02,1.33,-5.86,4.03,11.78,898.08,23.05,
4268478,-0.03,-0.02,1.33,-5.49,4.03,11.84,898.01,23.06,
4268568,-0.02,-0.01,1.33,-5.86,4.52,11.84,898.1,23.04,
4268606,-0.02,-0.02,1.32,-5.86,4.94,11.9,898.12,23.05,
4268644,-0.03,-0.03,1.31,-5.8,5.25,11.9,898.1,23.05,
4268682,-0.03,-0.02,1.32,-5.55,4.7,11.84,898.12,23.05,
4268721,-0.03,-0.01,1.35,-5.37,4.15,12.02,898.08,23.05,
4268759,-0.02,-0.01,1.32,-5.74,4.21,11.96,898.07,23.06,
4268809,-0.02,-0.02,1.37,-5.55,3.48,12.02,898.1,23.04,
4268847,-0.02,-0.03,1.32,-6.04,3.78,12.21,898.11,23.05,
4268885,-0.02,-0.01,1.37,-6.1,3.66,11.9,898.11,23.06,
4268924,-0.03,-0.01,1.35,-6.41,4.21,12.08,898.08,23.05,
4268962,-0.02,-0.01,1.35,-6.47,3.85,11.96,898.11,23.06,
4269000,-0.02,-0.01,1.37,-6.35,4.52,12.02,898.15,23.07,
4269038,-0.02,-0.02,1.39,-6.23,4.33,12.02,898.12,23.05,
4269077,-0.01,-0.01,1.39,-6.16,4.27,12.02,898.16,23.07,
4269115,-0.03,-0.01,1.36,-6.04,4.21,11.84,898.16,23.07,
4269153,-0.02,-0.02,1.35,-6.04,4.27,12.08,898.13,23.07,
4269203,-0.02,-0.02,1.33,-6.23,4.27,11.9,898.11,23.05,
4269241,-0.02,-0.01,1.33,-6.29,4.52,11.72,898.12,23.06,
4269280,-0.01,-0.01,1.33,-6.16,4.52,11.84,898.17,23.06,
4269318,-0.01,-0.01,1.33,-6.23,3.85,11.96,898.17,23.06,
4269356,-0.01,-0.01,1.37,-6.29,3.54,11.72,898.17,23.07,
4269394,-0.01,-0.02,1.38,-6.1,3.3,11.78,898.12,23.06,
4269433,-0.02,-0.02,1.39,-6.23,3.23,11.9,898.15,23.06,
4269471,-0.02,-0.01,1.34,-6.16,3.42,11.9,898.17,23.07,
4269509,-0.01,-0.02,1.31,-6.16,3.17,11.54,898.19,23.07,
4269559,-0.02,-0.02,1.27,-6.23,3.72,11.41,898.17,23.05,
4269597,-0.02,-0.03,1.26,-6.1,4.03,11.6,898.19,23.06,
4269636,-0.02,-0.03,1.2,-6.23,4.15,11.47,898.17,23.06,
4269674,-0.02,-0.02,1.21,-6.35,4.15,11.35,898.16,23.06,
4269712,-0.02,-0.03,1.24,-6.29,4.15,11.47,898.17,23.06,
4269750,-0.02,-0.04,1.25,-6.41,4.52,11.29,898.19,23.06,
4269789,-0.02,-0.03,1.23,-6.35,4.58,11.35,898.2,23.06,
4269827,-0.02,-0.03,1.22,-6.41,4.88,11.35,898.21,23.07,
4269865,-0.03,-0.04,1.16,-6.59,4.94,11.29,898.23,23.06,
4269915,-0.03,-0.04,1.14,-6.41,4.33,11.41,898.17,23.06,
4269953,-0.03,-0.05,1.08,-6.65,4.76,11.54,898.22,23.07,
4269992,-0.02,-0.03,1.12,-6.53,4.21,11.41,898.18,23.07,
4270030,-0.03,-0.03,1.15,-6.71,4.94,11.54,898.26,23.06,
4270068,-0.01,-0.05,1.17,-6.77,4.21,11.66,898.19,23.07,
4270106,-0.02,-0.04,1.22,-7.02,4.27,11.66,898.23,23.08,
4270145,-0.03,-0.05,1.2,-7.2,4.46,11.78,898.21,23.07,
4270183,-0.02,-0.04,1.21,-7.2,4.27,11.84,898.21,23.07,
4270221,-0.03,-0.04,1.2,-7.57,4.39,11.9,898.19,23.07,
4270260,-0.02,-0.04,1.21,-7.51,4.33,12.02,898.23,23.07,
4270310,-0.01,-0.04,1.26,-7.45,4.58,12.08,898.2,23.06,
4270348,-0.02,-0.03,1.28,-7.57,5.31,11.84,898.2,23.06,
4270386,-0.02,-0.02,1.31,-7.14,5.25,11.84,898.21,23.06,
4270424,-0.03,-0.02,1.35,-7.2,5.19,12.02,898.12,23.05,
4270463,-0.02,-0.04,1.34,-7.32,5.62,11.96,898.19,23.07,
4270501,-0.01,-0.01,1.39,-6.9,5.13,11.9,898.23,23.07,
4270539,-0.02,-0.03,1.37,-6.77,5.43,12.15,898.2,23.05,
4270577,-0.02,-0.02,1.36,-6.53,4.64,12.02,898.22,23.07,
4270616,-0.0,-0.01,1.39,-6.23,4.7,12.02,898.25,23.06,
4270666,-0.02,-0.03,1.34,-6.16,3.91,12.15,898.26,23.05,
4270704,-0.02,-0.02,1.37,-6.1,3.72,12.02,898.22,23.06,
4270742,-0.01,-0.03,1.34,-6.41,3.78,11.9,898.21,23.06,
4270781,-0.02,-0.03,1.31,-6.29,3.36,11.96,898.2,23.05,
4270819,-0.02,-0.03,1.31,-6.47,2.75,12.08,898.22,23.06,
4270857,-0.02,-0.03,1.3,-6.35,2.93,11.96,898.19,23.05,
4270895,-0.02,-0.03,1.28,-6.41,3.17,11.78,898.21,23.06,
4270933,-0.01,-0.03,1.3,-6.29,3.42,11.78,898.24,23.07,
4270972,-0.03,-0.04,1.26,-6.41,4.27,11.54,898.23,23.05,
4271022,-0.02,-0.02,1.27,-6.47,4.82,11.29,898.18,23.04,
4271060,-0.01,-0.03,1.27,-6.35,4.94,11.41,898.25,23.05,
4271098,-0.01,-0.02,1.29,-6.71,4.7,11.29,898.24,23.05,
4271136,-0.01,-0.01,1.36,-6.77,4.7,11.11,898.23,23.05,
4271175,-0.02,-0.01,1.4,-6.96,3.97,11.23,898.19,23.05,
4271213,-0.03,-0.0,1.47,-7.02,2.87,11.41,898.19,23.05,
4271251,-0.04,-0.01,1.46,-7.2,3.36,11.47,898.23,23.05,
4271289,-0.0,0.01,1.48,-6.84,2.26,11.17,898.24,23.06,
4271328,-0.01,0.0,1.51,-6.41,1.16,11.47,898.19,23.05,
4271366,-0.02,-0.01,1.43,-6.23,0.98,11.54,898.22,23.04,
4271443,0.0,-0.0,1.48,-5.74,0.43,11.54,898.19,23.02,
4271481,-0.02,-0.01,1.44,-5.86,-0.92,11.41,898.17,23.04,
4271520,-0.03,-0.0,1.47,-5.92,-0.43,11.41,898.2,23.03,
4271609,-0.02,-0.01,1.42,-5.31,-0.37,11.17,898.2,23.0,
4271648,-0.02,-0.01,1.37,-5.43,0.43,10.93,898.12,23.01,
4271686,-0.04,-0.01,1.33,-5.37,0.79,10.93,898.12,23.02,
4271724,-0.03,-0.01,1.36,-5.31,0.85,11.17,898.13,23.01,
4271762,-0.03,-0.01,1.35,-5.55,0.98,10.93,898.07,23.02,
4271801,-0.04,-0.0,1.41,-5.31,0.73,11.17,898.13,23.03,
4271851,-0.03,-0.0,1.41,-5.49,0.55,11.05,898.16,23.02,
4271889,-0.05,-0.01,1.4,-5.37,0.43,11.23,898.2,23.05,
4271927,-0.04,-0.03,1.39,-5.19,1.34,11.41,898.13,23.02,
4271965,-0.03,-0.02,1.32,-5.31,2.01,11.29,898.14,23.03,
4272004,-0.05,0.0,1.3,-4.94,2.26,11.23,898.16,23.05,
4272042,-0.05,-0.02,1.27,-4.82,2.99,11.41,898.12,23.03,
4272080,-0.02,-0.02,1.29,-5.07,3.6,11.23,898.09,23.03,
4272118,-0.04,-0.02,1.32,-5.25,3.85,11.35,898.12,23.04,
4272157,-0.04,-0.01,1.34,-4.88,3.54,11.6,898.09,23.05,
4272207,-0.04,-0.01,1.35,-4.76,3.97,11.84,898.07,23.02,
4272245,-0.04,-0.02,1.37,-4.52,3.54,11.78,898.09,23.03,
4272283,-0.04,-0.04,1.29,-4.52,3.54,11.84,898.05,23.03,
4272321,-0.05,-0.03,1.25,-4.21,3.36,12.08,898.11,23.05,
4272360,-0.01,-0.02,1.23,-4.09,2.75,11.96,898.08,23.02,
4272398,-0.04,-0.03,1.24,-3.91,1.83,12.27,898.06,23.03,
4272436,-0.05,-0.05,1.21,-4.09,2.44,12.45,898.08,23.05,
4272474,-0.04,-0.04,1.24,-4.09,1.4,12.7,898.09,23.04,
4272513,-0.03,-0.04,1.22,-4.58,1.1,12.76,898.11,23.03,
4272551,-0.03,-0.02,1.28,-4.58,-0.12,13.0,898.06,23.04,
4272601,-0.01,-0.03,1.26,-4.88,0.43,12.94,898.07,23.04,
4272639,-0.02,-0.03,1.3,-4.7,-0.31,13.24,898.01,23.03,
4272677,-0.04,-0.03,1.29,-5.25,-0.43,13.18,898.02,23.04,
4272716,-0.04,-0.01,1.33,-4.94,-0.43,13.24,898.02,23.05,
4272754,-0.03,-0.02,1.35,-5.19,0.18,13.0,897.98,23.04,
4272792,-0.02,-0.02,1.35,-5.37,0.24,13.12,897.96,23.04,
4272830,-0.03,-0.01,1.38,-5.07,0.85,12.94,897.99,23.05,
4272869,-0.03,-0.02,1.35,-5.07,1.95,13.12,898.03,23.03,
4272907,-0.03,-0.01,1.35,-4.82,1.4,13.12,897.97,23.04,
4272957,-0.03,-0.02,1.33,-4.76,2.2,13.06,897.98,23.03,
4272995,-0.03,-0.03,1.34,-4.76,2.5,13.0,897.98,23.03,
4273033,-0.02,-0.02,1.32,-4.94,2.99,13.12,897.97,23.05,
4273072,-0.02,-0.01,1.35,-4.76,2.93,12.94,897.98,23.04,
4273110,-0.02,-0.02,1.31,-4.94,4.03,13.12,897.96,23.03,
4273148,-0.02,-0.02,1.35,-4.7,4.15,12.94,897.98,23.04,
4273187,-0.02,-0.03,1.31,-4.64,4.76,13.06,897.98,23.04,
4273225,-0.03,-0.01,1.32,-4.58,4.21,13.37,897.97,23.04,
4273263,-0.02,-0.02,1.29,-4.82,5.13,13.18,897.98,23.03,
4273313,-0.01,-0.0,1.35,-4.88,4.52,13.31,897.96,23.02,
4273351,-0.01,-0.02,1.39,-4.58,3.54,13.61,897.92,23.02,
4273389,-0.03,-0.02,1.32,-4.76,2.93,13.67,897.95,23.04,
4273428,-0.02,-0.02,1.38,-4.21,2.38,13.55,897.93,23.04,
4273466,-0.0,-0.04,1.31,-4.82,3.05,13.61,897.93,23.04,
4273504,-0.02,-0.01,1.34,-4.39,1.28,13.49,897.95,23.05,
4273542,-0.01,-0.02,1.3,-4.64,2.5,13.37,897.95,23.03,
4273581,-0.01,-0.02,1.3,-4.46,2.01,13.37,897.93,23.03,
4273619,-0.01,-0.03,1.31,-4.39,1.89,13.49,897.95,23.04,
4273669,-0.03,-0.02,1.27,-4.46,0.92,13.37,897.92,23.03,
4273707,-0.01,-0.03,1.25,-4.7,2.44,13.37,897.82,23.02,
4273745,0.01,-0.02,1.26,-4.64,1.46,13.24,897.9,23.03,
4273784,-0.02,-0.03,1.26,-4.76,2.2,13.24,897.87,23.03,
4273822,-0.04,-0.04,1.19,-4.82,2.93,13.31,897.82,23.04,
4273860,-0.01,-0.03,1.24,-4.88,3.72,13.0,897.81,23.03,
4273898,0.0,-0.04,1.18,-5.25,3.66,12.88,897.85,23.04,
4273937,-0.04,-0.01,1.22,-5.25,3.11,12.88,897.84,23.03,
4273975,-0.02,-0.04,1.22,-4.94,3.97,12.88,897.83,23.04,
4274013,0.0,-0.05,1.17,-5.07,3.97,12.63,897.85,23.04,
4274063,-0.02,-0.04,1.17,-5.07,3.97,12.94,897.82,23.03,
4274101,-0.01,-0.04,1.13,-5.07,3.66,12.82,897.84,23.03,
4274140,-0.03,-0.04,1.08,-5.19,3.85,12.82,897.88,23.04,
4274178,-0.01,-0.04,1.09,-5.19,3.91,12.88,897.81,23.03,
4274216,-0.0,-0.05,1.08,-5.43,3.66,12.88,897.76,23.05,
4274254,-0.03,-0.05,1.04,-5.55,4.21,12.82,897.78,23.05,
4274293,-0.01,-0.04,1.06,-5.49,4.58,12.63,897.74,23.04,
4274331,-0.02,-0.05,1.08,-5.49,4.33,12.57,897.76,23.04,
4274369,-0.01,-0.06,1.06,-5.49,4.64,12.7,897.73,23.04,
4274445,-0.02,-0.03,1.06,-5.37,5.62,12.51,897.76,23.02,
4274483,-0.02,-0.03,1.14,-4.94,5.49,12.51,897.7,23.03,
4274522,-0.02,-0.04,1.12,-5.31,6.77,12.63,897.72,23.04,
4274611,-0.02,-0.03,1.19,-5.0,7.26,12.7,897.66,23.0,
4274650,-0.01,-0.03,1.22,-4.88,7.08,12.63,897.73,23.01,
4274688,-0.01,-0.03,1.24,-4.82,6.59,12.82,897.68,23.02,
4274726,-0.01,-0.03,1.23,-5.0,6.65,12.76,897.73,23.02,
4274765,-0.01,-0.02,1.24,-4.94,6.65,12.7,897.7,23.02,
4274803,-0.0,-0.02,1.25,-5.07,7.14,12.63,897.71,23.03,
4274853,-0.01,-0.02,1.26,-4.64,6.9,12.82,897.68,23.01,
4274891,-0.0,-0.02,1.27,-4.15,8.24,12.7,897.71,23.02,
4274929,0.0,-0.02,1.29,-3.72,9.09,12.57,897.78,23.04,
4274967,0.0,-0.02,1.27,-3.23,10.5,12.39,897.64,23.04,
4275006,0.0,-0.03,1.22,-2.56,12.51,11.96,897.62,23.05,
4275044,0.01,-0.03,1.22,-1.89,14.4,12.02,897.57,23.03,
4275082,0.02,-0.03,1.19,-1.34,16.05,11.72,897.59,23.04,
4275120,0.02,-0.02,1.19,-0.98,16.24,11.66,897.53,23.04,
4275159,0.01,-0.04,1.15,-0.67,17.64,11.72,897.53,23.04,
4275197,0.03,-0.04,1.16,-0.31,17.4,11.54,897.52,23.05,
4275247,0.04,-0.05,1.15,-0.12,18.43,11.41,897.51,23.03,
4275285,0.03,-0.04,1.14,0.43,18.19,11.47,897.5,23.05,
4275323,0.04,-0.04,1.13,0.43,18.55,11.29,897.5,23.04,
4275362,0.03,-0.05,1.08,0.73,18.49,10.99,897.56,23.05,
4275400,0.02,-0.05,1.08,1.1,18.13,11.17,897.51,23.05,
4275438,0.04,-0.05,1.04,1.34,18.31,11.17,897.53,23.05,
4275476,0.05,-0.05,1.01,1.4,18.07,10.8,897.53,23.06,
4275515,0.05,-0.05,1.0,1.71,17.82,10.93,897.5,23.04,
4275553,0.03,-0.06,0.97,1.83,17.15,10.8,897.47,23.05,
4275603,0.04,-0.06,0.96,1.83,16.97,10.62,897.48,23.04,
4275641,0.04,-0.06,0.93,1.77,16.97,10.5,897.44,23.04,
4275679,0.04,-0.06,0.92,1.83,16.42,10.38,897.46,23.04,
4275718,0.04,-0.06,0.93,1.53,15.81,10.31,897.41,23.05,
4275756,0.05,-0.06,0.92,1.65,15.75,9.89,897.47,23.04,
4275794,0.05,-0.06,0.9,1.22,16.17,9.77,897.47,23.04,
4275832,0.04,-0.06,0.91,1.22,15.62,9.83,897.47,23.04,
4275871,0.03,-0.07,0.9,1.28,15.81,9.58,897.43,23.04,
4275909,0.04,-0.06,0.92,0.92,15.08,9.4,897.42,23.04,
4275947,0.05,-0.06,0.93,0.67,15.32,9.28,897.42,23.04,
4275997,0.05,-0.06,0.94,0.55,14.71,8.97,897.43,23.03,
4276035,0.05,-0.07,0.93,0.0,15.62,8.91,897.42,23.04,
4276073,0.05,-0.06,0.95,0.06,14.83,8.85,897.39,23.03,
4276112,0.03,-0.06,0.96,-0.31,15.38,8.48,897.42,23.04,
4276150,0.06,-0.07,0.97,-0.12,15.08,8.48,897.37,23.03,
4276188,0.05,-0.06,1.02,0.18,14.47,8.24,897.41,23.04,
