timestamp,acc_x,acc_y,acc_z,rot_x,rot_y,rot_z,qfe,temp,Unnamed: 10
6711527,-0.02,-0.05,0.98,1.77,-0.49,2.5,943.76,21.37,
6711617,-0.02,-0.05,0.95,1.65,0.55,2.44,943.78,21.32,
6711655,-0.02,-0.05,0.96,1.95,0.73,2.5,943.84,21.34,
6711693,-0.01,-0.05,0.95,1.77,0.98,2.44,943.85,21.35,
6711732,-0.02,-0.04,0.97,2.08,0.61,2.5,943.81,21.36,
6711770,-0.02,-0.05,0.97,1.89,1.34,2.44,943.8,21.35,
6711808,-0.01,-0.05,0.99,1.89,1.4,2.32,943.8,21.35,
6711846,-0.01,-0.05,0.96,1.95,1.71,2.38,943.89,21.35,
6711896,-0.01,-0.04,0.97,2.14,1.1,2.26,943.9,21.34,
6711935,-0.02,-0.06,0.93,1.95,1.77,2.26,943.83,21.35,
6711973,-0.01,-0.05,0.95,1.95,0.98,2.08,943.8,21.36,
6712011,-0.0,-0.05,0.97,2.01,0.85,2.08,943.87,21.37,
6712049,-0.02,-0.05,0.93,1.89,0.92,2.01,943.84,21.36,
6712088,-0.01,-0.03,0.97,1.83,0.61,2.01,943.87,21.37,
6712126,0.01,-0.04,1.05,1.89,-0.18,1.95,943.91,21.38,
6712164,-0.01,-0.05,1.06,1.71,-1.22,2.01,943.84,21.36,
6712203,-0.01,-0.04,1.11,2.08,-1.46,1.95,943.87,21.35,
6712241,-0.02,-0.04,1.1,2.01,-1.71,1.89,943.92,21.37,
6712291,-0.0,-0.03,1.12,2.01,-3.05,1.95,943.95,21.37,
6712329,-0.02,-0.03,1.1,1.95,-3.05,1.89,943.94,21.37,
6712368,-0.02,-0.03,1.11,1.89,-3.3,2.01,943.93,21.38,
6712406,-0.0,-0.03,1.14,1.77,-3.48,1.89,943.91,21.38,
6712444,-0.02,-0.03,1.16,1.71,-3.72,1.95,943.89,21.36,
6712483,-0.02,-0.02,1.21,1.77,-4.33,2.01,943.89,21.36,
6712521,-0.02,-0.03,1.18,1.4,-3.66,1.77,943.94,21.37,
6712559,-0.02,-0.02,1.24,1.4,-4.33,1.83,943.95,21.38,
6712597,-0.01,-0.03,1.19,1.28,-3.72,1.95,943.96,21.38,
6712647,-0.01,-0.02,1.21,1.77,-4.39,1.77,943.97,21.37,
6712686,-0.01,-0.03,1.14,1.65,-3.85,1.83,944.02,21.37,
6712724,-0.02,-0.02,1.16,1.83,-4.52,1.83,944.01,21.37,
6712762,-0.01,-0.04,1.13,1.65,-4.03,1.71,943.98,21.37,
6712800,-0.03,-0.03,1.14,1.95,-4.7,1.83,943.99,21.37,
6712839,-0.02,-0.04,1.15,1.77,-3.85,1.71,943.96,21.38,
6712877,-0.02,-0.04,1.13,1.95,-3.66,1.65,943.98,21.37,
6712915,-0.03,-0.03,1.12,1.83,-3.48,1.65,944.03,21.37,
6712953,-0.03,-0.04,1.09,1.89,-2.69,1.65,944.0,21.38,
6712992,-0.03,-0.04,1.08,1.59,-2.5,1.77,944.01,21.37,
6713042,-0.04,-0.04,1.06,1.77,-2.38,1.89,944.1,21.37,
6713080,-0.04,-0.05,1.04,1.83,-2.2,1.89,944.07,21.38,
6713118,-0.02,-0.05,1.04,1.34,-1.71,1.89,944.1,21.37,
6713156,-0.04,-0.04,1.04,1.59,-1.53,1.95,944.04,21.37,
6713195,-0.05,-0.05,1.0,1.34,-1.16,2.2,944.06,21.39,
6713233,-0.04,-0.05,1.0,1.34,-1.1,2.14,944.02,21.38,
6713271,-0.04,-0.05,1.01,1.16,-1.16,2.5,944.11,21.39,
6713309,-0.04,-0.06,1.0,0.92,-0.92,2.5,944.07,21.38,
6713348,-0.05,-0.05,1.0,0.85,-1.16,2.99,944.05,21.38,
6713398,-0.04,-0.05,1.02,0.67,-0.43,2.93,944.09,21.36,
6713436,-0.04,-0.04,1.01,0.85,-0.55,3.11,944.11,21.37,
6713474,-0.05,-0.05,1.02,1.04,-0.31,3.36,944.06,21.38,
6713512,-0.05,-0.05,0.99,0.98,0.24,3.48,944.13,21.37,
6713551,-0.05,-0.05,1.02,0.92,0.12,3.72,944.17,21.38,
6713589,-0.04,-0.05,1.01,0.79,0.0,3.85,944.14,21.38,
6713627,-0.04,-0.05,1.01,1.04,-0.37,4.15,944.1,21.38,
6713665,-0.03,-0.05,1.01,0.85,-0.37,4.27,944.11,21.38,
6713704,-0.04,-0.05,1.0,0.98,-0.92,4.52,944.07,21.37,
6713742,-0.05,-0.05,0.99,0.92,-1.16,4.7,944.13,21.37,
6713792,-0.04,-0.05,0.98,0.55,-1.22,4.76,944.16,21.38,
6713830,-0.05,-0.05,1.0,0.37,-1.34,4.88,944.16,21.37,
6713868,-0.04,-0.05,0.99,0.18,-1.4,4.82,944.18,21.39,
6713907,-0.04,-0.05,0.99,0.06,-1.53,4.82,944.13,21.38,
6713945,-0.04,-0.05,0.98,0.0,-1.1,5.13,944.15,21.38,
6713983,-0.04,-0.05,0.98,0.0,-0.98,5.0,944.19,21.39,
6714021,-0.05,-0.04,0.98,0.12,-0.06,5.13,944.21,21.39,
6714060,-0.04,-0.05,0.98,0.12,0.55,5.13,944.17,21.37,
6714098,-0.03,-0.05,1.02,0.31,0.67,5.19,944.13,21.38,
6714148,-0.04,-0.05,1.01,0.24,1.16,5.31,944.16,21.37,
6714186,-0.04,-0.04,1.02,0.43,1.28,5.31,944.2,21.37,
6714224,-0.04,-0.05,1.0,0.31,2.14,5.49,944.17,21.37,
6714263,-0.05,-0.05,0.99,0.24,2.38,5.43,944.22,21.37,
6714301,-0.04,-0.05,1.01,0.24,2.14,5.68,944.19,21.37,
6714339,-0.03,-0.06,1.0,0.18,2.81,5.55,944.2,21.37,
6714377,-0.04,-0.04,1.02,0.12,2.75,5.86,944.17,21.38,
6714416,-0.04,-0.05,1.0,0.0,3.23,5.86,944.25,21.38,
6714454,-0.04,-0.04,1.01,0.06,3.23,5.92,944.22,21.38,
6714492,-0.03,-0.04,1.02,0.24,3.42,5.92,944.26,21.39,
6714568,-0.03,-0.04,1.03,0.12,3.78,6.16,944.29,21.35,
6714606,-0.01,-0.05,1.04,0.0,3.85,6.16,944.25,21.38,
6714645,-0.01,-0.04,1.07,0.31,3.66,6.29,944.3,21.38,
6714734,-0.02,-0.03,1.08,0.24,3.36,6.35,944.32,21.34,
6714773,-0.02,-0.04,1.05,0.18,3.36,6.1,944.3,21.35,
6714811,-0.01,-0.03,1.05,0.31,2.62,6.04,944.35,21.37,
6714849,-0.01,-0.05,1.03,0.49,2.99,6.53,944.35,21.36,
6714888,-0.02,-0.05,1.02,0.49,2.2,6.53,944.35,21.36,
6714926,-0.02,-0.05,1.04,0.61,2.14,6.47,944.36,21.37,
6714964,-0.03,-0.06,1.02,0.55,2.2,6.59,944.39,21.37,
6715014,-0.02,-0.06,1.03,0.43,2.08,6.35,944.43,21.36,
6715052,-0.02,-0.05,1.03,0.43,2.32,6.41,944.35,21.37,
6715090,-0.0,-0.04,1.04,0.37,2.14,6.41,944.38,21.38,
6715129,-0.0,-0.05,1.05,0.49,2.08,6.41,944.33,21.36,
6715167,-0.03,-0.05,1.05,0.73,1.59,6.53,944.36,21.38,
6715205,-0.04,-0.05,1.05,0.85,1.53,6.59,944.41,21.38,
6715243,-0.01,-0.05,1.03,0.55,1.77,6.47,944.37,21.38,
6715282,-0.01,-0.05,1.06,0.55,0.92,6.59,944.37,21.38,
6715320,-0.01,-0.06,1.05,0.55,0.67,6.77,944.39,21.38,
6715370,-0.03,-0.06,1.09,0.67,0.18,6.65,944.29,21.36,
6715408,-0.03,-0.05,1.11,0.37,-0.24,6.9,944.32,21.38,
6715446,-0.01,-0.05,1.11,0.43,-0.31,6.65,944.4,21.37,
6715485,-0.01,-0.05,1.13,0.31,0.31,6.71,944.44,21.39,
6715523,-0.01,-0.07,1.1,0.37,0.61,6.65,944.39,21.37,
6715561,-0.01,-0.07,1.12,0.67,0.61,6.65,944.41,21.39,
6715599,-0.01,-0.05,1.04,0.67,1.4,6.59,944.43,21.38,
6715638,-0.02,-0.04,1.06,0.92,0.49,6.47,944.41,21.39,
6715676,-0.01,-0.06,1.0,0.98,1.04,6.41,944.46,21.39,
6715714,-0.0,-0.05,0.99,1.1,0.61,6.29,944.4,21.38,
6715764,0.01,-0.04,1.0,1.1,0.92,6.47,944.43,21.38,
6715802,0.01,-0.05,0.98,1.28,0.43,6.29,944.44,21.39,
6715841,-0.0,-0.05,0.97,0.85,0.61,6.29,944.46,21.38,
6715879,0.01,-0.06,0.97,0.73,1.04,6.23,944.45,21.37,
6715917,0.01,-0.07,0.97,0.61,1.16,5.98,944.43,21.38,
6715955,0.0,-0.06,1.01,0.49,0.55,6.29,944.43,21.39,
6715994,0.01,-0.06,0.97,0.06,0.85,5.98,944.49,21.39,
6716032,-0.01,-0.06,0.98,0.12,0.85,5.92,944.43,21.39,
6716070,0.01,-0.07,0.98,0.0,1.1,5.74,944.44,21.39,
6716108,-0.0,-0.07,0.99,0.31,0.24,5.68,944.44,21.38,
6716158,0.0,-0.05,0.95,0.06,0.73,5.74,944.37,21.37,
6716197,0.03,-0.04,1.05,0.67,-0.79,5.49,944.37,21.38,
6716235,0.01,-0.07,1.01,0.49,0.12,5.68,944.36,21.38,
6716273,0.0,-0.06,1.03,0.55,-0.55,5.19,944.34,21.38,
6716311,0.01,-0.06,1.05,0.43,0.73,5.19,944.36,21.4,
6716350,0.02,-0.07,0.98,-0.06,0.79,5.0,944.37,21.39,
6716388,-0.0,-0.05,0.96,-0.24,0.12,4.94,944.39,21.37,
6716426,0.01,-0.06,1.0,-0.24,-0.31,4.7,944.4,21.37,
6716464,0.02,-0.06,0.97,-0.31,-0.92,4.64,944.43,21.37,
6716514,0.02,-0.05,1.04,-0.37,-3.11,4.76,944.41,21.38,
6716553,0.02,-0.05,1.08,-0.55,-3.42,4.82,944.38,21.37,
6716591,-0.0,-0.06,1.14,-0.37,-6.47,4.88,944.41,21.39,
6716629,-0.01,-0.07,1.15,-0.61,-7.75,5.07,944.41,21.37,
6716667,0.01,-0.06,1.19,-0.98,-8.06,5.07,944.43,21.37,
6716706,0.02,-0.04,1.17,-1.65,-8.12,5.07,944.44,21.38,
6716744,-0.01,-0.03,1.15,-1.83,-8.18,5.13,944.39,21.38,
6716782,-0.04,-0.04,1.22,-1.53,-8.3,5.07,944.42,21.38,
6716820,-0.01,-0.05,1.23,-1.77,-7.45,4.94,944.46,21.37,
6716859,-0.03,-0.04,1.26,-1.1,-7.02,5.0,944.45,21.37,
6716909,-0.03,-0.04,1.22,-0.49,-5.74,5.07,944.44,21.36,
6716947,-0.01,-0.04,1.2,-0.37,-5.68,5.0,944.41,21.36,
6716985,-0.04,-0.04,1.19,-0.18,-4.64,5.19,944.43,21.37,
6717024,-0.02,-0.04,1.16,-0.31,-3.97,5.13,944.42,21.37,
6717062,-0.03,-0.03,1.19,0.0,-2.99,5.19,944.44,21.37,
6717100,-0.01,-0.03,1.22,0.31,-2.62,5.31,944.47,21.39,
6717138,-0.02,-0.04,1.24,0.31,-1.59,5.43,944.42,21.37,
6717177,-0.04,-0.03,1.2,0.18,-0.37,5.49,944.43,21.37,
6717215,-0.06,-0.03,1.25,0.37,-0.06,5.62,944.46,21.37,
6717265,-0.03,-0.05,1.22,0.06,0.55,5.86,944.44,21.37,
6717303,-0.03,-0.04,1.23,0.43,0.49,5.8,944.44,21.37,
6717341,-0.04,-0.05,1.19,0.31,1.65,6.23,944.46,21.37,
6717380,-0.01,-0.04,1.22,0.31,1.4,6.41,944.51,21.39,
6717418,-0.03,-0.05,1.19,0.43,1.77,6.47,944.48,21.37,
6717456,-0.06,-0.04,1.16,0.06,0.73,6.96,944.45,21.37,
6717494,-0.04,-0.06,1.17,0.24,1.28,7.2,944.48,21.37,
6717533,-0.04,-0.06,1.07,-0.49,1.04,7.26,944.5,21.37,
6717571,-0.05,-0.05,1.1,-0.43,-0.12,7.87,944.48,21.38,
6717609,-0.03,-0.06,1.04,-0.79,0.67,7.81,944.47,21.39,
6717685,-0.02,-0.06,1.06,-1.22,1.46,8.18,944.5,21.36,
6717723,-0.03,-0.06,1.06,-1.53,1.71,8.24,944.51,21.36,
6717762,-0.02,-0.05,1.1,-1.59,1.95,8.3,944.54,21.37,
6717851,-0.01,-0.06,1.1,-1.83,1.77,8.42,944.51,21.33,
6717890,-0.0,-0.06,1.08,-2.08,2.14,8.36,944.57,21.35,
6717928,-0.02,-0.06,1.08,-1.89,2.5,8.67,944.53,21.36,
6717966,-0.01,-0.06,1.11,-1.89,1.89,8.42,944.52,21.36,
6718004,-0.02,-0.06,1.12,-2.01,1.89,8.61,944.55,21.35,
6718043,-0.0,-0.06,1.13,-2.32,1.59,8.36,944.56,21.38,
6718093,-0.01,-0.05,1.11,-2.69,2.38,8.42,944.54,21.36,
6718131,0.0,-0.04,1.12,-2.62,1.77,8.54,944.56,21.36,
6718169,-0.01,-0.05,1.13,-2.62,2.75,8.24,944.51,21.36,
6718207,-0.0,-0.06,1.15,-2.62,2.81,8.24,944.54,21.37,
6718246,-0.01,-0.05,1.2,-2.44,2.44,8.18,944.53,21.36,
6718284,-0.02,-0.05,1.17,-2.81,3.05,8.18,944.51,21.37,
6718322,-0.0,-0.04,1.22,-2.5,2.93,8.0,944.59,21.38,
6718360,0.02,-0.06,1.19,-2.38,2.93,7.93,944.5,21.37,
6718399,-0.01,-0.05,1.16,-2.14,2.26,7.87,944.54,21.38,
6718437,-0.02,-0.06,1.15,-1.83,2.32,8.06,944.58,21.38,
6718487,-0.03,-0.05,1.09,-1.83,1.71,8.06,944.63,21.38,
6718525,-0.0,-0.05,1.16,-1.46,1.04,8.0,944.61,21.38,
6718563,0.01,-0.06,1.09,-1.65,0.31,8.18,944.55,21.38,
6718602,-0.01,-0.05,1.14,-1.65,-1.04,8.18,944.53,21.38,
6718640,-0.0,-0.06,1.11,-2.08,-0.49,8.18,944.54,21.37,
6718678,-0.0,-0.05,1.09,-2.01,-1.34,8.24,944.57,21.38,
6718716,-0.01,-0.04,1.13,-1.65,-2.87,8.42,944.62,21.38,
6718755,-0.03,-0.05,1.06,-2.14,-1.83,8.3,944.58,21.37,
6718793,-0.01,-0.05,1.07,-1.95,-2.62,8.3,944.59,21.4,
6718843,-0.01,-0.05,1.05,-2.01,-2.32,8.36,944.54,21.38,
6718881,0.01,-0.05,1.03,-1.89,-2.14,8.18,944.55,21.39,
6718919,-0.01,-0.04,1.06,-2.01,-1.1,8.06,944.59,21.39,
6718957,-0.02,-0.05,1.06,-2.08,-0.73,8.0,944.55,21.39,
6718996,-0.01,-0.05,1.1,-1.77,-1.28,8.06,944.56,21.38,
6719034,-0.01,-0.04,1.14,-1.65,-0.67,7.81,944.52,21.38,
6719072,-0.01,-0.05,1.13,-1.65,-0.43,7.87,944.54,21.39,
6719110,-0.02,-0.04,1.16,-1.4,-0.37,7.93,944.49,21.39,
6719149,-0.01,-0.05,1.11,-1.4,0.06,8.24,944.57,21.39,
6719199,-0.02,-0.05,1.12,-1.04,0.79,8.18,944.48,21.37,
6719237,-0.02,-0.05,1.04,-1.4,2.69,8.12,944.52,21.39,
6719275,0.0,-0.03,1.13,-0.85,1.46,8.3,944.5,21.39,
6719313,-0.03,-0.05,1.07,-1.04,1.22,8.36,944.47,21.38,
6719351,-0.01,-0.04,1.11,-0.92,0.49,8.48,944.48,21.4,
6719390,-0.0,-0.04,1.15,-1.16,2.08,8.42,944.47,21.39,
6719428,-0.0,-0.05,1.14,-0.61,2.2,8.36,944.5,21.39,
6719466,0.01,-0.04,1.14,-0.73,1.89,8.61,944.5,21.39,
6719504,-0.0,-0.04,1.15,-0.12,1.28,8.48,944.53,21.39,
6719543,-0.01,-0.04,1.07,-0.79,1.83,8.54,944.48,21.39,
6719593,-0.02,-0.04,1.12,-0.55,1.46,8.48,944.44,21.38,
6719631,-0.01,-0.05,1.07,-0.73,0.92,8.97,944.53,21.39,
6719669,0.0,-0.04,1.11,-0.55,0.73,8.85,944.48,21.4,
6719707,-0.03,-0.04,1.08,-0.73,1.16,9.28,944.47,21.38,
6719746,-0.01,-0.05,1.1,-0.67,1.1,9.22,944.45,21.39,
6719784,-0.0,-0.05,1.05,-1.04,1.04,9.28,944.49,21.4,
6719822,0.01,-0.04,1.08,-0.79,0.12,9.22,944.48,21.4,
6719860,0.02,-0.05,1.04,-1.34,1.22,9.46,944.55,21.39,
6719899,0.02,-0.05,1.01,-1.34,0.98,9.03,944.45,21.4,
6719948,-0.01,-0.06,1.0,-1.04,0.73,9.28,944.48,21.38,
6719987,-0.01,-0.07,0.96,-1.04,0.79,9.22,944.44,21.38,
6720025,0.02,-0.05,1.0,-1.16,0.49,8.79,944.53,21.39,
6720063,0.0,-0.05,0.93,-1.16,1.34,8.85,944.4,21.39,
6720101,-0.01,-0.06,0.91,-1.34,0.79,8.85,944.45,21.39,
6720140,0.01,-0.06,0.93,-1.22,1.53,8.36,944.42,21.39,
6720178,0.02,-0.07,0.9,-1.22,2.14,8.3,944.42,21.38,
6720216,0.0,-0.06,0.9,-1.28,3.3,8.12,944.42,21.39,
6720254,0.0,-0.06,0.89,-1.34,4.39,8.18,944.39,21.39,
6720293,0.03,-0.06,0.91,-1.59,4.52,7.75,944.44,21.39,
6720343,-0.01,-0.06,0.9,-2.01,5.49,7.87,944.41,21.39,
6720381,-0.0,-0.06,0.93,-2.44,6.41,7.87,944.44,21.39,
6720419,0.02,-0.05,0.96,-2.62,7.63,7.39,944.52,21.4,
6720457,0.01,-0.05,0.98,-2.99,6.77,7.75,944.42,21.39,
6720496,0.01,-0.05,1.03,-2.56,6.29,7.81,944.48,21.41,
6720534,-0.01,-0.05,1.03,-2.81,7.02,7.69,944.45,21.39,
6720572,0.01,-0.06,1.06,-2.81,7.02,7.63,944.49,21.4,
6720610,0.02,-0.04,1.09,-2.69,7.14,7.57,944.53,21.41,
6720649,0.0,-0.03,1.12,-1.95,7.2,7.69,944.44,21.39,
6720687,-0.0,-0.04,1.1,-1.83,7.81,7.57,944.52,21.41,
6720764,-0.0,-0.04,1.17,-1.34,8.3,7.57,944.53,21.37,
6720803,-0.0,-0.04,1.2,-0.85,7.51,7.45,944.52,21.39,
6720841,0.0,-0.04,1.16,-0.85,8.67,7.2,944.51,21.39,
6720931,0.01,-0.04,1.1,0.0,9.4,7.45,944.52,21.35,
6720969,0.0,-0.05,1.09,0.43,9.28,7.39,944.54,21.36,
6721007,-0.0,-0.04,1.1,0.73,9.28,7.32,944.53,21.36,
6721045,0.01,-0.04,1.09,0.61,9.22,7.39,944.54,21.37,
6721084,0.01,-0.05,1.08,0.61,8.85,7.32,944.52,21.37,
6721122,-0.01,-0.05,1.05,0.73,8.97,7.14,944.54,21.38,
6721172,-0.0,-0.05,1.04,0.79,8.91,7.2,944.54,21.37,
6721210,-0.01,-0.05,0.99,1.22,8.67,7.39,944.61,21.38,
6721248,-0.01,-0.06,0.97,1.04,8.42,7.2,944.56,21.38,
6721286,-0.0,-0.05,0.95,1.04,8.61,7.26,944.57,21.38,
6721325,0.0,-0.05,0.93,0.43,8.18,7.2,944.56,21.37,
6721363,-0.0,-0.06,0.97,0.61,7.14,7.14,944.62,21.39,
6721401,-0.0,-0.06,0.95,0.0,6.96,7.39,944.62,21.39,
6721439,-0.01,-0.05,0.98,0.43,5.98,7.26,944.65,21.38,
6721478,-0.02,-0.06,0.99,0.0,6.29,7.32,944.66,21.37,
6721516,-0.01,-0.06,0.98,0.24,5.86,7.51,944.62,21.4,
6721566,-0.01,-0.05,1.02,0.43,5.8,7.2,944.64,21.37,
6721604,-0.01,-0.05,1.0,0.12,6.23,7.32,944.67,21.39,
6721642,-0.01,-0.05,1.06,0.61,5.43,7.63,944.64,21.39,
6721680,-0.01,-0.06,1.04,0.06,5.98,7.57,944.69,21.38,
6721719,-0.01,-0.05,1.05,0.12,5.07,7.69,944.72,21.38,
6721757,-0.01,-0.05,1.04,0.0,5.62,7.57,944.67,21.38,
6721795,0.0,-0.05,1.05,0.43,4.82,7.69,944.64,21.38,
6721833,-0.0,-0.05,1.03,0.43,4.7,7.69,944.74,21.39,
6721872,-0.01,-0.05,1.04,0.43,4.27,7.63,944.73,21.4,
6721910,-0.01,-0.06,1.01,0.31,4.46,7.75,944.76,21.39,
6721960,-0.01,-0.05,1.04,0.49,4.03,7.63,944.75,21.38,
6721998,0.0,-0.05,1.02,0.31,4.58,7.57,944.72,21.39,
6722036,0.0,-0.05,1.02,0.31,4.39,7.75,944.68,21.38,
6722075,0.01,-0.05,1.02,0.37,4.82,7.51,944.78,21.39,
6722113,-0.0,-0.05,1.04,0.61,4.52,7.57,944.68,21.38,
6722151,-0.0,-0.05,1.04,0.43,5.07,7.39,944.75,21.38,
6722189,0.0,-0.05,1.05,0.61,5.07,7.26,944.78,21.4,
6722228,0.0,-0.05,1.05,0.61,5.13,7.26,944.75,21.39,
6722266,0.01,-0.05,1.03,0.73,5.07,6.96,944.73,21.4,
6722316,0.0,-0.05,1.0,0.92,5.07,6.9,944.74,21.39,
6722354,0.02,-0.06,0.98,0.85,5.31,6.96,944.79,21.39,
6722392,0.01,-0.05,1.01,0.98,4.7,6.77,944.73,21.38,
6722431,0.01,-0.06,1.0,0.61,5.25,6.71,944.74,21.39,
6722469,0.0,-0.05,0.99,0.85,5.25,6.41,944.8,21.39,
6722507,0.01,-0.05,1.03,0.79,5.37,6.65,944.72,21.39,
6722545,0.01,-0.05,1.02,0.61,5.31,6.35,944.8,21.4,
6722584,0.01,-0.05,1.07,0.61,5.74,6.23,944.76,21.39,
6722622,0.02,-0.06,1.07,0.37,6.23,6.1,944.74,21.39,
6722660,0.01,-0.06,1.1,0.49,5.37,6.16,944.82,21.4,
6722710,0.02,-0.05,1.09,0.49,5.74,6.04,944.81,21.39,
6722748,0.01,-0.05,1.07,0.49,5.37,5.86,944.81,21.39,
6722787,0.03,-0.05,1.05,0.31,5.49,5.74,944.79,21.39,
6722825,0.02,-0.05,1.07,0.31,5.62,5.55,944.8,21.4,
6722863,0.02,-0.06,1.05,0.18,6.59,5.55,944.78,21.4,
6722901,0.02,-0.05,1.04,0.24,6.84,5.37,944.83,21.4,
6722940,0.02,-0.05,1.03,0.24,7.2,5.25,944.73,21.39,
6722978,0.03,-0.06,1.02,0.49,7.57,5.07,944.79,21.4,
6723016,0.02,-0.06,0.97,0.37,8.79,5.07,944.79,21.41,
6723054,0.01,-0.05,0.99,0.61,8.79,5.0,944.81,21.4,
6723104,0.03,-0.06,0.96,0.55,9.16,4.88,944.75,21.38,
6723143,0.02,-0.05,1.01,0.79,8.91,4.7,944.86,21.39,
6723181,0.02,-0.05,0.98,0.49,9.83,4.76,944.84,21.39,
6723219,0.02,-0.04,0.99,0.55,8.97,4.7,944.81,21.4,
6723257,0.02,-0.05,0.99,0.49,8.97,4.82,944.85,21.39,
6723296,0.02,-0.05,0.99,0.43,8.24,4.76,944.85,21.39,
6723334,0.02,-0.05,0.98,0.24,8.73,4.64,944.79,21.4,
6723372,0.03,-0.05,1.01,0.61,8.42,4.82,944.89,21.4,
6723410,0.02,-0.05,0.94,0.37,9.4,4.64,944.84,21.39,
6723449,0.01,-0.04,0.99,0.85,9.7,4.52,944.86,21.4,
6723499,0.03,-0.06,0.95,0.73,10.86,4.33,944.78,21.38,
6723537,0.02,-0.04,0.99,1.16,10.13,4.39,944.8,21.39,
6723575,0.01,-0.06,0.99,1.04,11.78,4.33,944.84,21.41,
6723613,0.04,-0.04,0.99,1.16,11.41,4.21,944.81,21.39,
6723652,0.02,-0.04,1.03,1.46,10.86,4.21,944.95,21.4,
6723690,0.03,-0.06,0.98,1.34,12.02,4.09,944.9,21.4,
6723728,0.03,-0.05,1.0,1.59,11.66,4.03,944.87,21.4,
6723766,0.02,-0.05,0.99,1.65,12.33,4.03,944.86,21.41,
6723805,0.03,-0.04,1.0,1.59,11.35,4.09,944.91,21.39,
6723843,0.02,-0.05,1.03,2.01,11.84,4.03,944.9,21.4,
6723919,0.02,-0.04,1.05,2.44,11.29,3.91,944.92,21.36,
6723957,0.03,-0.05,1.01,2.26,12.21,3.85,944.88,21.38,
6723995,0.03,-0.04,1.03,2.32,12.02,3.66,944.92,21.39,
6724085,0.02,-0.04,1.01,2.69,12.63,3.54,944.91,21.36,
6724123,0.02,-0.04,0.99,2.56,13.31,3.36,944.95,21.37,
6724162,0.03,-0.05,1.0,2.81,12.88,3.48,944.94,21.37,
6724200,0.03,-0.05,0.99,2.62,13.37,3.42,944.95,21.37,
6724238,0.02,-0.05,1.0,2.87,13.06,3.36,944.95,21.39,
6724276,0.03,-0.06,1.0,2.81,13.12,3.42,944.97,21.38,
6724326,0.01,-0.05,0.97,2.87,12.76,3.23,944.98,21.37,
6724365,0.04,-0.06,0.94,2.75,13.06,3.23,945.0,21.38,
6724403,0.04,-0.06,0.91,2.69,13.49,3.17,944.96,21.37,
6724441,0.04,-0.06,0.91,2.87,12.7,2.99,945.02,21.39,
6724479,0.03,-0.06,0.9,2.93,12.51,3.05,945.02,21.4,
6724518,0.04,-0.07,0.84,2.62,11.66,3.05,945.02,21.4,
6724556,0.02,-0.06,0.85,2.62,11.05,2.87,944.95,21.39,
6724594,0.03,-0.07,0.81,2.32,10.86,2.81,945.05,21.39,
6724632,0.05,-0.06,0.85,2.32,9.28,2.5,945.11,21.4,
6724671,0.04,-0.07,0.79,1.77,9.22,2.26,945.05,21.4,
6724721,0.05,-0.06,0.85,1.71,8.67,2.32,945.14,21.4,
6724759,0.05,-0.07,0.83,0.73,7.63,1.95,945.07,21.39,
6724797,0.02,-0.06,0.89,1.16,6.9,1.77,945.09,21.39,
6724835,0.04,-0.08,0.89,0.73,7.69,1.71,945.1,21.39,
6724874,0.06,-0.06,0.93,0.49,6.41,1.28,945.1,21.4,
6724912,0.04,-0.05,0.96,0.61,5.68,1.22,945.15,21.4,
6724950,0.03,-0.07,0.89,0.24,6.04,1.1,945.09,21.38,
6724988,0.04,-0.06,0.96,0.31,6.04,0.73,945.14,21.4,
6725027,0.05,-0.06,0.95,0.06,6.71,0.61,945.12,21.39,
6725065,0.04,-0.06,0.99,0.31,6.47,0.37,945.19,21.4,
6725115,0.04,-0.06,0.96,-0.06,8.24,0.06,945.18,21.4,
6725153,0.05,-0.05,1.03,0.24,8.12,-0.12,945.21,21.39,
6725191,0.05,-0.06,0.99,-0.12,9.46,-0.37,945.24,21.4,
6725229,0.05,-0.06,1.02,-0.24,9.16,-0.67,945.13,21.39,
6725268,0.04,-0.06,1.02,-0.31,10.13,-0.79,945.2,21.41,
6725306,0.05,-0.06,0.99,-0.37,10.01,-1.04,945.21,21.4,
6725344,0.03,-0.05,1.03,-0.43,9.7,-1.28,945.25,21.4,
6725382,0.04,-0.06,0.98,-0.79,10.8,-1.34,945.2,21.4,
6725421,0.05,-0.05,1.01,-0.43,10.01,-1.34,945.2,21.4,
6725471,0.04,-0.06,0.96,-0.67,10.31,-1.71,945.22,21.39,
6725509,0.04,-0.05,1.0,-0.37,9.16,-1.71,945.32,21.4,
6725547,0.03,-0.07,0.98,-0.61,9.28,-1.83,945.29,21.4,
6725585,0.02,-0.05,0.98,-0.49,8.0,-1.77,945.35,21.41,
6725624,0.02,-0.06,1.01,-0.31,8.42,-1.77,945.32,21.4,
6725662,0.03,-0.06,0.98,-0.55,8.91,-1.95,945.35,21.4,
6725700,0.03,-0.05,1.01,-0.31,8.24,-2.2,945.31,21.4,
6725738,0.02,-0.07,1.0,-0.18,8.91,-1.95,945.32,21.42,
6725777,0.03,-0.05,1.0,-0.37,8.36,-2.14,945.31,21.4,
6725815,0.04,-0.05,1.03,-0.24,8.0,-2.38,945.41,21.4,
6725865,-0.0,-0.07,0.99,0.12,7.75,-2.14,945.41,21.39,
6725903,0.04,-0.05,1.03,-0.18,8.12,-2.5,945.41,21.41,
6725941,0.04,-0.06,1.05,0.31,7.81,-2.56,945.42,21.41,
6725980,0.02,-0.05,1.04,-0.06,7.02,-2.5,945.46,21.41,
6726018,0.02,-0.05,1.07,-0.31,7.02,-2.5,945.45,21.41,
6726056,0.03,-0.05,1.1,-0.12,6.77,-2.56,945.45,21.41,
6726094,0.02,-0.05,1.09,-0.37,6.23,-2.62,945.46,21.4,
6726133,0.04,-0.04,1.11,-0.43,5.37,-2.81,945.42,21.4,
6726171,0.04,-0.04,1.12,-0.61,4.82,-2.81,945.45,21.4,
6726221,0.02,-0.05,1.13,-0.73,3.54,-2.81,945.54,21.39,
6726259,0.02,-0.05,1.13,-0.73,3.23,-2.81,945.52,21.39,
6726297,0.02,-0.05,1.13,-0.37,2.44,-3.11,945.49,21.41,
6726336,0.02,-0.03,1.16,-0.79,1.71,-3.17,945.49,21.41,
6726374,0.02,-0.04,1.18,-0.85,0.73,-2.87,945.53,21.41,
6726412,0.03,-0.04,1.19,-0.55,-0.67,-3.11,945.56,21.41,
6726450,-0.01,-0.04,1.18,-0.73,-0.43,-3.23,945.58,21.41,
6726489,0.01,-0.03,1.17,-0.61,-1.04,-3.05,945.59,21.4,
6726527,0.0,-0.02,1.2,-0.55,-1.22,-3.05,945.53,21.41,
6726565,0.01,-0.04,1.18,-0.37,-1.28,-3.3,945.62,21.41,
6726615,0.0,-0.04,1.2,-0.12,-0.49,-3.48,945.56,21.4,
6726653,0.0,-0.04,1.19,-0.12,-0.79,-3.42,945.62,21.4,
6726692,-0.01,-0.03,1.18,0.43,-0.55,-3.42,945.55,21.4,
6726730,-0.02,-0.04,1.16,0.79,-0.18,-3.54,945.6,21.42,
6726768,-0.01,-0.04,1.19,0.92,0.73,-3.6,945.58,21.4,
6726806,-0.03,-0.04,1.14,0.98,2.26,-3.54,945.63,21.41,
6726845,-0.01,-0.03,1.17,1.4,3.6,-3.42,945.61,21.4,
6726883,-0.0,-0.03,1.11,1.65,5.62,-3.78,945.59,21.41,
6726921,-0.03,-0.04,1.13,2.26,6.59,-3.54,945.63,21.41,
6726997,-0.01,-0.04,1.12,2.87,8.42,-3.36,945.6,21.38,
6727035,-0.01,-0.04,1.08,2.99,9.77,-3.42,945.58,21.4,
6727074,-0.01,-0.04,1.08,2.99,9.52,-3.11,945.59,21.38,
6727164,-0.01,-0.05,1.05,2.69,9.03,-2.87,945.68,21.37,
6727202,-0.01,-0.04,1.03,2.14,9.7,-2.69,945.65,21.37,
6727240,-0.0,-0.04,1.01,1.95,9.46,-2.81,945.66,21.37,
6727278,-0.02,-0.04,1.02,1.77,8.54,-2.56,945.64,21.39,
6727317,-0.01,-0.05,0.97,1.53,9.03,-2.32,945.63,21.39,
6727355,0.01,-0.05,1.02,1.77,8.54,-2.44,945.68,21.39,
6727393,0.0,-0.06,0.97,1.34,8.97,-2.26,945.65,21.38,
6727443,-0.0,-0.04,1.02,1.4,7.81,-2.26,945.66,21.39,
6727481,0.01,-0.05,0.99,1.1,8.48,-2.2,945.65,21.38,
6727520,0.01,-0.05,0.98,0.79,7.02,-2.32,945.66,21.39,
6727558,-0.01,-0.05,1.04,0.92,6.71,-2.08,945.71,21.39,
6727596,0.0,-0.06,0.97,0.31,6.77,-2.38,945.69,21.4,
6727634,0.01,-0.04,1.06,0.92,5.43,-2.26,945.64,21.38,
6727673,0.01,-0.05,1.0,0.31,5.62,-2.01,945.69,21.41,
6727711,0.01,-0.05,1.01,0.31,4.46,-2.08,945.69,21.4,
6727749,0.03,-0.05,0.99,-0.37,5.07,-2.32,945.69,21.4,
6727799,0.02,-0.05,1.03,0.0,3.66,-2.38,945.73,21.39,
6727837,0.01,-0.06,0.95,-0.73,4.94,-2.75,945.74,21.39,
6727876,-0.0,-0.06,0.96,-0.43,5.07,-3.05,945.74,21.39,
6727914,0.03,-0.06,0.99,-0.49,5.0,-2.93,945.71,21.4,
6727952,0.03,-0.05,0.99,-0.12,4.52,-3.3,945.77,21.4,
6727990,-0.01,-0.05,0.95,-0.31,5.92,-3.6,945.76,21.4,
6728029,0.0,-0.05,1.03,0.18,5.86,-3.85,945.77,21.41,
6728067,0.03,-0.05,1.07,-0.37,5.92,-3.97,945.74,21.4,
6728105,0.0,-0.04,1.14,-0.18,5.8,-4.03,945.78,21.41,
6728143,-0.0,-0.04,1.1,-0.49,7.39,-4.09,945.68,21.41,
6728193,0.02,-0.02,1.26,-0.12,5.62,-4.09,945.69,21.39,
6728232,0.01,-0.03,1.22,-0.49,6.47,-4.09,945.68,21.39,
6728270,0.0,-0.02,1.28,-0.06,5.07,-4.03,945.74,21.4,
6728308,-0.01,-0.02,1.33,0.24,4.82,-4.15,945.66,21.4,
6728346,0.0,-0.02,1.3,-0.24,4.52,-4.21,945.71,21.4,
6728385,0.01,-0.0,1.35,0.12,4.21,-4.09,945.73,21.41,
6728423,0.0,-0.03,1.32,-0.12,4.15,-4.21,945.74,21.41,
6728461,0.01,-0.04,1.3,-0.18,2.93,-4.15,945.63,21.4,
6728499,-0.01,-0.03,1.27,-0.24,3.66,-4.21,945.72,21.41,
6728549,-0.0,-0.04,1.24,-0.12,3.17,-4.15,945.77,21.4,
6728588,-0.01,-0.04,1.18,-0.06,2.99,-4.33,945.69,21.4,
6728626,-0.02,-0.04,1.13,0.12,3.3,-4.46,945.7,21.41,
6728664,-0.0,-0.04,1.18,0.0,2.75,-4.52,945.63,21.4,
6728703,-0.0,-0.05,1.15,-0.24,2.08,-4.39,945.71,21.42,
6728741,-0.03,-0.05,1.13,-0.18,1.1,-4.52,945.7,21.4,
6728779,-0.03,-0.05,1.11,-0.12,1.46,-4.46,945.66,21.4,
6728817,-0.01,-0.05,1.1,0.06,0.73,-4.52,945.68,21.4,
6728856,-0.03,-0.06,1.07,-0.06,0.67,-4.52,945.72,21.42,
6728894,-0.03,-0.06,1.07,0.06,0.12,-4.46,945.7,21.4,
6728944,-0.03,-0.06,1.04,-0.18,0.92,-4.33,945.73,21.4,
6728982,-0.03,-0.05,1.08,0.06,-0.24,-4.33,945.67,21.39,
6729020,-0.02,-0.07,1.12,-0.18,1.34,-4.39,945.69,21.41,
6729059,-0.02,-0.06,1.11,-0.49,1.65,-4.39,945.74,21.41,
6729097,-0.02,-0.06,1.18,-0.18,2.08,-4.39,945.66,21.4,
6729135,-0.03,-0.06,1.09,-0.79,2.87,-4.33,945.72,21.4,
6729174,-0.04,-0.05,1.16,-0.24,2.08,-4.39,945.7,21.4,
6729212,-0.04,-0.07,1.08,-1.04,3.91,-4.39,945.67,21.4,
6729250,-0.02,-0.05,1.12,-0.61,2.81,-4.27,945.67,21.41,
6729300,-0.03,-0.06,1.11,-1.04,3.54,-4.33,945.69,21.4,
6729338,-0.04,-0.05,1.18,-0.79,3.6,-4.58,945.72,21.41,
6729376,-0.03,-0.06,1.21,-1.04,4.33,-4.21,945.68,21.4,
6729415,-0.05,-0.06,1.18,-1.1,4.33,-4.21,945.69,21.41,
6729453,-0.05,-0.04,1.22,-1.22,4.46,-4.27,945.68,21.41,
6729491,-0.04,-0.06,1.24,-1.28,5.19,-4.09,945.64,21.42,
6729529,-0.01,-0.05,1.21,-1.34,4.82,-4.27,945.62,21.41,
6729568,-0.04,-0.05,1.21,-1.16,4.7,-3.97,945.61,21.41,
6729606,-0.03,-0.05,1.19,-0.85,4.88,-3.72,945.68,21.41,
6729656,-0.03,-0.04,1.17,-1.1,4.15,-3.91,945.61,21.39,
6729694,-0.04,-0.05,1.19,-1.04,3.6,-3.78,945.62,21.4,
6729733,-0.04,-0.06,1.23,-0.49,4.09,-3.6,945.56,21.4,
6729771,-0.02,-0.06,1.22,-0.49,3.97,-3.78,945.62,21.39,
6729809,-0.04,-0.05,1.21,-0.24,4.09,-3.6,945.67,21.41,
6729847,-0.03,-0.06,1.19,0.0,3.97,-3.42,945.62,21.41,
6729886,-0.03,-0.06,1.12,-0.12,3.42,-3.36,945.55,21.4,
6729924,-0.07,-0.05,1.12,0.43,2.26,-3.23,945.58,21.41,
6729962,-0.05,-0.06,1.06,0.43,2.38,-3.11,945.58,21.41,
6730000,-0.03,-0.06,0.96,0.37,1.28,-3.23,945.48,21.4,
6730076,-0.04,-0.08,0.92,0.79,-1.04,-2.62,945.44,21.38,
6730115,-0.05,-0.07,0.9,0.55,-2.69,-2.5,945.43,21.39,
6730153,-0.04,-0.07,0.88,0.92,-3.85,-2.44,945.39,21.4,
6730243,-0.06,-0.07,0.83,-0.31,-6.41,-1.95,945.42,21.36,
6730281,-0.05,-0.07,0.88,-0.67,-6.71,-2.08,945.36,21.38,
6730319,-0.06,-0.07,0.9,-0.73,-6.1,-1.89,945.37,21.37,
6730358,-0.08,-0.06,0.99,-1.04,-6.23,-1.83,945.39,21.39,
6730396,-0.07,-0.06,1.03,-0.67,-5.07,-1.65,945.39,21.39,
6730434,-0.07,-0.06,1.03,-1.04,-5.43,-1.53,945.42,21.39,
6730484,-0.07,-0.06,1.08,-0.85,-4.21,-1.28,945.4,21.39,
6730522,-0.06,-0.06,1.06,-0.85,-4.09,-1.16,945.43,21.4,
6730561,-0.05,-0.06,1.11,-0.49,-4.7,-1.04,945.46,21.4,
6730599,-0.05,-0.06,1.1,-0.37,-4.33,-0.92,945.41,21.39,
6730637,-0.06,-0.05,1.17,-0.37,-4.21,-0.79,945.48,21.4,
6730675,-0.04,-0.07,1.14,-0.61,-3.23,-0.79,945.41,21.39,
6730714,-0.04,-0.08,1.29,-0.06,-5.19,-0.92,945.41,21.4,
6730752,-0.03,-0.07,1.29,-0.73,-3.91,-0.79,945.42,21.41,
6730790,-0.01,-0.04,1.3,-0.18,-3.6,-1.04,945.45,21.4,
6730840,-0.05,-0.07,1.22,-0.55,-1.34,-1.1,945.43,21.39,
6730878,-0.07,-0.06,1.23,-0.43,-2.26,-1.16,945.43,21.4,
6730917,-0.06,-0.07,1.24,-0.18,-0.24,-1.28,945.42,21.41,
6730955,-0.04,-0.09,1.14,-0.73,0.85,-1.16,945.39,21.4,
6730993,-0.03,-0.06,1.13,-0.79,0.73,-1.4,945.37,21.4,
6731031,-0.04,-0.07,1.17,-0.79,1.59,-1.1,945.4,21.41,
6731070,-0.04,-0.09,1.12,-1.1,1.83,-1.16,945.37,21.4,
6731108,-0.05,-0.06,1.18,-0.85,0.31,-1.1,945.42,21.42,
6731146,-0.05,-0.07,1.15,-1.16,1.34,-0.85,945.33,21.4,
6731196,-0.01,-0.07,1.18,-1.77,0.18,-1.28,945.37,21.4,
6731234,-0.03,-0.06,1.18,-1.95,0.85,-1.22,945.37,21.4,
6731273,-0.07,-0.07,1.18,-1.53,0.18,-1.04,945.35,21.4,
6731311,-0.04,-0.07,1.16,-1.4,0.61,-1.28,945.32,21.41,
6731349,-0.05,-0.06,1.18,-1.04,-0.31,-1.04,945.31,21.41,
6731387,-0.06,-0.06,1.18,-0.98,0.31,-0.98,945.29,21.4,
6731426,-0.06,-0.07,1.18,-0.67,0.92,-1.04,945.29,21.41,
6731464,-0.03,-0.06,1.23,-0.37,1.65,-1.22,945.28,21.4,
6731502,-0.04,-0.05,1.17,-0.37,1.71,-0.92,945.26,21.41,
6731552,-0.08,-0.04,1.19,0.0,3.11,-0.85,945.23,21.4,
6731590,-0.05,-0.07,1.14,-0.12,5.19,-0.92,945.26,21.4,
6731629,-0.05,-0.07,1.14,-0.49,4.39,-0.67,945.27,21.4,
6731667,-0.05,-0.07,1.17,-0.61,4.7,-0.43,945.22,21.41,
6731705,-0.04,-0.08,1.08,-1.28,6.41,-0.37,945.23,21.4,
6731743,-0.02,-0.05,1.11,-1.65,5.31,-0.37,945.22,21.41,
6731782,-0.04,-0.06,1.11,-2.2,5.19,-0.24,945.3,21.41,
6731820,-0.03,-0.07,1.1,-2.75,5.31,-0.12,945.22,21.41,
6731858,-0.02,-0.06,1.14,-3.42,5.86,-0.43,945.22,21.41,
6731896,-0.02,-0.05,1.18,-3.6,5.62,-0.24,945.21,21.41,
6731946,-0.03,-0.06,1.17,-4.09,6.1,-0.12,945.19,21.39,
6731985,-0.02,-0.05,1.18,-4.15,6.84,-0.31,945.25,21.41,
6732023,-0.01,-0.04,1.22,-3.97,7.08,-0.31,945.25,21.41,
6732061,-0.01,-0.06,1.21,-3.85,7.14,-0.49,945.28,21.41,
6732099,-0.02,-0.05,1.24,-3.11,7.51,-0.49,945.21,21.4,
6732138,-0.01,-0.05,1.26,-2.81,7.63,-0.67,945.17,21.41,
6732176,0.0,-0.05,1.24,-2.08,7.26,-0.43,945.23,21.42,
6732214,-0.01,-0.05,1.23,-1.83,7.75,-0.73,945.18,21.41,
6732252,0.01,-0.04,1.25,-1.46,8.0,-0.92,945.14,21.42,
6732302,0.0,-0.05,1.21,-0.67,7.93,-0.92,945.17,21.41,
6732341,-0.01,-0.04,1.18,0.12,8.06,-1.1,945.15,21.4,
6732379,0.02,-0.04,1.18,0.55,8.54,-1.16,945.15,21.41,
6732417,0.02,-0.05,1.15,1.53,8.12,-1.34,945.12,21.41,
6732455,0.0,-0.05,1.16,2.08,8.12,-1.46,945.06,21.41,
6732494,0.0,-0.05,1.09,2.14,9.28,-1.59,945.1,21.41,
6732532,0.01,-0.05,1.06,2.44,9.95,-1.77,945.11,21.41,
6732570,0.03,-0.05,1.04,2.5,9.95,-1.95,945.01,21.41,
6732608,0.01,-0.06,1.04,2.75,10.13,-2.26,945.01,21.4,
6732647,0.04,-0.06,0.97,2.32,9.52,-2.26,944.97,21.42,
6732697,0.03,-0.06,0.94,2.32,8.91,-2.38,944.95,21.39,
6732735,0.04,-0.06,0.89,1.95,8.67,-2.81,944.89,21.41,
6732773,0.05,-0.06,0.92,2.32,7.69,-2.93,944.84,21.4,
6732811,0.03,-0.06,0.86,2.32,7.51,-3.11,944.89,21.41,
6732850,0.03,-0.07,0.88,2.81,6.41,-2.93,944.88,21.41,
6732888,0.02,-0.07,0.84,2.99,6.29,-3.42,944.85,21.4,
6732926,0.03,-0.06,0.84,3.42,5.74,-3.72,944.87,21.41,
6732964,0.03,-0.07,0.81,3.54,6.84,-3.91,944.8,21.42,
6733003,0.03,-0.07,0.82,3.6,8.06,-4.03,944.74,21.42,
6733079,0.04,-0.06,0.77,2.99,11.54,-4.33,944.61,21.39,
6733117,0.03,-0.09,0.72,2.62,14.65,-4.64,944.57,21.39,
6733155,0.05,-0.08,0.76,2.01,16.05,-5.0,944.55,21.4,
6733245,0.03,-0.07,0.78,0.85,17.4,-5.19,944.59,21.38,
6733283,0.04,-0.08,0.79,1.22,17.52,-5.25,944.57,21.38,
6733322,0.05,-0.08,0.76,0.24,17.58,-5.68,944.51,21.39,
6733360,0.04,-0.06,0.86,0.43,16.17,-5.55,944.55,21.38,
6733398,0.06,-0.07,0.82,-0.49,16.05,-5.55,944.52,21.4,
6733436,0.03,-0.06,0.91,0.31,15.08,-5.86,944.6,21.39,
6733475,0.03,-0.08,0.83,-0.12,15.01,-5.68,944.62,21.4,
6733525,0.04,-0.06,0.94,0.73,12.33,-6.04,944.56,21.39,
6733563,0.05,-0.07,0.9,0.43,11.84,-6.23,944.55,21.4,
6733601,0.05,-0.06,0.84,0.24,9.83,-6.35,944.59,21.39,
6733639,0.05,-0.07,0.86,0.37,8.18,-6.29,944.6,21.4,
6733678,0.06,-0.07,0.85,-0.43,6.84,-6.9,944.49,21.39,
6733716,0.05,-0.07,0.88,-0.37,6.29,-7.14,944.5,21.4,
6733754,0.05,-0.08,0.88,-0.73,6.47,-7.45,944.5,21.4,
6733792,0.05,-0.08,0.87,-1.1,5.37,-8.0,944.47,21.4,
6733831,0.03,-0.06,0.94,-0.92,4.88,-8.24,944.51,21.42,
6733881,0.06,-0.08,0.86,-1.89,6.71,-8.79,944.49,21.39,
6733919,0.04,-0.05,0.97,-1.83,6.77,-9.28,944.5,21.39,
6733957,0.04,-0.06,0.9,-2.5,9.28,-9.34,944.48,21.4,
6733995,0.03,-0.05,0.99,-2.01,9.16,-9.64,944.46,21.41,
6734034,0.04,-0.06,1.03,-2.38,10.74,-9.83,944.44,21.41,
6734072,0.03,-0.05,1.05,-2.75,11.84,-10.13,944.39,21.4,
6734110,0.03,-0.04,1.08,-2.5,13.06,-10.31,944.38,21.41,
6734149,0.04,-0.06,1.07,-2.99,14.4,-10.38,944.4,21.41,
6734187,0.06,-0.06,1.12,-3.3,14.4,-10.68,944.34,21.41,
6734225,0.02,-0.02,1.16,-3.91,15.08,-10.62,944.34,21.4,
6734275,0.04,-0.01,1.24,-4.7,15.26,-10.56,944.42,21.41,
6734313,0.04,-0.0,1.3,-5.31,15.01,-10.62,944.35,21.4,
6734352,0.03,0.0,1.35,-5.74,13.98,-10.38,944.38,21.42,
6734390,0.02,-0.01,1.36,-6.35,14.95,-10.31,944.3,21.41,
6734428,0.02,0.0,1.33,-6.65,14.53,-10.44,944.27,21.41,
6734466,0.02,0.0,1.41,-6.65,14.22,-10.25,944.28,21.42,
6734505,0.02,-0.01,1.33,-7.51,15.5,-10.01,944.25,21.41,
6734543,0.02,0.02,1.43,-7.51,14.59,-10.13,944.27,21.42,
6734581,0.02,-0.0,1.42,-8.0,15.14,-10.07,944.22,21.43,
6734631,0.02,0.01,1.43,-8.24,13.55,-9.64,944.3,21.41,
6734669,0.03,0.01,1.43,-8.54,14.22,-9.64,944.22,21.42,
6734708,0.02,-0.01,1.4,-8.42,12.63,-9.64,944.29,21.42,
6734746,0.02,-0.0,1.43,-8.18,12.27,-9.52,944.25,21.42,
6734784,0.03,0.0,1.4,-7.93,11.41,-9.4,944.22,21.41,
6734822,0.03,0.01,1.45,-7.93,10.31,-9.4,944.18,21.42,
6734861,0.0,0.01,1.45,-7.57,8.3,-9.28,944.15,21.42,
6734899,0.01,0.01,1.48,-7.51,7.14,-9.03,944.09,21.41,
6734937,0.02,-0.0,1.49,-7.57,6.23,-8.91,944.06,21.42,
6734987,0.0,0.03,1.56,-7.2,4.15,-8.97,944.05,21.42,
6735025,0.0,0.0,1.57,-6.96,4.7,-8.91,943.98,21.42,
6735063,0.01,0.03,1.6,-6.96,3.78,-9.09,943.98,21.42,
6735102,-0.02,0.04,1.64,-6.77,3.78,-8.79,943.97,21.42,
6735140,-0.03,0.03,1.6,-6.9,5.07,-8.73,943.97,21.42,
6735178,-0.03,0.04,1.61,-6.96,5.86,-9.09,943.96,21.43,
6735216,-0.03,0.03,1.61,-6.96,7.87,-9.09,943.98,21.42,
6735255,-0.02,0.02,1.54,-6.77,8.73,-9.22,944.03,21.43,
6735293,-0.01,0.02,1.53,-6.77,10.74,-9.34,944.04,21.42,
6735331,-0.0,0.01,1.42,-6.23,12.63,-9.7,944.07,21.43,
6735381,-0.03,-0.0,1.35,-6.04,14.16,-9.77,944.01,21.41,
6735419,-0.03,-0.0,1.29,-5.92,14.65,-9.83,944.03,21.44,
6735458,-0.0,0.0,1.33,-5.37,14.77,-10.13,943.97,21.41,
6735496,0.0,-0.01,1.3,-5.62,15.2,-10.25,943.93,21.42,
6735534,-0.04,-0.0,1.29,-5.74,14.47,-10.13,943.93,21.43,
6735572,-0.02,-0.01,1.27,-6.16,14.89,-10.13,943.92,21.43,
6735611,-0.03,-0.0,1.26,-6.04,12.76,-9.7,943.88,21.44,
6735649,-0.02,-0.0,1.19,-6.47,11.17,-9.58,943.86,21.43,
6735687,-0.07,-0.01,1.15,-6.9,10.8,-9.58,943.76,21.43,
6735737,-0.01,0.02,1.27,-6.53,9.95,-9.58,943.81,21.42,
6735776,-0.03,0.01,1.26,-6.96,7.57,-9.52,943.77,21.43,
6735814,-0.06,-0.01,1.36,-6.47,7.93,-9.28,943.73,21.43,
6735852,-0.04,-0.01,1.29,-7.02,8.54,-9.28,943.71,21.41,
6735890,-0.06,0.03,1.37,-6.59,6.9,-9.22,943.69,21.43,
6735929,-0.04,0.02,1.28,-7.2,6.65,-9.09,943.69,21.42,
6735967,-0.05,0.02,1.35,-6.71,5.55,-8.97,943.68,21.44,
6736005,-0.03,-0.01,1.23,-7.75,5.0,-8.67,943.67,21.43,
6736044,-0.06,0.02,1.34,-6.53,2.69,-8.18,943.68,21.44,
6736119,-0.04,0.02,1.29,-6.71,1.83,-8.24,943.63,21.4,
6736158,-0.04,0.01,1.38,-6.96,1.46,-8.06,943.61,21.42,
6736196,-0.04,0.0,1.36,-7.14,0.85,-7.75,943.61,21.41,
6736286,-0.05,0.04,1.44,-7.87,1.1,-7.69,943.52,21.38,
6736324,-0.04,0.0,1.47,-8.06,1.16,-7.81,943.53,21.39,
6736362,-0.05,-0.01,1.41,-8.3,1.22,-7.93,943.53,21.4,
6736401,-0.09,0.02,1.42,-8.3,0.85,-7.63,943.57,21.4,
6736439,-0.04,0.02,1.36,-8.67,0.98,-7.63,943.57,21.41,
6736477,-0.04,0.01,1.35,-8.79,0.0,-7.63,943.57,21.41,
6736515,-0.05,-0.02,1.29,-8.97,-0.49,-6.96,943.58,21.42,
6736565,-0.05,-0.01,1.28,-8.61,-0.85,-7.2,943.54,21.4,
6736604,-0.04,-0.01,1.26,-9.16,0.0,-7.08,943.59,21.41,
6736642,-0.04,-0.0,1.25,-9.16,-1.4,-6.84,943.65,21.42,
6736680,-0.08,-0.04,1.28,-9.09,-0.43,-6.9,943.56,21.41,
6736718,-0.03,-0.04,1.24,-9.4,1.04,-7.02,943.54,21.42,
6736757,-0.03,-0.01,1.31,-9.22,0.79,-7.08,943.6,21.41,
6736795,-0.02,-0.02,1.24,-9.52,1.59,-7.2,943.63,21.41,
6736833,-0.02,-0.01,1.25,-9.34,2.14,-7.32,943.6,21.41,
6736871,-0.01,-0.02,1.26,-9.46,3.72,-7.57,943.57,21.42,
6736921,-0.02,-0.02,1.25,-9.28,3.42,-7.57,943.6,21.41,
6736960,-0.02,-0.01,1.26,-9.34,3.97,-7.75,943.6,21.41,
6736998,-0.01,-0.01,1.26,-9.4,4.82,-7.93,943.58,21.42,
6737036,-0.0,-0.0,1.29,-9.64,4.58,-8.06,943.56,21.42,
6737074,-0.01,-0.01,1.31,-9.83,4.52,-8.24,943.59,21.42,
6737113,-0.02,-0.0,1.34,-9.95,5.31,-8.36,943.58,21.43,
6737151,-0.01,0.0,1.4,-10.01,5.62,-8.67,943.52,21.43,
6737189,-0.01,0.0,1.4,-10.13,5.25,-8.73,943.51,21.42,
6737227,-0.01,0.01,1.4,-10.25,5.13,-8.79,943.48,21.42,
6737277,-0.0,0.01,1.39,-10.5,4.82,-9.09,943.46,21.41,
6737316,-0.0,0.01,1.38,-10.86,4.64,-9.16,943.45,21.42,
6737354,-0.02,0.02,1.39,-10.56,3.97,-9.16,943.47,21.42,
6737392,-0.01,0.02,1.39,-10.8,4.39,-9.22,943.37,21.43,
6737430,-0.02,0.01,1.39,-10.93,3.42,-9.28,943.38,21.42,
6737469,-0.03,0.0,1.38,-10.93,3.23,-9.28,943.39,21.43,
6737507,-0.04,0.01,1.37,-11.05,2.69,-8.97,943.4,21.42,
6737545,-0.03,0.03,1.39,-11.23,2.26,-9.09,943.4,21.42,
6737584,-0.05,0.03,1.39,-11.17,1.95,-8.73,943.31,21.42,
6737622,-0.05,0.02,1.4,-11.11,1.71,-8.79,943.33,21.42,
6737672,-0.05,0.02,1.42,-10.93,1.77,-8.61,943.32,21.41,
6737710,-0.04,0.02,1.41,-10.93,1.95,-8.48,943.29,21.43,
6737748,-0.06,0.03,1.42,-10.44,1.53,-8.06,943.29,21.42,
6737787,-0.07,0.02,1.4,-10.68,1.65,-7.69,943.22,21.42,
6737825,-0.06,0.03,1.4,-10.68,1.1,-7.45,943.27,21.43,
6737863,-0.06,0.03,1.41,-10.68,1.04,-7.39,943.27,21.43,
6737902,-0.06,0.01,1.41,-10.68,0.79,-6.96,943.21,21.44,
6737940,-0.05,0.02,1.42,-10.62,0.79,-6.9,943.22,21.43,
6737978,-0.05,0.03,1.44,-10.44,0.67,-6.59,943.24,21.44,
6738028,-0.04,0.03,1.44,-10.07,0.31,-6.29,943.29,21.41,
6738066,-0.03,0.03,1.45,-10.07,-0.73,-6.41,943.28,21.42,
6738105,-0.03,0.03,1.45,-10.07,-0.98,-6.29,943.25,21.41,
6738143,-0.02,0.03,1.42,-9.95,-1.28,-6.23,943.3,21.42,
6738181,-0.02,0.03,1.45,-9.58,-1.59,-6.41,943.29,21.43,
6738220,-0.02,0.03,1.41,-10.01,-1.71,-6.23,943.35,21.44,
6738258,-0.02,0.03,1.42,-9.95,-2.01,-6.53,943.3,21.43,
6738296,-0.02,0.02,1.43,-9.95,-2.08,-6.47,943.33,21.43,
6738334,-0.01,0.03,1.42,-9.83,-2.62,-6.65,943.24,21.42,
6738384,-0.01,0.03,1.44,-9.89,-2.08,-6.77,943.35,21.41,
6738422,-0.0,0.02,1.41,-10.07,-2.44,-7.08,943.34,21.44,
6738461,-0.02,0.03,1.44,-10.01,-2.38,-7.39,943.32,21.42,
6738499,-0.02,0.02,1.36,-10.25,-2.01,-7.51,943.36,21.42,
6738537,-0.01,0.03,1.42,-10.56,-2.01,-7.87,943.36,21.43,
6738576,0.0,0.03,1.42,-10.8,-1.83,-8.0,943.33,21.44,
6738614,-0.0,0.03,1.46,-11.05,-2.08,-8.3,943.32,21.42,
6738652,-0.0,0.03,1.43,-11.29,-1.53,-8.36,943.27,21.42,
6738690,-0.01,0.04,1.46,-11.23,-1.34,-8.48,943.29,21.42,
6738740,0.0,0.04,1.47,-11.47,-0.73,-8.61,943.33,21.42,
6738779,-0.01,0.04,1.49,-11.54,-1.04,-8.91,943.35,21.43,
6738817,-0.0,0.04,1.48,-11.23,0.12,-9.16,943.36,21.43,
6738855,0.01,0.05,1.5,-10.68,0.24,-9.4,943.41,21.43,
6738893,0.01,0.04,1.49,-10.56,0.98,-9.58,943.39,21.44,
6738932,0.0,0.03,1.45,-10.07,1.16,-9.77,943.42,21.44,
6738970,-0.01,0.03,1.44,-9.64,2.2,-9.89,943.3,21.43,
6739008,0.0,0.03,1.4,-9.64,2.69,-10.31,943.37,21.43,
6739046,-0.01,0.02,1.4,-8.97,2.87,-10.25,943.43,21.44,
6739085,-0.01,0.01,1.34,-8.97,3.17,-10.31,943.41,21.43,
6739161,-0.01,0.03,1.36,-8.91,4.27,-10.19,943.34,21.41,
6739199,-0.01,0.02,1.36,-8.85,4.82,-10.07,943.42,21.42,
6739237,-0.02,0.02,1.39,-8.79,5.55,-10.07,943.36,21.43,
6739327,-0.01,0.03,1.35,-8.61,6.71,-9.83,943.34,21.39,
6739365,0.0,0.04,1.34,-8.61,6.77,-9.77,943.31,21.4,
6739404,-0.01,0.02,1.32,-8.61,7.08,-9.52,943.33,21.41,
6739442,-0.01,0.02,1.31,-8.42,7.45,-9.58,943.32,21.42,
6739480,-0.01,0.03,1.32,-8.3,7.26,-9.16,943.29,21.42,
6739518,-0.01,0.02,1.3,-8.79,7.14,-9.09,943.27,21.41,
6739568,-0.0,0.03,1.35,-8.97,6.77,-8.97,943.21,21.39,
6739607,-0.0,0.01,1.32,-9.28,6.9,-8.97,943.3,21.42,
6739645,0.0,0.03,1.36,-9.4,6.35,-9.03,943.26,21.41,
6739683,0.0,0.03,1.35,-9.4,6.59,-8.85,943.25,21.41,
6739721,-0.0,0.03,1.36,-9.03,5.31,-8.73,943.28,21.42,
6739760,0.0,0.03,1.38,-9.28,4.94,-8.73,943.27,21.42,
6739798,0.0,0.03,1.38,-9.09,4.46,-8.79,943.22,21.41,
6739836,0.01,0.04,1.39,-9.34,4.33,-8.79,943.26,21.42,
6739875,0.02,0.04,1.4,-9.28,3.78,-8.61,943.22,21.42,
6739913,0.02,0.04,1.39,-9.28,2.87,-8.67,943.2,21.42,
6739963,0.0,0.04,1.39,-9.52,2.75,-8.85,943.24,21.42,
6740001,0.01,0.03,1.34,-9.58,2.87,-9.03,943.21,21.42,
6740039,0.02,0.03,1.32,-9.64,2.08,-9.09,943.21,21.43,
6740078,0.0,0.02,1.29,-9.28,2.14,-9.34,943.19,21.43,
6740116,0.0,0.01,1.25,-9.46,2.87,-9.4,943.16,21.42,
6740154,0.03,0.02,1.33,-9.22,2.32,-9.64,943.09,21.43,
6740192,0.01,0.02,1.3,-9.28,2.5,-9.95,943.15,21.42,
6740231,-0.0,0.02,1.33,-9.09,2.5,-10.01,943.12,21.43,
6740269,0.01,0.02,1.35,-9.4,3.72,-10.38,943.11,21.42,
6740319,0.01,0.04,1.41,-9.16,3.6,-10.68,943.09,21.42,
6740357,0.01,0.04,1.38,-9.34,3.78,-10.93,943.08,21.43,
6740396,0.01,0.05,1.44,-9.34,3.11,-11.23,943.13,21.42,
6740434,0.01,0.06,1.42,-9.58,3.42,-10.93,943.05,21.41,
6740472,0.02,0.08,1.43,-9.64,1.65,-10.74,943.05,21.43,
6740510,0.01,0.07,1.46,-9.7,1.71,-10.93,943.07,21.44,
6740549,0.01,0.05,1.42,-9.77,1.46,-10.8,943.04,21.42,
6740587,-0.01,0.05,1.46,-9.89,0.31,-10.56,943.07,21.43,
6740625,-0.01,0.05,1.45,-9.83,0.06,-10.62,943.09,21.44,
6740664,0.0,0.05,1.39,-10.01,0.24,-10.8,943.11,21.44,
6740714,0.0,0.05,1.41,-9.83,0.49,-10.93,943.13,21.42,
6740752,-0.0,0.03,1.36,-9.64,0.43,-11.11,943.07,21.42,
6740790,-0.01,0.04,1.4,-9.28,0.85,-11.29,943.08,21.43,
6740829,-0.0,0.04,1.38,-9.28,0.85,-11.6,943.0,21.43,
6740867,-0.0,0.04,1.39,-9.46,0.43,-11.35,943.06,21.43,
6740905,-0.01,0.02,1.34,-9.64,0.92,-11.72,943.12,21.43,
6740943,-0.02,0.03,1.32,-9.89,0.92,-11.78,943.12,21.44,
6740982,-0.0,0.04,1.36,-9.64,0.61,-11.78,943.03,21.43,
6741020,-0.02,0.03,1.32,-9.77,0.79,-11.84,943.06,21.43,
6741070,-0.02,0.04,1.37,-9.7,0.67,-11.9,943.03,21.43,
6741108,-0.02,0.03,1.33,-9.7,1.16,-11.84,943.02,21.43,
6741147,-0.02,0.03,1.35,-9.83,0.73,-11.84,943.06,21.43,
6741185,-0.02,0.03,1.31,-9.83,1.4,-11.96,943.07,21.44,
6741223,-0.02,0.03,1.29,-9.7,0.55,-11.78,943.06,21.44,
6741261,-0.02,0.02,1.28,-9.83,0.61,-11.66,943.03,21.44,
6741299,-0.01,0.03,1.31,-9.77,0.24,-11.84,943.07,21.44,
6741338,-0.02,0.04,1.3,-9.7,0.61,-11.72,943.02,21.43,
6741376,-0.03,0.03,1.31,-9.77,0.24,-11.47,943.08,21.44,
6741426,-0.03,0.03,1.36,-9.46,0.43,-11.6,943.02,21.42,
6741464,-0.02,0.03,1.36,-9.58,0.31,-11.47,943.07,21.43,
6741503,-0.03,0.04,1.36,-9.64,0.18,-11.35,943.03,21.43,
6741541,-0.02,0.04,1.34,-9.77,0.43,-11.11,943.05,21.44,
6741579,-0.02,0.04,1.34,-9.52,0.43,-11.11,943.07,21.43,
6741617,-0.02,0.01,1.29,-9.46,1.16,-10.99,943.07,21.43,
6741656,-0.03,0.01,1.29,-8.91,1.22,-11.17,943.06,21.44,
6741694,-0.02,0.01,1.31,-8.91,1.71,-11.23,943.08,21.43,
6741732,-0.03,0.03,1.29,-8.91,1.28,-11.23,943.15,21.43,
6741770,-0.03,0.03,1.34,-9.03,1.71,-11.11,943.06,21.43,
6741820,-0.02,0.01,1.34,-9.09,2.38,-11.11,943.09,21.42,
6741859,-0.02,0.02,1.35,-9.09,2.56,-11.23,943.09,21.42,
6741897,-0.02,0.04,1.36,-8.97,2.87,-11.11,943.09,21.43,
6741935,-0.02,0.03,1.36,-9.34,3.17,-11.11,943.13,21.43,
6741973,-0.03,0.03,1.37,-9.28,3.66,-11.05,943.1,21.42,
6742012,-0.04,0.03,1.37,-8.97,4.27,-10.86,943.1,21.42,
6742050,-0.02,0.04,1.36,-8.85,4.39,-10.8,943.15,21.43,
6742088,-0.02,0.04,1.37,-8.85,4.64,-10.86,943.13,21.42,
6742126,-0.02,0.03,1.36,-8.79,5.07,-10.62,943.11,21.43,
6742204,-0.03,0.03,1.36,-8.85,5.49,-10.56,943.05,21.39,
6742242,-0.02,0.04,1.35,-8.73,5.19,-10.44,943.13,21.4,
6742280,-0.03,0.03,1.34,-8.91,5.49,-10.19,943.12,21.42,
6742371,-0.02,0.03,1.33,-9.03,4.94,-9.95,943.12,21.38,
6742409,-0.02,0.04,1.34,-9.16,4.7,-9.83,943.11,21.4,
6742447,-0.03,0.02,1.34,-9.4,4.64,-9.77,943.17,21.39,
6742485,-0.02,0.02,1.36,-9.4,4.27,-9.7,943.14,21.4,
6742524,-0.02,0.02,1.34,-9.46,4.03,-9.52,943.09,21.4,
6742562,-0.02,0.03,1.33,-9.7,3.42,-9.34,943.11,21.41,
6742600,-0.03,0.03,1.33,-9.4,2.56,-9.09,943.07,21.41,
6742650,-0.02,0.02,1.33,-9.64,2.44,-9.09,943.12,21.39,
6742688,-0.02,0.03,1.33,-9.64,1.77,-9.09,943.12,21.4,
6742727,-0.02,0.03,1.35,-9.64,1.59,-8.97,943.1,21.41,
6742765,-0.01,0.03,1.35,-9.64,1.4,-8.85,943.06,21.41,
6742803,-0.02,0.03,1.36,-9.95,1.22,-8.85,943.1,21.41,
6742841,-0.02,0.04,1.38,-9.95,1.04,-8.85,943.11,21.42,
6742880,-0.01,0.04,1.37,-9.95,0.73,-8.85,943.13,21.4,
6742918,-0.02,0.04,1.39,-9.77,0.79,-8.67,943.13,21.41,
6742956,-0.02,0.03,1.38,-9.7,0.85,-8.67,943.1,21.41,
6743006,-0.01,0.03,1.38,-9.4,0.98,-8.79,943.11,21.4,
6743044,-0.01,0.03,1.37,-9.22,0.85,-8.97,943.14,21.39,
6743083,-0.01,0.04,1.37,-9.34,0.92,-8.85,943.11,21.41,
6743121,-0.01,0.03,1.34,-9.16,0.85,-8.85,943.19,21.42,
6743159,-0.01,0.02,1.34,-9.4,1.46,-9.09,943.16,21.42,
6743197,-0.01,0.03,1.34,-9.22,1.4,-9.09,943.11,21.41,
6743236,-0.01,0.03,1.32,-9.22,1.65,-9.22,943.15,21.42,
6743274,-0.01,0.02,1.33,-9.22,1.71,-9.46,943.18,21.42,
6743312,-0.01,0.02,1.34,-9.16,1.65,-9.28,943.19,21.41,
6743362,-0.01,0.03,1.35,-9.22,1.59,-9.4,943.11,21.4,
6743400,-0.01,0.03,1.36,-9.22,1.65,-9.52,943.17,21.42,
6743439,-0.0,0.03,1.37,-9.28,1.83,-9.7,943.2,21.41,
6743477,-0.0,0.02,1.37,-9.34,1.59,-9.52,943.14,21.42,
6743515,-0.01,0.03,1.37,-9.34,1.65,-9.58,943.13,21.42,
6743553,-0.01,0.03,1.35,-9.52,2.26,-9.7,943.21,21.42,
6743592,-0.01,0.04,1.38,-9.34,1.95,-9.58,943.18,21.42,
6743630,-0.0,0.03,1.36,-9.34,2.08,-9.7,943.21,21.42,
6743668,-0.01,0.03,1.36,-9.34,1.83,-9.64,943.21,21.42,
6743706,-0.01,0.02,1.36,-9.28,2.26,-9.52,943.21,21.41,
6743756,-0.01,0.04,1.36,-9.16,1.83,-9.64,943.19,21.41,
6743795,-0.01,0.03,1.36,-9.28,1.95,-9.7,943.21,21.43,
6743833,-0.01,0.03,1.34,-9.34,1.77,-9.64,943.2,21.4,
6743871,-0.01,0.03,1.37,-9.34,1.46,-9.7,943.2,21.43,
6743909,-0.01,0.03,1.36,-9.28,1.95,-9.77,943.24,21.42,
6743948,-0.02,0.04,1.39,-9.34,2.08,-9.83,943.21,21.42,
6743986,-0.01,0.04,1.41,-8.91,2.5,-9.89,943.22,21.43,
6744024,-0.01,0.03,1.42,-9.09,3.11,-9.89,943.27,21.43,
6744062,-0.02,0.05,1.42,-8.85,3.54,-10.01,943.27,21.41,
6744112,-0.01,0.06,1.43,-8.79,4.82,-10.13,943.28,21.41,
6744151,-0.02,0.04,1.4,-9.22,5.43,-10.31,943.26,21.41,
6744189,-0.0,0.04,1.42,-9.22,5.07,-10.5,943.24,21.42,
6744227,-0.02,0.04,1.4,-9.34,5.07,-10.38,943.23,21.41,
6744265,-0.02,0.06,1.39,-9.4,4.82,-10.13,943.27,21.41,
6744304,-0.01,0.06,1.42,-9.28,4.39,-10.13,943.28,21.43,
6744342,-0.01,0.04,1.4,-9.16,4.27,-10.01,943.28,21.41,
6744380,-0.01,0.05,1.43,-8.97,3.54,-9.83,943.31,21.43,
6744418,-0.02,0.05,1.42,-8.85,3.3,-9.89,943.31,21.41,
6744457,-0.02,0.06,1.42,-8.91,3.05,-9.7,943.31,21.41,
6744507,-0.01,0.05,1.42,-8.61,2.62,-9.58,943.37,21.41,
6744545,-0.02,0.05,1.42,-8.79,2.08,-9.34,943.32,21.42,
6744583,-0.02,0.05,1.42,-8.73,2.08,-9.4,943.3,21.4,
6744621,-0.01,0.06,1.41,-8.73,2.14,-9.34,943.34,21.42,
6744660,-0.03,0.06,1.42,-8.67,1.34,-9.09,943.39,21.42,
6744698,-0.03,0.05,1.41,-8.36,1.95,-8.97,943.37,21.42,
6744736,-0.0,0.05,1.44,-8.42,2.44,-9.16,943.35,21.42,
6744774,-0.01,0.05,1.42,-8.24,2.01,-9.4,943.36,21.42,
6744813,-0.02,0.06,1.42,-8.3,1.77,-9.09,943.37,21.41,
6744863,-0.01,0.03,1.41,-8.18,1.77,-8.97,943.42,21.42,
6744901,-0.01,0.03,1.4,-8.12,1.04,-9.03,943.36,21.42,
6744939,-0.01,0.03,1.4,-7.81,1.22,-8.85,943.36,21.41,
6744977,-0.01,0.04,1.36,-7.75,1.22,-8.91,943.37,21.42,
6745016,-0.0,0.03,1.37,-7.63,1.71,-8.97,943.42,21.43,
6745054,-0.01,0.03,1.38,-7.57,1.46,-9.09,943.39,21.43,
6745092,-0.01,0.02,1.38,-7.45,1.22,-9.09,943.42,21.42,
6745130,-0.0,0.02,1.36,-7.63,1.34,-9.28,943.41,21.42,
6745169,-0.01,0.03,1.39,-7.93,1.22,-9.28,943.45,21.42,
6745207,-0.0,0.02,1.36,-8.0,1.46,-9.28,943.46,21.43,
6745283,-0.01,0.02,1.35,-8.06,1.53,-9.4,943.41,21.4,
6745321,-0.01,0.02,1.33,-7.81,1.28,-9.46,943.47,21.4,
6745359,0.0,0.01,1.35,-7.93,1.46,-9.58,943.4,21.41,
6745449,-0.01,0.02,1.38,-8.18,1.34,-9.52,943.44,21.38,
6745488,-0.0,0.02,1.39,-8.3,1.22,-9.7,943.47,21.39,
6745526,-0.01,0.04,1.41,-8.48,1.22,-9.7,943.43,21.38,
6745564,-0.01,0.03,1.41,-8.36,1.46,-9.7,943.48,21.41,
6745602,-0.01,0.02,1.42,-8.3,1.65,-9.89,943.52,21.4,
6745641,-0.02,0.03,1.4,-8.3,1.95,-10.01,943.51,21.4,
6745691,-0.01,0.03,1.36,-8.18,2.2,-9.83,943.5,21.39,
6745729,-0.0,0.02,1.35,-8.06,2.2,-9.95,943.52,21.41,
6745767,-0.01,0.02,1.31,-8.12,2.14,-9.95,943.52,21.4,
6745805,-0.0,0.02,1.33,-7.93,1.65,-9.89,943.46,21.41,
6745844,0.0,0.03,1.33,-8.12,1.4,-10.01,943.53,21.41,
6745882,-0.01,0.03,1.36,-7.93,0.85,-9.83,943.54,21.42,
6745920,-0.0,0.03,1.38,-8.24,0.61,-9.77,943.58,21.42,
6745958,-0.0,0.03,1.4,-8.12,0.0,-9.83,943.53,21.42,
6745997,-0.01,0.03,1.42,-8.36,0.06,-9.7,943.56,21.41,
6746035,0.0,0.04,1.43,-8.3,0.06,-9.89,943.58,21.41,
6746085,-0.01,0.03,1.45,-8.18,0.73,-9.89,943.53,21.4,
6746123,0.01,0.02,1.4,-8.12,0.79,-10.07,943.58,21.41,
6746161,-0.01,0.03,1.42,-7.87,0.98,-10.25,943.67,21.42,
6746200,-0.01,0.02,1.38,-7.63,1.59,-10.31,943.63,21.41,
6746238,-0.0,0.02,1.39,-7.69,1.53,-10.5,943.63,21.42,
6746276,-0.01,0.02,1.38,-7.63,1.22,-10.31,943.68,21.42,
6746315,-0.02,0.01,1.36,-7.45,1.4,-10.44,943.68,21.41,
6746353,-0.01,0.01,1.35,-7.39,1.59,-10.5,943.6,21.41,
6746391,0.0,0.02,1.37,-7.14,1.22,-10.31,943.64,21.41,
6746441,-0.01,-0.01,1.33,-7.14,1.59,-10.31,943.7,21.41,
6746479,-0.01,0.0,1.34,-7.14,1.1,-10.38,943.71,21.41,
6746517,0.0,0.02,1.39,-7.26,0.67,-10.01,943.67,21.41,
6746556,0.01,0.02,1.39,-7.57,-0.55,-9.89,943.78,21.42,
6746594,-0.01,0.02,1.42,-7.45,-1.16,-9.7,943.72,21.41,
6746632,-0.01,0.01,1.43,-7.63,-0.31,-9.89,943.69,21.42,
6746670,0.01,0.01,1.49,-7.39,-1.1,-9.89,943.72,21.41,
6746709,-0.0,0.03,1.51,-7.45,-0.67,-9.89,943.76,21.41,
6746747,-0.02,0.04,1.51,-7.81,-0.55,-10.01,943.74,21.41,
6746797,0.0,0.02,1.58,-7.51,1.77,-10.25,943.69,21.4,
6746835,0.01,0.03,1.58,-7.57,1.59,-10.31,943.74,21.42,
6746873,-0.01,0.03,1.6,-7.51,2.32,-10.19,943.74,21.41,
6746912,-0.01,0.03,1.52,-7.81,3.72,-10.38,943.76,21.41,
6746950,-0.01,0.02,1.57,-7.39,3.6,-10.25,943.78,21.42,
6746988,-0.01,-0.0,1.55,-7.14,4.03,-10.07,943.76,21.41,
6747026,-0.01,0.0,1.51,-7.26,3.85,-10.31,943.81,21.42,
6747065,-0.02,0.01,1.49,-7.57,4.76,-10.19,943.71,21.4,
6747103,-0.01,0.01,1.46,-8.06,4.15,-9.89,943.82,21.42,
6747141,0.0,0.0,1.5,-8.18,4.21,-10.01,943.82,21.42,
6747191,-0.0,-0.02,1.49,-8.3,4.58,-9.7,943.8,21.41,
6747229,0.01,0.01,1.56,-8.73,4.39,-9.83,943.76,21.4,
6747268,-0.03,-0.0,1.54,-8.36,4.82,-9.34,943.82,21.41,
6747306,-0.02,-0.02,1.52,-8.54,5.25,-9.52,943.86,21.43,
6747344,-0.03,-0.01,1.56,-8.54,6.16,-9.28,943.82,21.42,
6747382,-0.03,-0.01,1.52,-8.73,6.04,-9.16,943.81,21.41,
6747421,-0.01,-0.0,1.53,-8.67,6.29,-9.28,943.8,21.42,
6747459,-0.01,0.01,1.53,-9.09,6.16,-9.09,943.75,21.42,
6747497,-0.01,0.02,1.54,-9.46,5.31,-8.73,943.78,21.42,
6747547,-0.02,0.03,1.56,-10.31,4.21,-8.48,943.73,21.41,
6747585,-0.03,0.03,1.63,-10.5,3.85,-8.24,943.75,21.41,
6747624,-0.02,0.0,1.63,-10.74,3.78,-8.12,943.69,21.41,
6747662,0.0,0.02,1.66,-11.11,3.42,-8.0,943.76,21.41,
6747700,-0.02,0.04,1.64,-11.05,3.6,-7.75,943.75,21.41,
6747739,-0.02,0.03,1.62,-10.93,3.54,-7.75,943.7,21.42,
6747777,-0.01,0.02,1.61,-10.62,3.54,-7.81,943.74,21.4,
6747815,-0.02,0.02,1.62,-10.68,3.54,-7.57,943.73,21.42,
6747854,-0.02,0.01,1.61,-10.38,3.17,-7.32,943.75,21.42,
6747904,-0.02,0.03,1.61,-10.07,2.87,-7.45,943.72,21.4,
6747942,-0.02,0.02,1.57,-9.64,1.89,-7.2,943.74,21.41,
6747980,-0.01,0.01,1.56,-9.4,0.98,-7.2,943.7,21.41,
6748018,-0.01,0.0,1.53,-8.79,0.18,-7.2,943.75,21.41,
6748057,-0.01,0.01,1.48,-8.85,-0.67,-7.14,943.7,21.41,
6748095,-0.01,0.01,1.5,-8.48,-1.46,-7.08,943.7,21.41,
6748133,-0.0,-0.01,1.42,-8.36,-1.77,-7.2,943.69,21.41,
6748171,-0.02,0.0,1.46,-8.12,-3.48,-7.02,943.71,21.43,
6748210,-0.01,-0.0,1.43,-8.3,-3.17,-6.9,943.72,21.42,
6748248,-0.02,-0.01,1.4,-8.0,-3.42,-6.96,943.7,21.42,
6748324,0.01,-0.02,1.43,-7.51,-3.05,-7.39,943.69,21.4,
6748362,-0.0,-0.02,1.43,-7.2,-3.36,-7.51,943.75,21.4,
6748400,-0.02,-0.01,1.42,-7.14,-3.72,-7.63,943.68,21.4,
6748490,-0.03,-0.01,1.38,-6.65,-2.5,-7.93,943.67,21.37,
6748529,-0.0,-0.03,1.4,-6.35,-2.14,-8.06,943.66,21.39,
6748567,-0.02,-0.03,1.41,-6.41,-1.65,-8.3,943.68,21.38,
6748605,-0.01,-0.01,1.49,-6.16,-0.61,-8.42,943.61,21.4,
6748644,-0.01,0.01,1.51,-6.35,0.98,-8.67,943.65,21.39,
6748682,-0.03,0.03,1.58,-6.53,1.65,-8.85,943.65,21.4,
6748732,-0.02,-0.01,1.65,-6.9,2.69,-8.97,943.62,21.39,
6748770,-0.03,-0.02,1.65,-6.77,4.58,-9.03,943.59,21.39,
6748808,-0.03,0.0,1.6,-6.71,4.88,-8.91,943.64,21.4,
6748846,-0.0,0.01,1.58,-6.29,5.31,-8.85,943.61,21.41,
6748885,-0.03,0.01,1.44,-5.92,5.74,-8.54,943.62,21.41,
6748923,-0.04,-0.01,1.44,-5.98,6.35,-8.3,943.58,21.41,
6748961,-0.03,-0.03,1.41,-6.04,5.37,-8.12,943.6,21.41,
6749000,-0.02,-0.02,1.44,-5.98,4.82,-8.24,943.64,21.41,
6749038,-0.01,-0.02,1.39,-6.16,4.46,-8.06,943.65,21.41,
6749088,0.0,-0.03,1.35,-6.41,4.21,-7.81,943.63,21.4,
6749126,-0.01,-0.04,1.29,-6.53,2.62,-7.57,943.57,21.41,
6749164,-0.02,-0.05,1.22,-6.84,1.95,-7.51,943.64,21.42,
6749203,-0.03,-0.04,1.14,-6.9,1.77,-7.63,943.57,21.42,
6749241,-0.01,-0.04,1.15,-6.84,1.34,-7.63,943.59,21.43,
6749279,0.0,-0.04,1.17,-6.9,1.1,-7.63,943.6,21.42,
6749318,-0.01,-0.04,1.19,-6.84,1.34,-7.69,943.59,21.42,
6749356,-0.02,-0.05,1.25,-6.84,1.71,-7.57,943.52,21.43,
6749394,-0.01,-0.04,1.27,-7.2,2.62,-7.87,943.5,21.42,
6749433,-0.01,-0.02,1.35,-7.51,2.5,-7.87,943.47,21.43,
6749483,-0.02,-0.03,1.34,-7.75,2.2,-7.87,943.53,21.42,
6749521,-0.01,-0.02,1.38,-8.06,2.38,-8.12,943.47,21.41,
6749559,0.0,-0.03,1.42,-7.87,2.69,-8.0,943.48,21.42,
6749597,-0.01,-0.03,1.41,-7.75,2.26,-7.75,943.45,21.42,
6749635,-0.04,-0.02,1.41,-7.57,2.62,-7.81,943.47,21.41,
6749674,-0.03,-0.02,1.41,-7.45,3.3,-7.87,943.41,21.42,
6749712,-0.02,-0.02,1.44,-7.2,3.23,-8.0,943.4,21.44,
6749750,-0.02,-0.04,1.42,-7.51,3.54,-7.75,943.41,21.42,
6749789,-0.02,-0.02,1.48,-7.63,4.27,-8.0,943.42,21.43,
6749839,-0.02,-0.03,1.46,-7.45,4.21,-7.75,943.43,21.42,
6749877,-0.03,-0.02,1.48,-7.69,4.03,-7.69,943.38,21.41,
6749915,-0.03,-0.03,1.46,-7.87,4.7,-7.69,943.39,21.41,
6749953,-0.01,-0.03,1.4,-7.87,4.64,-7.81,943.38,21.43,
6749992,-0.03,-0.02,1.33,-7.87,2.75,-7.57,943.3,21.42,
6750030,-0.03,-0.03,1.36,-7.75,2.75,-7.57,943.32,21.42,
6750068,-0.0,-0.04,1.3,-8.54,2.75,-7.51,943.3,21.43,
6750106,-0.03,-0.02,1.32,-8.12,0.43,-7.26,943.24,21.43,
6750145,-0.03,-0.03,1.29,-7.87,0.06,-7.14,943.24,21.44,
6750195,-0.01,-0.04,1.32,-7.63,-1.46,-7.2,943.23,21.42,
6750233,-0.02,-0.03,1.33,-7.75,-1.89,-6.96,943.24,21.42,
6750271,-0.05,-0.05,1.29,-7.32,-2.81,-6.65,943.19,21.42,
6750309,-0.03,-0.04,1.25,-7.32,-1.34,-6.96,943.24,21.43,
6750348,-0.01,-0.03,1.26,-7.08,-1.65,-7.08,943.16,21.42,
6750386,-0.02,-0.05,1.27,-6.96,-0.67,-7.26,943.2,21.43,
6750424,-0.02,-0.06,1.19,-7.2,-0.24,-7.45,943.22,21.42,
6750463,-0.0,-0.05,1.24,-6.77,-0.49,-7.57,943.2,21.43,
6750501,-0.02,-0.05,1.15,-7.02,-0.06,-7.57,943.21,21.43,
6750539,-0.02,-0.03,1.18,-6.9,-0.67,-7.45,943.19,21.44,
6750589,-0.01,-0.05,1.15,-6.9,-0.12,-8.0,943.17,21.41,
6750627,-0.01,-0.04,1.18,-6.71,-1.89,-7.69,943.16,21.43,
6750666,-0.01,-0.04,1.16,-6.71,-0.24,-7.75,943.15,21.43,
6750704,-0.01,-0.02,1.22,-6.65,-0.55,-7.87,943.19,21.43,
6750742,0.0,-0.05,1.23,-6.41,-0.18,-7.87,943.08,21.43,
6750780,-0.02,-0.04,1.25,-6.16,-1.22,-7.93,943.13,21.42,
6750819,-0.02,-0.05,1.25,-6.23,-0.67,-8.06,943.15,21.45,
6750857,-0.0,-0.02,1.26,-5.98,-0.85,-8.48,943.05,21.43,
6750895,-0.0,-0.02,1.26,-5.98,-0.92,-8.3,943.07,21.43,
6750945,0.0,-0.04,1.2,-5.43,-0.92,-8.36,943.06,21.42,
6750983,-0.03,-0.03,1.2,-5.0,-0.24,-8.42,943.05,21.42,
6751022,-0.02,-0.03,1.17,-4.58,-0.49,-8.48,943.1,21.43,
6751060,-0.01,-0.02,1.19,-4.46,0.12,-8.61,943.07,21.42,
6751098,-0.01,-0.02,1.2,-4.09,0.61,-9.03,943.1,21.44,
6751136,-0.01,-0.04,1.19,-3.97,2.38,-8.91,943.06,21.44,
6751175,-0.0,-0.05,1.16,-3.91,3.17,-9.09,942.99,21.42,
6751213,-0.0,-0.03,1.22,-3.78,2.99,-9.34,943.02,21.44,
6751251,-0.02,-0.03,1.2,-4.21,4.82,-9.28,943.01,21.44,
6751327,0.0,-0.02,1.26,-4.82,5.0,-9.46,942.95,21.41,
6751365,-0.0,-0.03,1.25,-4.58,3.72,-9.64,942.95,21.42,
6751404,-0.01,-0.02,1.26,-4.76,4.27,-9.46,942.95,21.43,
6751494,-0.04,-0.03,1.24,-3.97,3.72,-9.16,942.93,21.4,
6751532,-0.03,-0.04,1.18,-3.91,3.66,-9.4,942.85,21.41,
6751570,-0.02,-0.02,1.23,-3.85,3.48,-9.4,942.87,21.41,
6751608,-0.02,-0.03,1.24,-3.91,4.15,-9.09,942.84,21.42,
6751647,-0.02,-0.02,1.22,-4.27,4.03,-9.22,942.83,21.42,
6751685,-0.04,-0.0,1.34,-3.6,3.97,-9.28,942.76,21.42,
6751735,-0.03,-0.03,1.29,-4.27,4.88,-9.03,942.75,21.42,
6751773,-0.02,-0.01,1.38,-4.03,4.03,-9.22,942.75,21.43,
6751812,-0.04,-0.01,1.29,-4.33,5.13,-8.91,942.77,21.43,
6751850,-0.02,-0.02,1.31,-4.39,4.64,-8.67,942.82,21.44,
6751888,-0.02,-0.02,1.31,-4.33,5.25,-9.03,942.74,21.41,
6751926,-0.04,-0.03,1.25,-3.97,5.37,-8.61,942.82,21.43,
6751964,-0.03,-0.02,1.26,-3.72,4.76,-8.42,942.74,21.44,
6752003,-0.04,-0.02,1.24,-3.72,4.82,-8.48,942.74,21.43,
6752041,-0.03,-0.02,1.24,-3.6,4.88,-8.48,942.7,21.43,
6752079,-0.03,-0.03,1.24,-3.72,5.25,-8.18,942.67,21.44,
6752129,-0.03,-0.03,1.22,-3.85,5.0,-8.0,942.75,21.43,
6752167,-0.03,-0.03,1.19,-3.78,4.09,-8.12,942.71,21.43,
6752206,-0.03,-0.02,1.18,-3.48,3.11,-7.81,942.72,21.44,
6752244,-0.03,-0.03,1.16,-3.42,3.36,-7.57,942.71,21.43,
6752282,-0.02,-0.03,1.15,-3.11,2.99,-7.57,942.66,21.43,
6752321,-0.02,-0.04,1.15,-3.17,1.77,-7.57,942.71,21.44,
6752359,-0.02,-0.03,1.14,-3.48,0.92,-7.51,942.65,21.44,
6752397,-0.04,-0.03,1.14,-3.48,1.59,-7.57,942.67,21.44,
6752435,-0.03,-0.03,1.1,-3.42,1.46,-7.39,942.7,21.44,
6752485,-0.02,-0.05,1.05,-3.23,0.85,-7.26,942.63,21.43,
6752524,-0.03,-0.02,1.06,-2.99,0.12,-7.51,942.62,21.45,
6752562,-0.03,-0.02,1.06,-3.05,0.61,-7.08,942.64,21.44,
6752600,0.0,-0.03,1.08,-2.62,-0.31,-7.39,942.61,21.45,
6752638,-0.04,-0.03,1.09,-2.62,0.0,-7.2,942.62,21.45,
6752677,-0.04,-0.04,1.07,-2.56,-0.85,-6.96,942.59,21.45,
6752715,-0.05,-0.03,1.08,-2.26,-1.4,-7.08,942.56,21.44,
6752753,-0.04,-0.03,1.05,-2.08,-2.81,-6.84,942.5,21.44,
6752791,-0.04,-0.03,1.01,-2.08,-3.78,-6.65,942.47,21.44,
6752841,-0.06,-0.03,0.98,-1.46,-5.74,-6.29,942.44,21.43,
6752880,-0.06,-0.03,0.93,-1.34,-6.84,-5.92,942.41,21.45,
6752918,-0.07,-0.03,0.94,-0.92,-7.63,-5.8,942.39,21.43,
6752956,-0.07,-0.03,0.97,-0.06,-8.91,-5.25,942.36,21.43,
6752994,-0.08,-0.05,0.95,0.37,-9.64,-4.76,942.41,21.44,
6753033,-0.07,-0.03,0.97,1.04,-10.8,-4.64,942.38,21.43,
6753071,-0.06,-0.04,0.91,1.46,-10.93,-4.27,942.36,21.44,
6753109,-0.05,-0.05,0.89,1.89,-11.47,-3.97,942.4,21.44,
6753147,-0.05,-0.04,0.83,2.14,-11.72,-3.72,942.37,21.44,
6753197,-0.04,-0.05,0.78,2.32,-11.23,-3.54,942.4,21.43,
6753236,-0.06,-0.04,0.74,2.75,-11.66,-3.23,942.35,21.42,
6753274,-0.04,-0.05,0.77,2.75,-12.08,-3.3,942.39,21.42,
6753312,-0.03,-0.06,0.76,2.81,-11.9,-3.17,942.38,21.44,
6753351,-0.04,-0.05,0.76,2.75,-12.08,-2.99,942.35,21.44,
6753389,-0.04,-0.06,0.79,3.05,-12.33,-2.81,942.37,21.44,
6753427,-0.02,-0.05,0.76,2.69,-12.45,-2.75,942.31,21.44,
6753465,-0.01,-0.04,0.79,2.32,-13.12,-2.99,942.42,21.43,
6753504,-0.02,-0.05,0.8,2.62,-12.33,-2.87,942.37,21.44,
6753554,-0.02,-0.04,0.83,2.32,-12.08,-2.75,942.42,21.43,
6753592,-0.01,-0.05,0.83,2.2,-10.62,-2.99,942.5,21.44,
6753630,-0.01,-0.04,0.84,2.08,-9.58,-3.05,942.6,21.43,
6753668,-0.0,-0.04,0.85,2.62,-7.87,-3.23,942.61,21.45,
6753707,-0.01,-0.05,0.82,2.56,-6.23,-3.6,942.67,21.44,
6753745,0.0,-0.04,0.85,2.5,-5.74,-3.78,942.67,21.44,
6753783,0.01,-0.03,0.85,2.08,-3.91,-4.09,942.65,21.44,
6753821,0.02,-0.05,0.85,1.59,-2.08,-4.39,942.66,21.44,
6753860,0.01,-0.05,0.84,1.53,-0.31,-4.52,942.71,21.43,
6753898,0.02,-0.04,0.84,1.1,0.37,-4.7,942.69,21.44,
6753948,0.04,-0.05,0.84,0.67,2.26,-5.13,942.75,21.44,
6753986,0.02,-0.04,0.88,-0.18,3.36,-5.8,942.75,21.44,
6754024,0.02,-0.04,0.91,-0.18,4.33,-5.8,942.69,21.43,
6754063,0.02,-0.05,0.88,-0.79,4.7,-5.86,942.72,21.43,
6754101,0.03,-0.03,0.94,-0.85,4.27,-6.04,942.85,21.45,
6754139,0.02,-0.05,0.94,-1.46,5.74,-6.29,942.72,21.44,
6754177,0.02,-0.03,0.94,-1.53,5.98,-6.23,942.78,21.45,
6754216,0.04,-0.03,0.98,-1.71,6.47,-6.47,942.8,21.44,
6754254,0.03,-0.03,0.97,-2.14,7.32,-6.65,942.83,21.44,
6754330,0.02,-0.03,1.03,-2.08,9.7,-6.59,942.75,21.41,
6754368,0.03,-0.03,1.07,-2.26,9.7,-6.65,942.77,21.43,
6754406,0.01,-0.02,1.12,-1.95,10.86,-6.71,942.75,21.44,
6754496,0.06,-0.01,1.15,-2.56,11.78,-6.59,942.79,21.4,
6754535,0.03,-0.01,1.12,-2.87,11.72,-6.41,942.76,21.42,
6754573,0.03,-0.02,1.12,-2.93,11.72,-6.41,942.68,21.41,
6754611,0.03,-0.02,1.19,-2.69,11.17,-6.59,942.74,21.43,
6754649,0.03,-0.02,1.16,-2.87,10.74,-6.35,942.72,21.42,
6754688,0.04,0.0,1.21,-2.75,10.44,-6.41,942.79,21.43,
6754726,0.05,-0.01,1.23,-2.99,10.5,-6.35,942.72,21.43,
6754776,0.03,-0.02,1.24,-3.05,10.44,-6.35,942.77,21.41,
6754814,0.02,-0.01,1.23,-2.62,11.05,-6.29,942.86,21.43,
6754853,0.04,-0.0,1.23,-2.56,10.68,-6.41,942.83,21.43,
6754891,0.03,-0.01,1.2,-2.69,10.38,-6.29,942.9,21.44,
6754929,0.02,-0.01,1.2,-2.44,9.58,-6.16,942.9,21.45,
6754968,0.05,-0.02,1.21,-2.44,8.91,-6.16,942.88,21.44,
6755006,0.02,-0.03,1.22,-2.2,7.87,-6.23,942.91,21.46,
6755044,0.01,-0.02,1.23,-2.38,8.12,-6.1,942.9,21.44,
6755082,0.04,0.0,1.31,-2.14,6.77,-6.1,942.83,21.45,
6755132,-0.0,0.0,1.29,-2.81,7.2,-6.29,942.87,21.42,
6755171,0.01,0.02,1.37,-3.17,6.47,-6.53,942.89,21.45,
6755209,0.03,-0.01,1.37,-3.78,7.14,-6.53,942.95,21.44,
6755247,0.03,0.0,1.39,-3.91,5.31,-6.65,942.92,21.43,
6755286,-0.01,0.01,1.4,-3.6,5.55,-6.41,942.95,21.44,
6755324,0.01,-0.01,1.35,-3.36,6.1,-6.59,942.94,21.44,
6755362,0.02,-0.02,1.32,-3.36,4.64,-6.71,942.99,21.44,
6755401,-0.01,-0.01,1.32,-3.36,3.85,-6.59,943.01,21.45,
6755439,0.0,-0.01,1.24,-3.42,4.27,-6.77,942.94,21.44,
6755477,0.01,-0.02,1.26,-3.42,4.27,-6.77,942.94,21.46,
6755527,0.02,-0.03,1.3,-3.42,2.99,-6.47,942.98,21.44,
6755565,-0.0,-0.03,1.25,-3.66,3.36,-6.71,942.94,21.45,
6755604,0.0,-0.02,1.26,-3.3,2.5,-6.71,942.96,21.45,
6755642,-0.0,-0.02,1.26,-3.66,2.62,-6.59,943.0,21.46,
6755680,0.01,-0.03,1.27,-3.48,1.22,-6.59,943.02,21.46,
6755718,-0.02,-0.03,1.3,-3.48,1.46,-6.65,942.97,21.45,
6755757,-0.01,-0.04,1.23,-3.78,1.53,-6.65,943.0,21.47,
6755795,-0.0,-0.03,1.32,-3.54,0.92,-6.71,943.0,21.45,
6755833,0.01,-0.03,1.24,-4.03,0.85,-6.53,943.03,21.45,
6755883,-0.01,-0.03,1.3,-3.54,0.98,-6.47,943.03,21.45,
6755922,-0.01,-0.04,1.23,-3.72,1.28,-6.59,943.09,21.46,
6755960,-0.0,-0.04,1.29,-3.3,0.85,-6.65,943.08,21.46,
6755998,0.01,-0.04,1.27,-3.66,1.16,-6.71,943.04,21.46,
6756036,-0.02,-0.02,1.34,-3.11,1.16,-6.53,943.09,21.45,
6756075,-0.01,-0.03,1.34,-3.36,3.11,-6.77,943.07,21.46,
6756113,0.01,-0.04,1.35,-3.48,3.72,-6.9,943.08,21.45,
6756151,-0.01,-0.03,1.35,-3.48,3.85,-6.96,943.07,21.45,
6756190,-0.02,-0.05,1.31,-3.3,5.43,-7.02,943.03,21.45,
6756239,0.03,-0.03,1.28,-3.36,7.63,-7.26,943.07,21.44,
6756278,0.01,-0.03,1.3,-2.69,7.69,-6.96,943.09,21.46,
6756316,-0.02,-0.07,1.22,-2.2,8.67,-6.96,943.07,21.45,
6756354,0.03,-0.05,1.23,-2.14,8.42,-6.96,943.06,21.45,
6756392,0.02,-0.04,1.19,-2.08,9.34,-7.08,943.08,21.46,
6756431,0.03,-0.04,1.14,-2.14,7.45,-6.77,943.08,21.46,
6756469,0.01,-0.06,1.11,-2.26,6.41,-6.84,943.08,21.46,
6756507,0.01,-0.07,1.02,-2.81,5.92,-6.65,943.05,21.46,
6756545,0.02,-0.08,0.97,-2.99,4.39,-6.59,943.07,21.46,
6756584,0.0,-0.07,0.91,-3.36,3.11,-6.84,943.06,21.46,
6756634,0.01,-0.06,0.85,-4.03,2.99,-7.32,943.07,21.44,
6756672,0.02,-0.07,0.89,-3.6,3.36,-7.26,943.07,21.45,
6756710,0.01,-0.09,0.85,-4.33,3.85,-7.51,943.09,21.45,
6756748,-0.01,-0.05,1.02,-3.36,3.23,-7.57,943.05,21.45,
6756787,0.0,-0.07,1.01,-4.39,6.77,-7.75,943.04,21.46,
6756825,-0.01,-0.05,1.12,-4.58,5.31,-7.93,943.04,21.46,
6756863,-0.0,-0.07,1.16,-4.58,5.86,-8.18,943.11,21.45,
6756901,0.0,-0.06,1.17,-5.49,6.65,-8.36,943.03,21.45,
6756940,-0.0,-0.05,1.24,-5.62,7.32,-8.3,943.06,21.45,
6756990,-0.0,-0.06,1.25,-5.37,7.51,-8.3,943.07,21.44,
6757028,-0.04,-0.06,1.22,-5.31,8.48,-8.42,943.07,21.45,
6757066,-0.02,-0.05,1.25,-4.94,7.81,-8.24,943.04,21.46,
6757104,-0.0,-0.05,1.26,-5.07,7.81,-8.3,943.07,21.45,
6757143,-0.01,-0.05,1.25,-5.07,6.96,-8.36,943.02,21.44,
6757181,-0.01,-0.05,1.3,-5.43,7.26,-8.3,942.95,21.45,
6757219,-0.0,-0.06,1.32,-5.68,7.14,-8.3,942.98,21.45,
6757257,-0.02,-0.05,1.31,-5.8,7.08,-8.3,942.93,21.44,
6757296,-0.02,-0.04,1.31,-5.86,7.02,-8.18,943.03,21.46,
6757334,-0.02,-0.04,1.31,-5.74,6.53,-8.18,942.99,21.45,
6757410,-0.02,-0.04,1.33,-6.16,6.1,-8.24,942.98,21.44,
6757448,-0.02,-0.03,1.39,-6.1,5.8,-8.06,942.98,21.44,
6757486,-0.03,-0.04,1.37,-6.47,6.1,-7.93,942.9,21.43,
6757576,-0.03,-0.04,1.38,-6.41,5.62,-7.51,942.94,21.4,
6757615,-0.05,-0.03,1.42,-5.92,4.94,-7.39,942.92,21.41,
6757653,-0.03,-0.04,1.35,-6.35,5.37,-7.2,942.91,21.42,
6757691,-0.03,-0.02,1.45,-5.92,3.6,-7.02,942.87,21.42,
6757730,-0.04,-0.05,1.41,-6.29,4.64,-6.84,942.9,21.44,
6757768,-0.03,-0.02,1.44,-6.1,3.48,-6.59,942.85,21.42,
6757818,-0.04,-0.04,1.45,-6.1,4.21,-6.59,942.93,21.42,
6757856,-0.02,-0.04,1.41,-6.1,2.87,-6.41,942.89,21.42,
6757894,-0.03,-0.03,1.44,-5.98,2.93,-6.35,942.87,21.43,
6757933,-0.03,-0.05,1.37,-5.86,3.11,-6.16,942.92,21.45,
6757971,-0.03,-0.03,1.39,-5.74,1.83,-6.04,942.89,21.44,
6758009,-0.02,-0.05,1.34,-6.04,2.69,-5.92,942.87,21.44,
6758048,-0.02,-0.03,1.37,-5.86,2.26,-6.04,942.86,21.43,
6758086,-0.01,-0.05,1.36,-6.1,3.11,-6.1,942.89,21.45,
6758124,-0.02,-0.04,1.35,-6.47,2.56,-6.04,942.9,21.44,
6758174,-0.03,-0.04,1.37,-6.65,3.78,-6.16,942.86,21.44,
6758212,-0.02,-0.03,1.38,-6.65,2.99,-6.04,942.81,21.43,
6758250,-0.02,-0.03,1.42,-6.65,4.15,-6.23,942.83,21.43,
6758289,-0.02,-0.04,1.38,-6.71,4.39,-6.04,942.88,21.44,
6758327,-0.02,-0.04,1.44,-6.84,5.25,-6.29,942.87,21.45,
6758365,0.0,-0.04,1.42,-6.65,4.82,-6.16,942.8,21.45,
6758404,-0.02,-0.03,1.42,-6.53,5.49,-6.29,942.86,21.44,
6758442,-0.01,-0.04,1.36,-6.47,6.35,-6.41,942.9,21.46,
6758480,-0.01,-0.03,1.4,-6.41,6.1,-6.41,942.82,21.45,
6758530,0.0,-0.03,1.32,-6.35,5.49,-6.65,942.83,21.44,
6758568,-0.01,-0.04,1.32,-6.47,6.04,-6.53,942.86,21.44,
6758607,0.01,-0.05,1.27,-6.65,6.77,-6.59,942.86,21.45,
6758645,0.01,-0.04,1.31,-6.59,4.94,-6.65,942.8,21.45,
6758683,-0.01,-0.04,1.36,-6.1,4.39,-6.71,942.81,21.45,
6758721,-0.02,-0.04,1.3,-6.41,3.17,-6.59,942.75,21.46,
6758760,0.0,-0.03,1.43,-6.16,0.92,-6.59,942.73,21.45,
6758798,0.01,-0.05,1.33,-6.53,1.4,-6.65,942.73,21.46,
6758836,-0.02,-0.03,1.31,-6.9,-0.43,-6.53,942.63,21.45,
6758875,-0.01,-0.01,1.38,-7.02,-0.37,-6.65,942.64,21.46,
6758924,-0.02,-0.03,1.37,-6.53,-1.95,-6.77,942.62,21.44,
6758963,-0.02,-0.03,1.39,-6.35,-2.69,-6.59,942.61,21.45,
6759001,-0.03,-0.03,1.41,-5.74,-4.88,-6.47,942.54,21.45,
6759039,-0.04,-0.04,1.35,-5.74,-4.82,-6.65,942.5,21.45,
6759078,-0.04,-0.02,1.38,-5.25,-5.98,-6.71,942.54,21.46,
6759116,-0.06,-0.03,1.35,-5.25,-4.94,-6.41,942.52,21.46,
6759154,-0.07,-0.04,1.25,-5.31,-5.62,-6.35,942.49,21.46,
6759192,-0.08,-0.03,1.3,-4.27,-5.68,-6.35,942.47,21.47,
6759231,-0.09,-0.04,1.26,-3.72,-6.1,-5.92,942.39,21.46,
6759281,-0.07,-0.02,1.26,-2.81,-7.26,-5.62,942.4,21.45,
6759319,-0.08,-0.06,1.26,-1.71,-7.26,-5.37,942.39,21.46,
6759357,-0.05,-0.04,1.25,-1.83,-7.08,-5.13,942.37,21.45,
6759395,-0.08,-0.02,1.23,-1.4,-7.63,-4.88,942.35,21.46,
6759434,-0.09,-0.03,1.23,-1.1,-8.12,-4.46,942.37,21.46,
6759472,-0.05,-0.05,1.19,-1.22,-8.18,-4.33,942.33,21.46,
6759510,-0.06,-0.04,1.18,-1.04,-9.77,-4.27,942.31,21.46,
6759548,-0.1,-0.05,1.17,-0.79,-9.83,-3.91,942.3,21.46,
6759587,-0.08,-0.03,1.09,-0.67,-9.77,-3.36,942.33,21.46,
6759637,-0.07,-0.05,1.13,-0.18,-8.79,-3.54,942.31,21.44,
6759675,-0.09,-0.07,1.08,0.12,-9.64,-3.17,942.25,21.46,
6759713,-0.09,-0.07,1.07,0.31,-9.16,-2.87,942.32,21.46,
6759751,-0.06,-0.06,1.04,0.49,-7.81,-2.99,942.28,21.46,
6759790,-0.07,-0.04,1.11,0.92,-8.0,-2.69,942.26,21.46,
6759828,-0.05,-0.04,1.14,0.79,-7.51,-2.5,942.25,21.46,
6759866,-0.07,-0.04,1.15,0.67,-6.47,-2.38,942.35,21.47,
6759904,-0.06,-0.03,1.2,0.18,-5.8,-2.2,942.32,21.46,
6759943,-0.06,-0.05,1.23,0.12,-6.04,-2.01,942.32,21.45,
6759993,-0.03,-0.04,1.24,0.24,-6.47,-2.08,942.4,21.46,
6760031,-0.02,-0.05,1.19,0.31,-5.25,-2.2,942.46,21.45,
6760069,-0.03,-0.04,1.13,0.61,-4.52,-1.89,942.5,21.45,
6760107,-0.01,-0.05,1.08,0.79,-3.91,-2.01,942.56,21.46,
6760146,-0.02,-0.05,1.03,0.67,-3.6,-2.2,942.56,21.46,
6760184,-0.02,-0.05,1.02,0.67,-3.3,-2.2,942.52,21.47,
6760222,-0.0,-0.06,1.01,0.31,-1.71,-2.44,942.55,21.48,
6760261,0.01,-0.06,0.99,0.24,-1.53,-2.75,942.52,21.46,
6760299,0.0,-0.06,0.97,-0.06,-1.04,-2.75,942.47,21.47,
6760337,0.01,-0.06,0.96,-0.12,-0.67,-2.87,942.46,21.46,
6760487,0.0,-0.06,0.83,-0.79,-0.37,-3.42,942.48,21.4,
6760525,0.0,-0.06,0.87,-0.37,-0.98,-3.3,942.41,21.41,
6760563,-0.0,-0.06,0.81,-0.61,-0.85,-3.54,942.49,21.44,
6760653,-0.02,-0.07,0.83,-0.79,-0.79,-3.48,942.46,21.4,
6760691,-0.02,-0.06,0.89,-0.43,-1.34,-3.54,942.4,21.41,
6760730,-0.01,-0.06,0.88,-0.73,-0.31,-3.48,942.41,21.42,
6760768,0.0,-0.05,0.92,-0.67,-0.31,-3.66,942.45,21.42,
6760806,-0.01,-0.05,0.97,-0.55,0.06,-3.48,942.46,21.44,
6760844,-0.01,-0.05,0.95,-0.49,0.49,-3.6,942.45,21.43,
6760894,-0.01,-0.05,1.01,0.0,1.53,-3.66,942.39,21.43,
6760933,-0.0,-0.05,0.97,-0.18,2.69,-3.72,942.38,21.44,
6760971,-0.0,-0.04,1.01,0.18,3.23,-3.85,942.39,21.44,
6761009,0.0,-0.05,0.98,-0.12,4.39,-3.72,942.46,21.45,
6761047,-0.0,-0.05,0.99,0.06,4.21,-3.91,942.37,21.44,
6761086,-0.01,-0.05,0.97,0.06,4.82,-4.03,942.39,21.44,
6761124,-0.0,-0.04,0.98,0.24,4.7,-3.97,942.4,21.44,
6761162,0.0,-0.05,0.95,0.06,5.74,-4.09,942.34,21.45,
6761200,-0.0,-0.04,1.01,0.37,5.74,-4.09,942.34,21.45,
6761250,0.01,-0.05,1.02,0.31,5.98,-4.15,942.3,21.43,
6761289,0.0,-0.04,1.05,0.49,5.37,-3.97,942.34,21.45,
6761327,-0.01,-0.05,0.99,0.61,6.04,-3.91,942.35,21.45,
6761365,0.0,-0.05,1.01,0.67,5.55,-4.09,942.4,21.45,
6761403,0.0,-0.05,0.97,0.73,6.59,-4.21,942.39,21.46,
6761442,0.01,-0.04,0.97,0.79,6.23,-4.21,942.31,21.45,
6761480,0.03,-0.06,0.97,0.98,8.36,-4.39,942.32,21.44,
6761518,0.03,-0.05,0.95,0.92,10.07,-4.64,942.21,21.44,
6761557,0.02,-0.05,0.98,1.53,11.41,-4.58,942.19,21.46,
6761595,0.01,-0.05,0.92,0.98,13.61,-4.76,942.15,21.45,
6761645,0.02,-0.06,0.92,1.46,15.01,-5.0,942.1,21.44,
6761683,0.04,-0.06,0.89,0.98,16.11,-5.0,942.14,21.44,
6761721,0.03,-0.06,0.88,1.1,16.3,-4.94,942.18,21.46,
6761760,0.04,-0.05,0.85,0.73,16.97,-5.37,942.15,21.45,
6761798,0.04,-0.05,0.88,0.92,16.78,-5.49,942.14,21.46,
6761836,0.04,-0.06,0.84,0.37,16.54,-5.49,942.19,21.46,
6761874,0.03,-0.05,0.86,0.67,15.5,-5.62,942.26,21.46,
6761913,0.03,-0.06,0.84,0.24,15.81,-5.55,942.16,21.45,
6761951,0.03,-0.06,0.85,0.18,15.56,-5.68,942.2,21.46,
6761989,0.04,-0.06,0.84,0.0,15.14,-5.62,942.15,21.45,
6762039,0.02,-0.06,0.84,-0.31,14.59,-5.68,942.21,21.45,
6762078,0.03,-0.05,0.85,-0.73,14.22,-5.8,942.19,21.44,
6762116,0.03,-0.06,0.88,-0.67,12.94,-5.98,942.15,21.45,
6762154,0.03,-0.06,0.89,-0.92,12.45,-6.04,942.19,21.46,
6762192,0.04,-0.06,0.91,-1.22,11.35,-6.1,942.17,21.46,
6762231,0.04,-0.05,0.93,-1.71,10.62,-6.29,942.2,21.46,
6762269,0.02,-0.04,0.96,-1.95,10.5,-6.35,942.17,21.45,
6762307,0.04,-0.05,0.99,-2.62,10.31,-6.53,942.23,21.46,
6762345,0.02,-0.04,1.04,-2.62,10.44,-6.84,942.24,21.46,
6762395,0.02,-0.04,1.07,-2.93,10.5,-6.9,942.22,21.46,
6762434,0.02,-0.02,1.14,-3.05,10.13,-7.08,942.18,21.46,
6762472,0.03,-0.02,1.12,-3.54,11.11,-7.08,942.18,21.45,
6762510,0.03,-0.03,1.14,-3.72,10.56,-7.2,942.18,21.45,
6762549,0.02,-0.03,1.13,-3.97,11.11,-7.02,942.18,21.46,
6762587,0.02,-0.02,1.13,-3.72,10.56,-7.26,942.15,21.45,
6762625,0.02,-0.02,1.14,-3.85,11.05,-7.39,942.17,21.46,
6762663,0.02,-0.03,1.1,-3.72,10.31,-7.57,942.17,21.46,
6762702,0.03,-0.03,1.12,-3.42,10.13,-7.39,942.19,21.46,
6762752,0.03,-0.04,1.1,-3.54,10.62,-7.63,942.18,21.45,
6762790,0.02,-0.03,1.11,-3.3,10.25,-7.69,942.21,21.46,
6762828,0.03,-0.03,1.09,-3.36,10.19,-8.06,942.26,21.46,
6762867,0.03,-0.04,1.09,-3.48,10.01,-8.06,942.22,21.46,
6762905,0.03,-0.03,1.11,-3.66,9.89,-8.24,942.22,21.46,
6762943,0.03,-0.04,1.09,-3.66,9.34,-8.3,942.19,21.46,
6762981,0.03,-0.03,1.1,-3.85,8.73,-8.61,942.25,21.47,
6763019,0.02,-0.02,1.1,-3.91,8.73,-8.48,942.18,21.45,
6763058,0.04,-0.04,1.1,-3.91,8.54,-8.79,942.24,21.45,
6763096,0.03,-0.03,1.09,-4.21,7.93,-8.85,942.26,21.47,
6763146,0.02,-0.04,1.1,-4.39,7.93,-8.85,942.23,21.45,
6763184,0.03,-0.04,1.09,-4.64,7.51,-9.22,942.2,21.45,
6763222,0.03,-0.02,1.12,-4.82,7.2,-9.28,942.23,21.46,
6763261,0.03,-0.02,1.13,-4.94,6.96,-9.52,942.2,21.46,
6763299,0.03,-0.02,1.13,-5.19,6.65,-9.77,942.24,21.46,
6763337,0.03,-0.03,1.15,-5.13,6.41,-9.95,942.21,21.46,
6763375,0.03,-0.02,1.17,-5.43,5.98,-10.07,942.17,21.45,
6763414,0.03,-0.02,1.17,-5.43,5.49,-10.07,942.16,21.46,
6763452,0.02,-0.01,1.18,-5.62,4.88,-10.31,942.19,21.46,
6763528,0.02,-0.0,1.22,-6.23,4.94,-10.5,942.16,21.44,
6763566,0.01,0.0,1.27,-6.23,4.33,-10.62,942.12,21.45,
6763605,0.01,-0.01,1.26,-6.23,5.31,-10.62,942.17,21.44,
6763694,0.01,-0.02,1.18,-6.1,6.77,-10.99,942.31,21.42,
6763733,0.01,-0.03,1.15,-5.92,7.57,-11.23,942.35,21.44,
6763771,0.01,-0.02,1.15,-5.49,8.12,-11.66,942.28,21.45,
6763809,0.02,-0.03,1.15,-5.37,9.28,-11.72,942.3,21.44,
6763847,0.03,-0.03,1.09,-5.49,9.16,-11.96,942.3,21.45,
6763886,0.01,-0.03,1.12,-6.04,9.22,-12.02,942.27,21.45,
6763936,0.0,-0.04,1.1,-6.65,10.31,-12.08,942.31,21.44,
6763974,0.01,-0.03,1.18,-6.71,8.97,-12.02,942.34,21.45,
6764013,0.02,-0.03,1.14,-7.08,8.73,-12.21,942.38,21.45,
6764051,0.0,-0.03,1.12,-7.2,8.12,-12.39,942.34,21.45,
6764089,0.02,-0.02,1.16,-7.45,7.14,-12.21,942.31,21.46,
6764127,0.02,-0.02,1.16,-7.69,5.74,-12.27,942.24,21.45,
6764166,-0.03,-0.01,1.19,-8.06,4.27,-12.02,942.22,21.45,
6764204,-0.03,-0.01,1.22,-8.67,4.15,-11.96,942.22,21.44,
6764242,-0.01,-0.0,1.33,-8.73,2.99,-11.96,942.28,21.46,
6764281,-0.02,-0.0,1.38,-9.28,2.26,-12.08,942.25,21.45,
6764331,-0.03,0.0,1.44,-9.03,2.62,-11.6,942.23,21.44,
6764369,-0.02,0.01,1.43,-9.22,3.3,-11.78,942.32,21.45,
6764407,-0.04,0.01,1.44,-8.67,2.93,-11.6,942.32,21.45,
6764445,-0.05,0.0,1.38,-9.09,3.54,-11.35,942.32,21.45,
6764484,-0.05,0.01,1.37,-9.16,3.36,-11.29,942.31,21.45,
6764522,-0.04,0.0,1.37,-9.22,3.66,-11.23,942.31,21.45,
6764560,-0.03,0.0,1.37,-9.09,2.75,-10.99,942.32,21.46,
6764598,-0.04,0.0,1.37,-9.28,2.81,-10.62,942.27,21.46,
6764637,-0.05,0.0,1.38,-9.09,2.26,-10.62,942.28,21.45,
6764687,-0.04,0.01,1.38,-9.34,2.5,-10.38,942.34,21.44,
6764725,-0.04,0.01,1.4,-9.22,1.89,-10.19,942.33,21.45,
6764763,-0.04,0.0,1.42,-9.4,2.01,-10.13,942.31,21.45,
6764802,-0.03,0.01,1.44,-9.46,1.34,-9.89,942.34,21.45,
6764840,-0.04,0.02,1.49,-9.4,1.1,-9.83,942.33,21.45,
6764878,-0.04,0.02,1.48,-9.4,0.85,-9.64,942.41,21.45,
6764916,-0.04,0.03,1.52,-9.28,0.61,-9.52,942.43,21.46,
6764955,-0.03,0.02,1.52,-9.03,0.85,-9.46,942.42,21.46,
6764993,-0.03,0.03,1.5,-8.91,0.79,-9.28,942.44,21.47,
6765043,-0.03,0.02,1.48,-8.48,1.65,-9.09,942.48,21.46,
6765081,-0.03,0.02,1.49,-8.36,1.46,-8.97,942.49,21.46,
6765119,-0.03,0.02,1.47,-8.3,1.77,-9.03,942.55,21.47,
6765158,-0.04,0.02,1.48,-7.87,1.59,-8.97,942.55,21.47,
6765196,-0.03,0.0,1.45,-7.75,2.26,-9.28,942.51,21.47,
6765234,-0.02,-0.0,1.43,-7.63,2.26,-8.97,942.55,21.47,
6765272,-0.03,0.02,1.46,-7.63,2.2,-9.03,942.51,21.46,
6765311,-0.03,0.01,1.41,-7.39,2.69,-9.03,942.53,21.48,
6765349,-0.03,-0.0,1.45,-7.51,2.56,-9.16,942.53,21.47,
6765387,-0.03,-0.01,1.42,-7.45,3.72,-9.16,942.51,21.46,
6765437,-0.02,0.0,1.41,-7.14,2.5,-9.16,942.53,21.45,
6765475,-0.03,-0.01,1.36,-7.08,3.05,-9.16,942.58,21.45,
6765514,-0.02,-0.01,1.35,-7.14,2.08,-9.22,942.57,21.46,
6765552,-0.03,-0.01,1.38,-6.9,2.38,-9.03,942.58,21.48,
6765590,-0.02,-0.03,1.31,-7.08,1.89,-8.91,942.5,21.46,
6765628,-0.04,-0.02,1.35,-7.32,1.22,-9.09,942.56,21.47,
6765667,-0.03,-0.02,1.34,-7.57,2.2,-8.85,942.51,21.46,
6765705,-0.02,-0.02,1.38,-7.39,1.22,-9.09,942.59,21.48,
6765743,-0.03,-0.02,1.4,-7.75,1.65,-8.97,942.58,21.47,
6765793,-0.02,-0.01,1.44,-7.93,2.01,-8.91,942.59,21.45,
6765831,-0.03,-0.01,1.44,-8.24,2.08,-8.91,942.64,21.46,
6765870,-0.04,-0.01,1.44,-8.3,1.46,-8.85,942.63,21.47,
6765908,-0.04,-0.01,1.45,-8.3,1.95,-8.91,942.57,21.46,
6765946,-0.03,-0.01,1.44,-8.3,1.28,-8.67,942.64,21.46,
6765984,-0.03,-0.01,1.43,-8.24,0.73,-8.67,942.58,21.46,
6766023,-0.03,-0.02,1.43,-8.24,0.79,-8.61,942.61,21.47,
6766061,-0.04,-0.02,1.42,-8.36,0.67,-8.61,942.62,21.47,
6766099,-0.03,-0.01,1.41,-8.36,0.43,-8.42,942.64,21.48,
6766149,-0.05,-0.01,1.42,-8.3,0.12,-8.42,942.66,21.47,
6766187,-0.03,-0.02,1.4,-8.36,0.24,-8.24,942.62,21.46,
6766226,-0.04,-0.02,1.38,-8.18,0.12,-8.3,942.67,21.47,
6766264,-0.04,-0.02,1.37,-8.3,0.43,-8.18,942.63,21.46,
6766302,-0.03,-0.02,1.36,-8.12,0.18,-8.3,942.62,21.47,
6766341,-0.04,-0.01,1.42,-8.18,0.31,-8.24,942.67,21.48,
6766379,-0.04,-0.02,1.41,-8.18,0.92,-8.24,942.67,21.48,
6766417,-0.04,-0.01,1.43,-8.18,1.22,-8.48,942.65,21.47,
6766455,-0.04,-0.01,1.43,-8.3,1.77,-8.42,942.68,21.48,
6766494,-0.04,-0.02,1.42,-8.3,2.01,-8.24,942.68,21.47,
6766570,-0.03,-0.02,1.4,-7.87,2.2,-8.24,942.7,21.45,
6766608,-0.04,-0.03,1.36,-8.12,2.14,-7.87,942.64,21.46,
6766646,-0.04,-0.02,1.37,-7.69,1.4,-8.06,942.67,21.46,
6766736,-0.04,-0.02,1.41,-7.69,1.53,-7.81,942.62,21.43,
6766774,-0.04,-0.02,1.43,-7.81,1.59,-7.75,942.66,21.44,
6766812,-0.05,-0.01,1.43,-7.57,1.53,-7.69,942.68,21.44,
6766851,-0.03,0.0,1.47,-7.75,1.83,-7.75,942.71,21.45,
6766889,-0.03,-0.01,1.47,-7.69,1.95,-7.75,942.67,21.45,
6766927,-0.04,-0.01,1.46,-7.75,1.59,-7.81,942.66,21.44,
6766977,-0.04,-0.01,1.43,-7.32,1.28,-7.57,942.67,21.44,
6767015,-0.04,-0.01,1.43,-7.08,0.98,-7.2,942.69,21.45,
6767054,-0.03,-0.02,1.42,-6.9,0.79,-7.39,942.75,21.45,
6767092,-0.04,-0.02,1.4,-6.53,0.49,-7.2,942.76,21.46,
6767130,-0.04,-0.02,1.38,-6.65,0.85,-7.26,942.71,21.46,
6767168,-0.03,-0.02,1.39,-6.53,0.98,-7.26,942.72,21.46,
6767207,-0.04,-0.02,1.4,-6.29,0.98,-7.2,942.71,21.47,
6767245,-0.04,-0.03,1.37,-6.47,1.71,-7.14,942.66,21.46,
6767283,-0.04,-0.02,1.39,-6.29,1.46,-7.39,942.72,21.46,
6767333,-0.05,-0.02,1.36,-6.29,1.83,-7.08,942.72,21.46,
6767371,-0.05,-0.02,1.36,-6.1,1.77,-7.08,942.75,21.46,
6767410,-0.04,-0.02,1.36,-6.16,2.01,-6.9,942.74,21.48,
6767448,-0.04,-0.02,1.33,-6.04,1.95,-6.9,942.72,21.45,
6767486,-0.06,-0.03,1.34,-5.68,1.95,-6.65,942.76,21.47,
6767524,-0.03,-0.03,1.29,-5.86,2.14,-6.65,942.78,21.47,
6767563,-0.04,-0.02,1.32,-5.86,1.89,-6.59,942.71,21.48,
6767601,-0.04,-0.03,1.28,-6.04,2.81,-6.47,942.68,21.46,
6767639,-0.04,-0.03,1.3,-5.92,2.44,-6.41,942.75,21.48,
6767677,-0.03,-0.03,1.29,-6.04,2.81,-6.41,942.72,21.48,
6767727,-0.04,-0.03,1.29,-5.92,2.44,-6.41,942.73,21.46,
6767766,-0.04,-0.03,1.3,-5.86,2.62,-6.35,942.73,21.46,
6767804,-0.03,-0.03,1.3,-5.8,2.69,-6.23,942.75,21.46,
6767842,-0.04,-0.02,1.3,-5.55,2.38,-6.16,942.7,21.46,
6767880,-0.05,-0.03,1.3,-5.62,2.56,-6.1,942.81,21.48,
6767919,-0.04,-0.02,1.32,-5.55,2.81,-6.1,942.73,21.48,
6767957,-0.03,-0.02,1.31,-5.37,2.62,-5.98,942.7,21.48,
6767995,-0.03,-0.02,1.32,-5.31,2.75,-5.98,942.7,21.47,
6768033,-0.04,-0.02,1.29,-5.37,2.81,-5.92,942.74,21.48,
6768083,-0.03,-0.02,1.33,-5.43,2.26,-5.49,942.67,21.47,
6768122,-0.03,-0.02,1.33,-5.43,1.95,-5.62,942.72,21.48,
6768160,-0.04,-0.02,1.31,-5.31,1.28,-5.43,942.75,21.47,
6768198,-0.03,-0.02,1.32,-5.19,1.04,-5.43,942.72,21.47,
6768236,-0.03,-0.03,1.3,-5.13,0.67,-5.49,942.7,21.48,
6768275,-0.04,-0.02,1.29,-4.88,0.31,-5.31,942.7,21.47,
6768313,-0.04,-0.02,1.28,-4.7,0.73,-5.37,942.73,21.47,
6768351,-0.03,-0.02,1.3,-4.58,0.92,-5.31,942.69,21.47,
6768389,-0.03,-0.02,1.29,-4.82,1.22,-5.25,942.68,21.47,
6768439,-0.04,-0.02,1.31,-4.7,1.28,-5.37,942.71,21.47,
6768478,-0.03,-0.02,1.29,-4.76,2.5,-5.25,942.67,21.47,
6768516,-0.02,-0.02,1.26,-4.76,2.69,-5.13,942.75,21.47,
6768554,-0.03,-0.02,1.25,-4.88,2.56,-5.31,942.73,21.47,
6768592,-0.02,-0.02,1.22,-4.94,2.69,-5.19,942.69,21.47,
6768631,-0.03,-0.02,1.22,-5.0,2.93,-5.31,942.66,21.46,
6768669,-0.01,-0.02,1.26,-4.76,1.71,-5.31,942.74,21.47,
6768707,-0.02,-0.04,1.21,-5.07,1.59,-5.19,942.72,21.48,
6768745,-0.02,-0.03,1.22,-4.88,0.85,-5.37,942.71,21.48,
6768784,-0.02,-0.02,1.21,-4.7,1.89,-5.31,942.69,21.48,
6768834,-0.02,-0.03,1.2,-4.33,0.85,-5.37,942.69,21.47,
6768872,-0.02,-0.04,1.19,-4.09,0.85,-5.55,942.66,21.48,
6768910,-0.02,-0.05,1.13,-3.85,0.37,-5.49,942.67,21.46,
6768948,-0.01,-0.03,1.13,-3.66,0.18,-5.43,942.65,21.48,
6768987,-0.01,-0.03,1.11,-3.54,0.61,-5.43,942.67,21.47,
6769025,-0.01,-0.03,1.11,-3.6,0.18,-5.62,942.64,21.47,
6769063,-0.03,-0.05,1.14,-3.36,0.06,-5.55,942.65,21.48,
6769101,-0.0,-0.05,1.14,-3.48,0.0,-5.68,942.64,21.48,
6769140,-0.01,-0.04,1.17,-3.23,0.0,-5.62,942.59,21.47,
6769190,0.01,-0.04,1.13,-3.54,-0.37,-5.74,942.73,21.47,
6769228,0.0,-0.04,1.15,-3.36,-0.73,-5.74,942.71,21.48,
6769266,0.01,-0.05,1.14,-3.36,-0.24,-5.86,942.63,21.47,
6769304,0.01,-0.04,1.14,-3.42,-0.43,-5.98,942.67,21.48,
6769343,0.01,-0.04,1.14,-3.54,-0.49,-6.41,942.63,21.47,
6769381,-0.01,-0.04,1.1,-3.72,-0.18,-6.59,942.71,21.48,
6769419,-0.0,-0.05,1.13,-3.85,0.43,-6.77,942.69,21.49,
6769457,0.02,-0.05,1.13,-4.15,0.61,-7.02,942.7,21.48,
6769496,0.01,-0.04,1.15,-4.09,0.43,-7.2,942.63,21.46,
6769572,0.0,-0.04,1.16,-4.21,1.83,-7.57,942.63,21.45,
6769610,0.02,-0.04,1.17,-4.39,1.71,-7.63,942.68,21.47,
6769648,0.0,-0.03,1.19,-4.27,1.34,-8.18,942.61,21.46,
6769738,0.02,-0.03,1.2,-4.09,2.32,-8.67,942.66,21.44,
6769776,0.01,-0.04,1.18,-4.21,2.44,-8.79,942.66,21.45,
6769815,0.01,-0.04,1.14,-4.33,2.69,-8.91,942.72,21.46,
6769853,0.02,-0.03,1.15,-4.46,3.05,-9.34,942.66,21.46,
6769891,0.01,-0.03,1.14,-4.39,2.99,-9.4,942.64,21.45,
6769929,0.0,-0.04,1.15,-4.15,2.62,-9.64,942.61,21.45,
6769967,0.01,-0.04,1.17,-4.21,2.5,-9.7,942.67,21.46,
6770017,0.01,-0.03,1.21,-4.33,2.56,-10.01,942.68,21.46,
6770056,-0.0,-0.02,1.24,-4.03,1.83,-9.95,942.62,21.47,
6770094,0.01,-0.03,1.2,-4.21,2.26,-10.19,942.66,21.47,
6770132,-0.0,-0.03,1.23,-4.15,1.77,-10.38,942.6,21.46,
6770170,0.0,-0.03,1.19,-4.21,2.01,-10.13,942.66,21.47,
6770209,-0.02,-0.03,1.16,-4.21,1.4,-10.44,942.7,21.47,
6770247,-0.0,-0.03,1.14,-4.33,2.08,-10.38,942.64,21.47,
6770285,0.01,-0.03,1.17,-3.91,0.92,-10.44,942.61,21.47,
6770323,-0.01,-0.04,1.14,-3.97,0.92,-10.44,942.67,21.48,
6770373,-0.03,-0.03,1.12,-3.91,1.16,-10.38,942.62,21.45,
6770412,-0.02,-0.03,1.16,-4.03,1.83,-10.68,942.66,21.48,
6770450,-0.01,-0.02,1.16,-4.27,1.34,-10.68,942.65,21.48,
6770488,-0.03,-0.03,1.18,-4.52,2.56,-10.8,942.65,21.48,
6770526,-0.04,-0.03,1.17,-4.82,4.15,-10.86,942.62,21.47,
6770565,-0.02,-0.01,1.27,-4.58,5.19,-10.8,942.58,21.47,
6770603,-0.03,-0.0,1.31,-4.94,6.96,-10.93,942.55,21.47,
6770641,-0.05,-0.01,1.32,-4.58,7.81,-10.99,942.56,21.48,
6770679,-0.03,-0.01,1.31,-4.58,9.58,-11.05,942.59,21.49,
6770729,-0.03,-0.01,1.33,-4.7,10.56,-10.99,942.56,21.47,
6770768,-0.03,-0.0,1.31,-4.52,10.44,-10.93,942.59,21.48,
6770806,-0.05,0.0,1.35,-3.97,11.11,-10.56,942.59,21.47,
6770844,-0.03,-0.0,1.31,-3.97,11.47,-10.38,942.59,21.47,
6770882,-0.04,0.01,1.32,-3.97,10.38,-10.13,942.55,21.48,
6770921,-0.04,-0.0,1.31,-4.15,11.11,-10.07,942.54,21.48,
6770959,-0.03,-0.01,1.25,-4.15,11.23,-9.95,942.48,21.48,
6770997,-0.03,-0.02,1.25,-4.09,11.11,-9.64,942.53,21.48,
6771036,-0.03,-0.02,1.19,-4.21,11.11,-9.46,942.6,21.49,
6771086,-0.06,-0.02,1.13,-3.85,10.86,-8.97,942.56,21.47,
6771124,-0.03,-0.02,1.07,-3.78,10.13,-8.85,942.56,21.48,
6771162,-0.04,-0.02,1.04,-3.97,8.73,-8.54,942.52,21.46,
6771200,-0.03,-0.03,1.09,-3.54,6.77,-8.24,942.55,21.48,
6771239,-0.03,-0.04,1.08,-4.15,6.23,-7.87,942.55,21.48,
6771277,-0.02,-0.02,1.13,-4.09,4.46,-7.45,942.48,21.49,
6771315,-0.03,-0.03,1.13,-4.58,3.6,-7.26,942.51,21.48,
6771353,-0.04,-0.02,1.12,-4.7,2.14,-7.08,942.51,21.48,
6771392,-0.02,-0.03,1.12,-5.19,1.77,-6.96,942.54,21.49,
6771442,-0.03,-0.03,1.13,-5.25,0.37,-6.77,942.48,21.48,
6771480,-0.02,-0.02,1.17,-5.62,0.31,-6.77,942.51,21.47,
6771518,-0.03,-0.02,1.16,-5.31,0.55,-6.65,942.59,21.5,
6771556,-0.02,-0.02,1.18,-5.31,0.43,-6.53,942.54,21.49,
6771595,-0.02,-0.03,1.16,-5.55,0.49,-6.65,942.56,21.48,
6771633,-0.03,-0.02,1.14,-5.49,0.61,-6.77,942.55,21.48,
6771671,-0.01,-0.01,1.18,-5.68,0.73,-6.9,942.6,21.49,
6771709,-0.01,-0.02,1.16,-5.8,1.34,-7.08,942.52,21.48,
6771748,-0.03,-0.01,1.21,-5.68,0.92,-7.08,942.56,21.48,
6771786,-0.02,-0.02,1.18,-5.98,2.56,-7.14,942.61,21.49,
6771836,-0.02,-0.0,1.23,-5.68,2.38,-7.08,942.57,21.48,
6771874,-0.02,-0.01,1.2,-5.68,2.87,-7.14,942.58,21.48,
6771912,-0.02,-0.01,1.22,-5.37,2.62,-7.26,942.53,21.48,
6771951,-0.01,-0.01,1.22,-5.37,2.99,-7.08,942.59,21.48,
6771989,-0.02,-0.01,1.23,-5.25,2.14,-7.08,942.6,21.49,
6772027,-0.01,-0.01,1.24,-4.88,2.2,-7.2,942.57,21.49,
6772065,-0.03,-0.01,1.22,-4.94,2.08,-7.2,942.54,21.49,
6772104,-0.01,-0.0,1.25,-5.0,2.01,-7.08,942.6,21.49,
6772142,-0.01,-0.01,1.22,-5.07,2.08,-7.2,942.57,21.48,
6772192,-0.02,-0.01,1.2,-5.0,2.81,-7.08,942.58,21.48,
6772230,-0.01,-0.01,1.18,-4.94,2.99,-7.45,942.58,21.47,
6772268,-0.01,-0.01,1.18,-4.88,2.32,-7.26,942.6,21.48,
6772307,-0.03,-0.02,1.15,-4.7,2.81,-7.26,942.59,21.48,
6772345,-0.01,-0.01,1.17,-4.64,2.75,-7.39,942.61,21.49,
6772383,-0.01,-0.02,1.21,-4.46,2.93,-7.51,942.57,21.47,
6772421,-0.01,-0.02,1.19,-4.46,2.26,-7.39,942.55,21.49,
6772460,-0.02,-0.01,1.22,-4.52,2.99,-7.69,942.59,21.49,
6772498,-0.01,-0.01,1.21,-4.64,3.42,-7.57,942.62,21.49,
6772574,-0.03,-0.02,1.19,-4.58,3.23,-7.69,942.55,21.46,
6772612,-0.01,-0.01,1.23,-4.27,3.48,-7.87,942.63,21.48,
6772650,-0.01,-0.01,1.2,-4.7,4.15,-7.87,942.56,21.47,
6772740,-0.01,-0.01,1.18,-4.7,4.88,-8.3,942.59,21.45,
6772779,-0.0,-0.02,1.21,-4.88,4.58,-8.48,942.64,21.47,
6772817,-0.01,-0.01,1.21,-4.88,3.78,-8.3,942.56,21.47,
6772855,-0.04,-0.02,1.19,-4.7,3.78,-8.3,942.56,21.45,
6772893,-0.02,-0.01,1.19,-4.88,4.39,-8.54,942.62,21.48,
6772932,-0.01,-0.01,1.2,-4.64,3.78,-8.61,942.6,21.48,
6772970,-0.02,-0.02,1.19,-4.82,3.54,-8.42,942.61,21.49,
6773020,-0.02,-0.02,1.17,-4.52,3.42,-8.61,942.64,21.47,
6773058,-0.02,-0.02,1.16,-5.0,3.3,-8.42,942.6,21.49,
6773096,-0.02,-0.01,1.15,-4.94,2.2,-8.54,942.66,21.48,
6773135,-0.02,-0.02,1.14,-4.88,2.26,-8.3,942.59,21.48,
6773173,-0.02,-0.03,1.13,-5.07,2.14,-8.42,942.57,21.48,
6773211,-0.02,-0.02,1.14,-5.25,1.4,-8.18,942.63,21.48,
6773249,-0.03,-0.01,1.13,-5.43,0.43,-8.0,942.59,21.48,
6773288,-0.03,-0.0,1.17,-5.37,0.12,-8.06,942.54,21.48,
6773326,-0.03,-0.02,1.19,-5.43,0.67,-8.24,942.62,21.49,
6773376,-0.02,-0.01,1.24,-5.49,0.55,-8.12,942.52,21.47,
6773414,-0.02,-0.01,1.23,-5.37,0.92,-8.18,942.64,21.49,
6773452,-0.02,-0.0,1.23,-5.25,0.98,-8.06,942.65,21.48,
6773491,-0.02,-0.0,1.23,-5.0,1.16,-8.18,942.67,21.49,
6773529,-0.02,-0.01,1.23,-5.07,0.67,-8.24,942.67,21.49,
6773567,-0.02,-0.02,1.2,-5.07,1.34,-8.24,942.62,21.49,
6773605,-0.02,-0.01,1.21,-4.88,1.4,-8.24,942.65,21.49,
6773644,-0.02,-0.01,1.19,-4.88,1.65,-8.24,942.65,21.5,
6773682,-0.03,-0.01,1.18,-4.88,1.34,-8.36,942.67,21.49,
6773732,-0.02,-0.02,1.21,-4.94,2.38,-8.3,942.69,21.48,
6773770,-0.02,-0.01,1.17,-4.88,2.44,-8.18,942.67,21.49,
6773808,-0.03,-0.0,1.2,-4.58,2.62,-8.12,942.68,21.49,
6773847,-0.03,-0.01,1.18,-4.94,2.75,-8.42,942.66,21.49,
6773885,-0.03,-0.01,1.2,-4.82,2.75,-8.3,942.69,21.49,
6773923,-0.03,-0.02,1.21,-4.88,2.56,-8.06,942.66,21.49,
6773961,-0.03,-0.01,1.22,-4.7,2.32,-8.12,942.66,21.49,
6774000,-0.03,-0.01,1.2,-4.64,2.32,-8.0,942.71,21.5,
6774038,-0.03,-0.01,1.19,-4.58,2.26,-7.81,942.66,21.5,
6774076,-0.03,-0.02,1.15,-4.76,2.32,-7.63,942.68,21.5,
6774126,-0.03,-0.01,1.16,-4.82,2.01,-7.57,942.7,21.49,
6774164,-0.03,-0.02,1.15,-4.76,2.62,-7.57,942.68,21.49,
6774203,-0.04,-0.01,1.15,-4.46,1.65,-7.32,942.73,21.49,
6774241,-0.03,-0.02,1.14,-4.64,1.4,-7.32,942.71,21.48,
6774279,-0.04,-0.03,1.09,-4.33,0.43,-7.02,942.68,21.5,
6774317,-0.04,-0.02,1.12,-4.39,-0.12,-6.9,942.64,21.49,
6774356,-0.03,-0.03,1.07,-4.7,-0.18,-6.65,942.67,21.49,
6774394,-0.05,-0.02,1.11,-4.33,-1.22,-6.29,942.64,21.49,
6774432,-0.06,-0.02,1.11,-4.46,-0.73,-6.23,942.62,21.48,
6774482,-0.06,-0.02,1.13,-4.58,-1.53,-5.98,942.65,21.49,
6774520,-0.05,-0.02,1.19,-4.76,-1.53,-6.1,942.64,21.49,
6774559,-0.05,-0.02,1.16,-4.94,-1.16,-5.55,942.63,21.49,
6774597,-0.05,-0.01,1.21,-5.07,-1.16,-5.37,942.66,21.49,
6774635,-0.05,-0.02,1.2,-5.0,-0.24,-5.31,942.69,21.49,
6774673,-0.05,-0.0,1.25,-4.58,-0.61,-4.88,942.74,21.5,
6774712,-0.04,-0.0,1.28,-4.76,-0.31,-4.76,942.73,21.49,
6774750,-0.05,0.01,1.29,-4.82,0.37,-4.7,942.72,21.5,
6774788,-0.05,0.01,1.31,-4.94,0.18,-4.58,942.69,21.5,
6774838,-0.04,0.01,1.35,-5.31,-0.24,-4.33,942.74,21.48,
6774876,-0.04,0.02,1.41,-5.0,-0.18,-4.15,942.69,21.5,
6774915,-0.01,0.01,1.37,-4.88,0.18,-4.21,942.7,21.49,
6774953,-0.03,0.02,1.35,-4.58,-0.49,-4.15,942.68,21.49,
6774991,-0.05,0.02,1.34,-4.46,-0.85,-3.78,942.76,21.49,
6775030,-0.03,0.01,1.32,-3.97,-1.16,-3.66,942.69,21.5,
6775068,-0.04,0.0,1.3,-3.85,-1.71,-3.66,942.8,21.51,
6775106,-0.03,0.01,1.34,-3.36,-2.14,-3.36,942.7,21.49,
6775144,-0.02,0.01,1.32,-3.23,-1.71,-3.54,942.72,21.49,
6775194,-0.02,-0.0,1.3,-2.75,-2.08,-3.3,942.74,21.48,
6775233,-0.03,-0.01,1.24,-2.38,-2.2,-3.3,942.76,21.48,
6775271,-0.03,-0.01,1.22,-2.2,-2.5,-3.36,942.84,21.49,
6775309,-0.03,-0.01,1.23,-1.71,-2.81,-3.3,942.78,21.48,
6775347,-0.02,-0.01,1.22,-1.59,-3.3,-3.05,942.76,21.49,
6775386,-0.02,-0.01,1.21,-1.59,-3.78,-3.17,942.8,21.49,
6775424,-0.02,-0.02,1.22,-1.77,-3.97,-3.23,942.74,21.48,
6775462,-0.02,-0.02,1.26,-1.89,-3.91,-3.23,942.79,21.5,
6775501,-0.02,-0.02,1.23,-1.65,-3.91,-3.17,942.79,21.5,
6775577,-0.02,-0.01,1.22,-1.46,-4.15,-3.36,942.79,21.47,
6775615,-0.01,-0.01,1.26,-1.22,-5.13,-3.23,942.85,21.48,
6775653,-0.01,-0.02,1.23,-1.16,-4.39,-3.54,942.8,21.47,
6775743,-0.0,-0.02,1.2,-0.92,-3.48,-3.54,942.81,21.45,
6775781,-0.0,-0.02,1.18,-0.85,-4.03,-4.03,942.85,21.47,
6775820,-0.01,-0.02,1.2,-1.04,-2.81,-4.15,942.82,21.47,
6775858,-0.01,-0.03,1.18,-0.67,-2.75,-3.97,942.81,21.47,
6775896,-0.0,-0.04,1.17,-0.79,-2.87,-4.15,942.85,21.47,
6775934,-0.01,-0.02,1.14,-0.92,-2.99,-4.33,942.8,21.47,
6775973,-0.01,-0.02,1.19,-0.67,-2.75,-4.33,942.8,21.48,
6776023,-0.01,-0.02,1.17,-0.92,-1.95,-4.58,942.85,21.46,
6776061,-0.02,-0.03,1.18,-1.1,-2.01,-4.58,942.83,21.46,
6776099,-0.02,-0.03,1.18,-1.1,-1.71,-4.64,942.88,21.47,
6776137,-0.01,-0.03,1.16,-1.34,-1.22,-4.7,942.88,21.48,
6776176,-0.01,-0.03,1.15,-1.22,-1.34,-4.76,942.77,21.48,
6776214,-0.01,-0.04,1.12,-1.28,-1.34,-4.76,942.88,21.48,
6776252,-0.03,-0.04,1.12,-1.28,-1.46,-4.88,942.86,21.48,
6776290,-0.0,-0.03,1.14,-1.34,-1.65,-4.94,942.83,21.49,
6776329,0.03,-0.03,1.17,-1.4,-2.56,-5.13,942.89,21.49,
6776379,-0.02,-0.03,1.14,-1.53,-2.56,-5.07,942.9,21.46,
6776417,-0.02,-0.02,1.21,-1.77,-2.01,-5.19,942.81,21.48,
6776455,-0.01,-0.03,1.22,-1.95,-1.22,-5.37,942.88,21.49,
6776493,-0.03,-0.03,1.24,-1.59,-1.89,-5.43,942.92,21.49,
6776532,-0.03,-0.01,1.25,-1.59,-1.22,-5.37,942.9,21.48,
6776570,-0.03,-0.02,1.22,-1.4,-0.49,-5.25,942.86,21.5,
6776608,-0.02,-0.01,1.24,-1.28,-0.06,-5.37,942.87,21.49,
6776647,-0.04,-0.01,1.25,-1.22,-0.24,-5.37,942.88,21.49,
6776685,-0.05,-0.02,1.24,-1.28,0.92,-5.31,942.89,21.49,
6776735,-0.04,-0.02,1.24,-1.1,1.71,-5.37,942.88,21.48,
6776773,-0.03,-0.01,1.25,-1.16,2.01,-5.19,942.87,21.49,
6776811,-0.04,-0.01,1.23,-1.1,2.2,-5.25,942.9,21.49,
6776849,-0.04,-0.0,1.24,-0.98,1.53,-4.88,942.84,21.5,
6776888,-0.05,-0.01,1.24,-0.92,1.53,-4.46,942.83,21.49,
6776926,-0.04,-0.01,1.21,-0.61,0.73,-4.52,942.83,21.49,
6776964,-0.04,-0.01,1.23,-0.18,0.49,-4.39,942.86,21.5,
6777002,-0.04,-0.01,1.2,-0.06,0.55,-4.03,942.8,21.5,
6777041,-0.04,-0.02,1.21,0.37,-0.55,-3.78,942.84,21.5,
6777091,-0.05,-0.02,1.18,0.73,-0.85,-3.54,942.87,21.49,
6777129,-0.05,-0.02,1.21,1.16,-1.28,-3.3,942.82,21.5,
6777167,-0.04,-0.03,1.15,0.98,-1.65,-3.3,942.81,21.49,
6777205,-0.05,-0.03,1.15,1.28,-2.08,-2.99,942.81,21.49,
6777244,-0.04,-0.0,1.14,1.34,-2.69,-2.62,942.82,21.5,
6777282,-0.05,-0.02,1.13,1.83,-3.6,-2.38,942.82,21.5,
6777320,-0.06,-0.04,1.08,1.83,-3.66,-2.26,942.84,21.5,
6777359,-0.04,-0.04,1.08,1.83,-4.21,-2.2,942.76,21.49,
6777397,-0.04,-0.05,1.05,2.2,-3.97,-2.08,942.77,21.49,
6777435,-0.04,-0.04,1.01,1.89,-3.66,-1.89,942.76,21.5,
6777485,-0.04,-0.04,1.01,1.95,-3.91,-1.89,942.77,21.49,
6777523,-0.04,-0.05,1.01,1.89,-4.09,-1.77,942.8,21.49,
6777561,-0.04,-0.05,1.04,2.26,-4.58,-1.65,942.76,21.49,
6777600,-0.05,-0.05,1.0,1.89,-4.7,-1.53,942.81,21.49,
6777638,-0.04,-0.04,1.08,2.38,-4.7,-1.59,942.77,21.5,
6777676,-0.02,-0.05,1.02,2.08,-4.21,-1.46,942.84,21.5,
6777714,-0.05,-0.05,1.07,2.38,-5.86,-1.46,942.85,21.5,
6777753,-0.05,-0.06,1.03,2.2,-4.64,-1.22,942.74,21.5,
6777791,-0.03,-0.04,1.02,2.2,-5.19,-1.4,942.77,21.49,
6777841,-0.04,-0.04,1.0,2.2,-5.25,-1.04,942.79,21.48,
6777879,-0.06,-0.07,0.99,2.38,-5.62,-0.98,942.75,21.49,
6777917,-0.05,-0.06,0.99,1.95,-4.76,-0.79,942.79,21.5,
6777956,-0.03,-0.06,0.97,1.83,-4.7,-0.98,942.77,21.5,
6777994,-0.03,-0.04,0.95,1.65,-4.94,-0.61,942.77,21.5,
6778032,-0.05,-0.05,0.9,1.34,-4.39,-0.61,942.8,21.5,
6778070,-0.05,-0.06,0.92,1.95,-4.33,-0.49,942.77,21.51,
6778109,-0.02,-0.05,0.88,1.46,-4.64,-0.43,942.75,21.51,
6778147,-0.03,-0.03,0.9,1.65,-5.37,-0.37,942.73,21.5,
6778197,-0.03,-0.05,0.91,1.53,-4.39,-0.12,942.72,21.48,
6778235,-0.04,-0.05,0.99,1.46,-5.31,-0.31,942.77,21.49,
6778273,-0.04,-0.06,0.98,1.22,-5.25,0.0,942.75,21.5,
6778312,-0.04,-0.04,1.02,1.22,-5.55,0.12,942.75,21.51,
6778350,-0.03,-0.03,0.97,1.22,-3.72,0.0,942.85,21.5,
6778388,-0.01,-0.03,1.0,1.1,-4.58,0.0,942.76,21.51,
6778426,-0.01,-0.05,1.0,1.28,-3.91,0.0,942.78,21.5,
6778464,-0.03,-0.05,1.01,0.98,-3.72,0.12,942.77,21.51,
6778503,-0.02,-0.05,1.04,1.1,-3.54,0.18,942.74,21.5,
6778541,-0.02,-0.02,1.02,1.16,-4.09,0.12,942.77,21.51,
6778617,-0.01,-0.03,1.06,1.16,-4.09,0.18,942.83,21.48,
6778655,-0.01,-0.03,1.14,1.53,-4.46,0.12,942.79,21.48,
6778693,-0.0,-0.03,1.11,1.4,-3.48,0.0,942.77,21.48,
6778783,0.0,-0.04,1.07,2.01,-2.99,-0.06,942.84,21.46,
6778821,0.01,-0.03,1.09,2.5,-3.72,-0.31,942.91,21.47,
6778859,-0.0,-0.03,1.03,2.44,-3.05,-0.24,942.85,21.48,
6778898,0.01,-0.02,1.0,2.69,-2.5,-0.37,942.92,21.48,
6778936,0.01,-0.04,1.03,3.3,-2.2,-0.61,942.85,21.48,
6778974,0.02,-0.04,0.96,3.48,-2.01,-0.79,942.85,21.48,
6779024,0.0,-0.04,1.0,4.15,-1.89,-0.92,942.89,21.47,
6779062,0.03,-0.05,0.93,3.91,-1.16,-1.16,942.9,21.48,
6779101,0.03,-0.04,0.99,4.27,-1.95,-1.4,942.83,21.48,
6779139,0.02,-0.04,0.91,4.09,-1.28,-1.34,942.88,21.48,
6779177,0.01,-0.05,0.89,4.21,-1.95,-1.53,942.82,21.49,
6779215,0.0,-0.04,0.89,4.21,-1.34,-1.65,942.85,21.48,
6779254,0.01,-0.05,0.83,3.78,-1.34,-1.77,942.83,21.49,
6779292,0.01,-0.04,0.89,4.03,-2.62,-1.95,942.84,21.49,
6779330,0.01,-0.06,0.8,3.3,-1.1,-2.08,942.91,21.5,
6779368,0.02,-0.04,0.84,2.81,-1.77,-2.14,942.77,21.49,
6779418,0.01,-0.06,0.78,2.32,0.37,-2.01,942.8,21.47,
6779457,-0.02,-0.05,0.78,2.08,-0.06,-2.32,942.9,21.48,
6779495,0.02,-0.04,0.84,2.5,0.55,-2.5,942.85,21.48,
6779533,0.01,-0.05,0.78,1.4,1.53,-2.75,942.84,21.5,
6779571,0.0,-0.04,0.84,1.71,1.16,-2.44,942.85,21.49,
6779610,0.0,-0.05,0.86,1.34,2.62,-2.69,942.88,21.49,
6779648,0.01,-0.04,0.92,1.16,2.5,-2.81,942.86,21.49,
6779686,-0.01,-0.05,0.91,1.04,3.48,-2.69,942.9,21.49,
6779724,-0.02,-0.04,0.92,1.04,3.91,-2.87,942.89,21.5,
6779774,-0.0,-0.04,0.93,1.04,5.13,-2.81,942.89,21.48,
6779813,0.0,-0.04,0.96,1.1,4.76,-2.87,942.9,21.5,
6779851,-0.03,-0.04,0.97,1.16,4.52,-2.62,942.98,21.49,
6779889,-0.02,-0.04,0.98,1.16,5.8,-2.75,942.95,21.5,
6779927,-0.01,-0.05,0.98,1.4,6.1,-2.56,942.97,21.5,
6779966,-0.03,-0.04,0.98,1.46,5.74,-2.69,942.91,21.48,
6780004,-0.02,-0.04,0.98,1.59,5.25,-2.32,942.95,21.5,
6780042,-0.01,-0.05,0.95,1.46,5.86,-2.32,942.93,21.49,
6780080,-0.02,-0.03,0.94,1.46,5.13,-2.2,942.91,21.5,
6780119,-0.03,-0.04,0.92,1.34,5.43,-1.83,942.93,21.5,
6780169,-0.02,-0.04,0.98,1.34,4.88,-1.89,942.94,21.49,
6780207,-0.02,-0.05,0.99,0.98,5.43,-1.53,942.92,21.49,
6780245,-0.01,-0.04,1.0,1.22,4.15,-1.4,942.93,21.5,
6780283,-0.02,-0.04,0.96,1.04,3.97,-1.22,942.95,21.49,
6780322,-0.02,-0.04,0.97,1.46,3.3,-1.04,942.97,21.49,
6780360,-0.03,-0.04,0.95,1.34,4.46,-1.04,942.97,21.5,
6780398,-0.01,-0.04,1.0,1.46,3.78,-0.92,942.97,21.49,
6780436,-0.01,-0.04,1.07,1.77,3.97,-0.92,942.97,21.49,
6780475,-0.03,-0.03,1.06,0.98,4.39,-0.79,942.96,21.5,
6780525,0.03,-0.02,1.19,1.28,4.21,-0.79,942.99,21.49,
6780563,-0.0,-0.03,1.13,0.43,4.15,-0.98,942.96,21.49,
6780601,-0.02,-0.04,1.17,0.31,4.09,-0.67,942.97,21.49,
6780639,0.01,-0.04,1.17,0.49,5.07,-0.79,942.97,21.5,
6780678,-0.02,-0.02,1.15,0.98,4.09,-0.85,942.97,21.5,
6780716,-0.02,-0.02,1.11,1.04,3.91,-0.67,942.97,21.5,
6780754,0.0,-0.04,1.07,0.98,4.15,-0.92,942.99,21.5,
6780792,0.0,-0.04,1.09,0.92,3.3,-0.85,942.98,21.5,
6780831,-0.02,-0.04,1.05,0.92,3.66,-0.73,943.0,21.49,
6780869,-0.02,-0.04,1.07,0.92,3.85,-0.61,943.01,21.5,
6780919,0.0,-0.04,1.09,0.79,4.82,-1.04,943.06,21.49,
6780957,-0.01,-0.04,1.09,0.98,4.88,-1.1,942.98,21.49,
6780995,-0.0,-0.05,1.09,0.98,5.37,-0.67,943.01,21.5,
6781034,0.0,-0.04,1.07,0.67,5.25,-0.98,943.01,21.5,
6781072,0.0,-0.04,1.08,0.55,5.68,-0.92,943.01,21.5,
6781110,-0.01,-0.05,1.04,0.37,5.98,-0.92,942.89,21.49,
6781148,0.0,-0.04,1.14,0.55,5.55,-1.1,942.96,21.5,
6781187,0.01,-0.05,1.12,0.31,6.65,-1.04,942.94,21.5,
6781225,-0.0,-0.03,1.18,0.49,5.68,-1.16,942.92,21.5,
6781275,-0.01,-0.04,1.14,0.37,6.29,-1.1,943.0,21.49,
6781313,0.01,-0.04,1.17,0.67,5.43,-1.04,942.93,21.49,
6781351,0.01,-0.05,1.18,0.67,4.94,-0.92,942.97,21.5,
6781390,-0.01,-0.05,1.18,0.92,4.39,-1.1,942.93,21.5,
6781428,-0.01,-0.05,1.18,0.79,5.43,-1.04,942.97,21.5,
6781466,-0.0,-0.04,1.17,0.73,5.19,-1.16,942.98,21.51,
6781504,-0.02,-0.03,1.13,0.67,4.76,-1.16,942.87,21.5,
6781543,0.0,-0.05,1.1,0.61,5.74,-1.16,942.94,21.5,
6781581,0.01,-0.06,1.14,0.85,6.16,-1.34,942.91,21.5,
6781619,-0.0,-0.06,1.07,0.55,5.98,-1.16,942.89,21.49,
6781697,0.02,-0.04,1.08,0.73,6.16,-1.46,942.9,21.48,
6781735,0.01,-0.04,1.11,0.98,5.25,-1.28,942.9,21.49,
6781773,-0.0,-0.06,1.09,0.73,5.55,-1.4,942.87,21.5,
6781863,0.03,-0.05,1.13,0.73,4.88,-1.4,942.85,21.46,
6781901,0.01,-0.04,1.11,0.61,4.94,-1.46,942.83,21.46,
6781939,-0.0,-0.06,1.06,0.37,5.8,-1.65,942.86,21.46,
6781977,0.01,-0.06,1.11,0.67,5.86,-1.53,942.89,21.48,
6782016,0.04,-0.06,1.13,0.85,6.53,-1.83,942.83,21.48,
6782054,0.03,-0.06,1.05,1.16,6.71,-2.08,942.84,21.49,
6782104,0.01,-0.05,1.0,0.98,6.84,-2.14,942.82,21.47,
6782142,0.01,-0.08,0.91,1.65,8.61,-2.38,942.85,21.48,
6782180,0.03,-0.07,0.85,1.59,8.18,-2.75,942.8,21.48,
6782219,0.03,-0.04,0.99,2.69,8.06,-2.75,942.79,21.49,
6782257,0.03,-0.08,0.89,1.95,9.03,-2.87,942.82,21.5,
6782295,0.04,-0.05,1.02,2.08,7.26,-3.05,942.76,21.49,
6782333,0.02,-0.08,1.0,1.34,7.75,-3.23,942.76,21.5,
6782372,0.02,-0.06,1.0,0.37,6.65,-3.42,942.76,21.5,
6782410,-0.0,-0.05,1.03,0.43,6.29,-3.54,942.76,21.5,
6782448,0.01,-0.05,1.04,0.12,6.53,-3.48,942.74,21.49,
6782498,-0.01,-0.06,1.05,0.31,6.47,-3.54,942.79,21.49,
6782536,0.02,-0.06,1.09,0.43,7.51,-3.6,942.76,21.49,
6782575,-0.0,-0.05,1.11,0.73,8.24,-3.85,942.76,21.5,
6782613,-0.01,-0.05,1.11,0.67,9.22,-3.66,942.76,21.49,
6782651,-0.01,-0.05,1.17,1.53,8.42,-3.54,942.77,21.49,
6782689,-0.02,-0.07,1.09,1.34,11.54,-3.78,942.74,21.5,
6782728,-0.02,-0.06,1.03,1.53,11.23,-3.54,942.77,21.5,
6782766,-0.01,-0.05,1.02,1.59,11.9,-3.54,942.76,21.51,
6782804,0.01,-0.05,0.98,1.34,12.15,-3.54,942.74,21.5,
6782854,0.0,-0.06,1.02,1.59,11.54,-3.3,942.7,21.48,
6782892,0.01,-0.06,1.01,1.16,11.78,-3.3,942.74,21.49,
6782931,0.01,-0.06,1.07,1.28,10.07,-3.23,942.69,21.5,
6782969,-0.0,-0.06,1.07,0.98,8.67,-2.93,942.73,21.49,
6783007,0.0,-0.06,1.09,0.67,7.14,-3.17,942.7,21.49,
6783045,-0.02,-0.05,1.05,-0.06,6.47,-2.93,942.72,21.51,
6783084,-0.0,-0.05,1.11,0.06,4.7,-2.75,942.68,21.5,
6783122,-0.01,-0.05,1.12,-0.31,4.64,-2.56,942.72,21.51,
6783160,-0.02,-0.07,1.05,-0.31,4.15,-2.69,942.72,21.5,
6783198,-0.03,-0.06,1.07,-0.18,3.66,-2.44,942.68,21.5,
6783248,-0.02,-0.06,1.01,-0.18,3.78,-2.5,942.71,21.48,
6783287,-0.02,-0.06,1.0,-0.06,3.36,-2.5,942.68,21.49,
6783325,-0.03,-0.06,0.98,-0.18,4.09,-2.32,942.64,21.5,
6783363,-0.01,-0.07,0.95,-0.31,4.33,-2.38,942.66,21.5,
6783401,-0.02,-0.06,0.95,-0.67,5.31,-2.44,942.7,21.5,
6783440,-0.0,-0.06,0.95,-0.79,6.71,-2.26,942.61,21.51,
6783478,-0.01,-0.07,0.94,-1.04,7.51,-2.44,942.64,21.5,
6783516,-0.01,-0.06,0.97,-1.1,8.18,-2.44,942.62,21.51,
6783554,0.0,-0.06,0.98,-1.1,8.85,-2.38,942.63,21.52,
6783604,0.0,-0.06,0.98,-1.28,9.64,-2.38,942.6,21.49,
6783643,0.01,-0.05,1.01,-1.22,10.01,-2.5,942.58,21.5,
6783681,0.02,-0.06,1.01,-1.22,10.68,-2.56,942.52,21.51,
6783719,0.02,-0.06,1.01,-1.4,10.93,-2.56,942.54,21.5,
6783757,0.03,-0.05,1.04,-1.22,10.44,-2.75,942.59,21.5,
6783796,0.02,-0.05,1.02,-1.46,10.19,-3.05,942.51,21.5,
6783834,0.02,-0.06,1.04,-1.34,9.77,-2.87,942.55,21.5,
6783872,0.03,-0.06,1.06,-1.46,9.4,-2.75,942.51,21.51,
6783910,0.06,-0.05,1.08,-1.28,8.36,-3.11,942.49,21.5,
6783949,0.03,-0.05,1.1,-1.34,7.87,-3.23,942.49,21.5,
6783999,0.03,-0.06,1.11,-1.34,7.57,-3.36,942.45,21.5,
6784037,0.03,-0.06,1.13,-1.53,6.77,-3.42,942.46,21.49,
6784075,0.02,-0.06,1.12,-1.65,6.16,-3.36,942.38,21.5,
6784113,0.04,-0.06,1.1,-1.53,6.53,-3.72,942.45,21.5,
6784152,0.04,-0.05,1.09,-1.34,6.29,-3.85,942.43,21.5,
6784190,0.01,-0.05,1.05,-1.1,6.23,-3.97,942.42,21.51,
6784228,0.02,-0.06,1.02,-1.22,6.71,-4.21,942.42,21.5,
6784266,0.04,-0.05,1.07,-1.28,6.84,-4.33,942.37,21.5,
6784305,0.03,-0.06,1.07,-1.34,7.2,-4.39,942.44,21.5,
6784355,0.02,-0.05,1.07,-1.34,7.02,-4.64,942.39,21.5,
6784393,0.02,-0.05,1.08,-1.59,8.24,-4.94,942.38,21.5,
6784431,0.03,-0.05,1.09,-1.46,7.81,-5.13,942.37,21.5,
6784469,0.02,-0.05,1.11,-1.4,8.79,-5.25,942.4,21.51,
6784507,0.03,-0.04,1.08,-1.34,9.83,-5.55,942.35,21.51,
6784546,0.03,-0.04,1.11,-1.1,9.83,-5.55,942.31,21.52,
6784584,0.01,-0.06,1.05,-1.4,9.64,-5.68,942.35,21.51,
6784622,0.02,-0.05,1.07,-1.4,9.52,-5.86,942.33,21.51,
6784660,0.02,-0.04,1.09,-1.46,10.07,-5.86,942.39,21.52,
6784699,0.03,-0.05,1.08,-1.65,10.01,-6.04,942.34,21.52,
6784775,0.02,-0.04,1.13,-1.77,10.99,-6.16,942.33,21.48,
6784813,0.02,-0.05,1.14,-2.01,10.5,-6.23,942.39,21.5,
6784851,0.02,-0.04,1.11,-2.81,10.01,-6.41,942.32,21.51,
6784941,0.03,-0.04,1.13,-3.42,9.83,-6.35,942.3,21.47,
6784979,0.01,-0.02,1.21,-3.42,8.12,-6.47,942.29,21.47,
6785017,0.01,-0.03,1.22,-3.78,8.36,-6.29,942.26,21.48,
6785056,0.01,-0.02,1.24,-4.15,7.39,-6.35,942.23,21.48,
6785094,0.02,-0.02,1.29,-4.64,7.02,-6.53,942.18,21.5,
6785132,0.02,-0.02,1.28,-5.31,6.35,-6.47,942.22,21.49,
6785182,0.01,-0.01,1.36,-5.49,6.16,-6.53,942.23,21.49,
6785220,0.02,-0.01,1.35,-5.37,6.04,-6.77,942.22,21.48,
6785259,0.01,-0.01,1.33,-5.31,5.98,-6.71,942.23,21.49,
6785297,0.02,-0.0,1.35,-5.19,5.8,-6.96,942.18,21.5,
6785335,0.01,0.0,1.36,-5.25,5.74,-6.96,942.17,21.49,
6785373,0.02,-0.01,1.33,-5.43,5.62,-7.14,942.15,21.49,
6785412,0.01,-0.02,1.33,-5.8,5.86,-7.2,942.18,21.5,
6785450,0.01,-0.01,1.32,-5.74,6.29,-7.26,942.19,21.5,
6785488,0.01,-0.01,1.3,-5.98,6.1,-7.2,942.24,21.5,
6785538,0.0,-0.01,1.31,-5.62,6.35,-7.57,942.21,21.49,
6785576,0.0,-0.02,1.24,-5.68,7.02,-7.57,942.15,21.5,
6785615,0.01,-0.02,1.25,-5.37,6.84,-7.69,942.11,21.49,
6785653,0.0,-0.02,1.2,-5.43,7.26,-7.75,942.17,21.49,
6785691,0.01,-0.02,1.21,-5.62,7.26,-8.0,942.14,21.49,
6785730,0.02,-0.03,1.21,-5.68,7.14,-7.87,942.17,21.5,
6785768,0.01,-0.03,1.18,-5.68,6.84,-7.93,942.14,21.5,
6785806,0.01,-0.03,1.15,-5.98,6.96,-7.93,942.07,21.49,
6785844,0.02,-0.01,1.17,-5.98,6.47,-8.18,942.13,21.51,
6785882,0.01,-0.03,1.15,-6.23,6.23,-8.0,942.08,21.5,
6785932,0.0,-0.03,1.12,-6.47,6.29,-8.18,942.11,21.5,
6785971,0.01,-0.02,1.13,-6.47,6.84,-8.3,942.04,21.5,
6786009,0.01,-0.03,1.12,-6.65,7.32,-8.24,942.04,21.51,
6786047,0.0,-0.04,1.12,-6.77,7.81,-8.3,942.0,21.5,
6786085,0.03,-0.03,1.15,-6.65,8.48,-8.36,942.02,21.5,
6786124,0.02,-0.02,1.16,-6.59,7.81,-8.42,941.99,21.51,
6786162,0.0,-0.02,1.16,-6.77,7.45,-8.06,941.99,21.5,
6786200,0.01,-0.01,1.16,-7.08,7.87,-8.24,941.95,21.5,
6786238,0.04,-0.01,1.21,-7.2,7.02,-8.06,942.0,21.52,
6786288,0.01,-0.02,1.21,-7.51,5.49,-7.93,941.94,21.5,
6786327,0.01,-0.01,1.23,-7.75,5.8,-7.93,941.97,21.5,
6786365,0.03,-0.0,1.26,-7.87,5.86,-7.87,941.94,21.5,
6786403,0.01,-0.01,1.23,-7.75,5.0,-7.81,941.91,21.5,
6786441,-0.0,-0.01,1.23,-7.57,4.39,-7.75,941.94,21.52,
6786480,0.02,-0.0,1.28,-7.45,4.7,-8.06,941.85,21.5,
6786518,0.02,0.0,1.3,-7.32,5.13,-7.93,941.85,21.51,
6786556,0.02,0.01,1.31,-6.9,4.58,-8.06,941.84,21.51,
6786594,0.02,0.01,1.32,-6.84,4.82,-8.3,941.88,21.52,
6786633,0.03,0.0,1.29,-6.65,4.94,-8.42,941.84,21.52,
6786683,0.02,0.02,1.31,-6.35,5.62,-8.73,941.82,21.5,
6786721,0.03,0.03,1.32,-5.68,4.39,-8.73,941.79,21.51,
6786759,-0.0,0.02,1.26,-5.92,4.03,-8.48,941.82,21.52,
6786797,0.02,0.02,1.3,-5.68,2.87,-8.54,941.76,21.5,
6786836,0.03,0.0,1.29,-5.8,3.17,-8.54,941.79,21.52,
6786874,0.01,0.01,1.23,-5.98,2.2,-8.61,941.75,21.51,
6786912,-0.0,0.02,1.24,-5.74,3.3,-8.61,941.77,21.53,
6786950,0.01,-0.01,1.1,-6.16,5.68,-9.28,941.73,21.52,
6786989,0.02,-0.01,1.15,-5.62,5.07,-9.28,941.8,21.51,
6787027,-0.0,-0.02,1.09,-5.86,6.23,-9.52,941.75,21.53,
6787077,0.01,0.01,1.15,-5.74,7.87,-9.95,941.79,21.52,
6787115,0.02,0.01,1.19,-5.86,9.03,-10.07,941.67,21.5,
6787153,-0.01,-0.0,1.18,-5.86,8.24,-9.95,941.76,21.51,
6787192,-0.03,0.0,1.2,-5.74,9.64,-9.95,941.73,21.52,
6787230,0.01,0.02,1.21,-5.86,10.74,-10.13,941.73,21.52,
6787268,0.01,0.02,1.23,-5.74,10.25,-9.89,941.74,21.52,
6787307,-0.01,0.02,1.22,-5.8,10.86,-9.7,941.71,21.51,
6787345,-0.01,0.02,1.22,-5.62,13.0,-9.58,941.65,21.51,
6787383,0.0,0.03,1.26,-5.25,13.49,-9.58,941.66,21.52,
6787433,-0.01,0.03,1.25,-5.31,13.73,-9.22,941.62,21.5,
6787471,-0.02,0.02,1.21,-5.37,14.22,-8.85,941.68,21.51,
6787509,-0.0,0.02,1.21,-5.07,14.83,-8.67,941.65,21.52,
6787548,0.02,0.03,1.2,-5.07,13.92,-8.06,941.64,21.52,
6787586,0.01,0.03,1.19,-5.07,12.33,-7.75,941.61,21.51,
6787624,0.01,0.01,1.18,-4.88,11.54,-7.32,941.65,21.53,
6787662,0.02,-0.0,1.17,-4.64,10.5,-7.26,941.59,21.51,
6787701,0.01,0.0,1.13,-4.88,9.16,-7.08,941.61,21.52,
6787739,0.01,0.0,1.13,-4.76,7.81,-6.9,941.56,21.52,
6787815,0.02,-0.01,1.05,-5.0,6.53,-6.84,941.56,21.5,
6787853,0.03,-0.02,1.04,-5.31,5.31,-6.77,941.48,21.49,
6787891,0.02,-0.02,1.0,-5.68,4.94,-7.08,941.51,21.5,
6787981,0.01,-0.03,1.04,-6.1,3.54,-7.39,941.5,21.47,
6788020,0.01,-0.02,1.06,-6.16,3.72,-7.75,941.46,21.49,
6788058,0.02,-0.01,1.1,-6.23,3.66,-7.93,941.51,21.49,
6788096,0.03,-0.01,1.08,-6.71,3.66,-7.87,941.47,21.49,
6788134,0.0,-0.01,1.08,-6.59,2.5,-8.18,941.47,21.49,
6788173,-0.01,-0.01,1.08,-6.9,2.99,-8.36,941.47,21.5,
6788211,0.01,-0.01,1.09,-6.9,2.69,-8.36,941.54,21.51,
6788261,0.01,-0.01,1.11,-7.14,2.62,-8.67,941.52,21.5,
6788299,-0.01,-0.02,1.08,-7.14,1.89,-8.67,941.49,21.51,
6788337,-0.0,-0.0,1.12,-7.45,1.59,-8.67,941.44,21.5,
6788376,0.01,-0.0,1.11,-7.69,1.46,-8.67,941.51,21.5,
6788414,-0.0,0.0,1.12,-7.93,0.61,-8.42,941.43,21.5,
6788452,-0.01,-0.0,1.15,-8.12,0.98,-8.61,941.5,21.51,
6788490,-0.01,-0.0,1.15,-8.3,0.85,-8.48,941.44,21.51,
6788529,-0.01,0.01,1.2,-8.42,0.18,-8.67,941.45,21.52,
6788567,-0.02,0.01,1.19,-8.54,0.49,-8.61,941.43,21.5,
6788617,-0.02,0.01,1.23,-8.61,0.79,-8.67,941.42,21.5,
6788655,-0.01,-0.0,1.19,-8.61,1.77,-8.67,941.43,21.51,
6788693,-0.02,0.01,1.21,-8.54,0.98,-8.54,941.44,21.51,
6788732,-0.04,0.02,1.2,-8.48,1.77,-8.61,941.44,21.52,
6788770,-0.01,0.01,1.2,-8.42,2.14,-8.54,941.46,21.53,
6788808,-0.01,0.02,1.24,-8.36,2.01,-8.61,941.42,21.51,
6788846,-0.03,0.02,1.24,-8.36,1.77,-8.42,941.4,21.52,
6788885,-0.04,0.02,1.25,-8.42,2.5,-8.3,941.45,21.53,
6788923,-0.02,0.01,1.24,-8.91,3.3,-8.24,941.43,21.52,
6788961,-0.02,0.03,1.29,-8.36,2.56,-8.24,941.44,21.51,
6789011,-0.03,0.02,1.22,-8.54,3.17,-7.93,941.47,21.5,
6789049,-0.01,0.04,1.28,-8.12,2.5,-8.06,941.43,21.51,
6789088,-0.01,0.02,1.26,-8.0,2.56,-7.87,941.4,21.52,
6789126,-0.03,0.01,1.23,-7.87,1.95,-7.57,941.42,21.51,
6789164,-0.03,0.01,1.25,-7.57,1.95,-7.51,941.41,21.52,
6789203,-0.03,0.02,1.23,-7.45,2.2,-7.51,941.48,21.52,
6789241,-0.01,0.01,1.22,-7.2,1.77,-7.45,941.48,21.52,
6789279,-0.02,0.02,1.24,-6.96,2.38,-7.39,941.43,21.52,
6789317,-0.02,0.01,1.22,-6.9,3.3,-7.57,941.46,21.52,
6789367,-0.01,0.02,1.21,-7.2,3.66,-7.39,941.44,21.51,
6789405,-0.02,0.02,1.23,-6.96,3.17,-7.26,941.5,21.52,
6789444,-0.02,0.0,1.19,-7.02,3.78,-7.26,941.56,21.52,
6789482,-0.02,0.01,1.18,-7.32,3.6,-7.32,941.47,21.53,
6789520,-0.0,0.01,1.2,-7.45,3.72,-6.96,941.43,21.51,
6789558,-0.0,0.02,1.17,-7.39,2.62,-6.71,941.47,21.52,
6789597,-0.01,0.02,1.2,-7.87,2.2,-7.02,941.43,21.52,
6789635,-0.01,0.01,1.17,-8.0,2.62,-6.71,941.41,21.53,
6789673,0.01,0.02,1.22,-8.42,1.59,-6.84,941.45,21.51,
6789712,-0.0,0.03,1.24,-8.79,0.85,-6.71,941.41,21.53,
6789761,-0.01,0.03,1.27,-8.73,0.73,-6.9,941.39,21.52,
6789800,0.01,0.04,1.29,-8.91,0.37,-7.14,941.47,21.5,
6789838,0.03,0.03,1.29,-8.91,-0.43,-6.96,941.41,21.52,
6789876,0.01,0.03,1.3,-8.79,0.0,-7.14,941.45,21.51,
6789914,0.01,0.03,1.3,-8.36,0.12,-7.26,941.43,21.51,
6789953,0.01,0.02,1.31,-7.81,0.0,-7.45,941.48,21.51,
6789991,-0.0,0.03,1.26,-7.51,-0.24,-7.93,941.54,21.52,
6790029,-0.0,0.04,1.31,-7.14,-0.06,-7.81,941.52,21.53,
6790067,0.03,0.03,1.28,-6.96,0.49,-8.12,941.52,21.52,
6790117,-0.01,0.03,1.3,-6.84,-0.43,-8.12,941.5,21.51,
6790156,0.0,0.02,1.28,-6.9,0.43,-8.42,941.51,21.52,
6790194,0.01,0.04,1.3,-6.84,0.31,-8.54,941.51,21.52,
6790232,0.02,0.04,1.34,-6.71,0.49,-8.79,941.57,21.52,
6790270,0.0,0.02,1.23,-6.65,0.67,-8.85,941.51,21.52,
6790309,0.02,0.03,1.27,-6.29,0.55,-9.22,941.52,21.52,
6790347,0.03,0.02,1.25,-6.47,1.04,-9.34,941.5,21.53,
6790385,0.02,0.04,1.22,-6.59,0.55,-9.52,941.52,21.53,
6790424,0.01,0.03,1.24,-6.59,1.22,-9.83,941.52,21.52,
6790462,0.02,0.01,1.21,-6.65,2.26,-10.25,941.54,21.52,
6790512,0.03,0.01,1.24,-6.47,2.2,-10.56,941.54,21.5,
6790550,0.03,0.01,1.19,-6.59,3.23,-11.17,941.58,21.53,
6790588,0.03,0.01,1.2,-6.47,3.48,-11.41,941.59,21.51,
6790627,0.04,0.01,1.2,-6.41,3.36,-11.66,941.61,21.52,
6790665,0.03,0.01,1.21,-5.98,2.75,-12.08,941.65,21.5,
6790703,0.01,0.0,1.19,-5.86,2.81,-12.21,941.65,21.52,
6790742,0.01,-0.0,1.13,-6.04,2.99,-12.33,941.7,21.53,
6790780,0.01,0.01,1.12,-6.29,1.77,-12.7,941.74,21.53,
6790818,0.01,0.01,1.08,-6.59,1.95,-12.7,941.7,21.52,
6790894,0.0,-0.0,1.06,-7.14,2.69,-13.0,941.8,21.5,
6790932,0.01,0.0,1.1,-7.75,1.53,-13.0,941.7,21.5,
6790971,-0.01,0.0,1.1,-8.3,1.28,-13.06,941.71,21.5,
6791061,-0.02,0.01,1.18,-8.42,1.16,-12.76,941.74,21.48,
6791099,-0.03,0.02,1.22,-8.67,0.31,-12.7,941.74,21.48,
6791137,-0.03,0.02,1.23,-8.91,1.22,-12.63,941.7,21.49,
6791175,-0.02,0.02,1.26,-8.67,0.61,-12.45,941.75,21.5,
6791214,-0.02,0.03,1.28,-8.91,0.79,-12.21,941.68,21.5,
6791252,-0.02,0.05,1.28,-9.09,0.67,-12.08,941.77,21.51,
6791290,-0.04,0.05,1.32,-8.85,1.59,-11.96,941.79,21.5,
6791340,-0.03,0.03,1.32,-9.16,1.16,-11.66,941.78,21.5,
6791378,-0.02,0.05,1.41,-8.91,0.85,-11.72,941.77,21.49,
6791417,-0.04,0.04,1.39,-8.61,1.59,-11.66,941.84,21.52,
6791455,-0.03,0.07,1.46,-8.48,1.16,-11.41,941.87,21.52,
6791493,-0.01,0.05,1.48,-8.3,1.89,-11.23,941.8,21.51,
6791532,-0.03,0.06,1.46,-8.36,1.53,-11.23,941.84,21.5,
6791570,-0.05,0.07,1.5,-8.06,1.28,-11.05,941.81,21.52,
6791608,-0.03,0.06,1.47,-8.18,2.56,-10.86,941.83,21.52,
6791646,-0.04,0.06,1.49,-7.93,1.16,-10.31,941.82,21.51,
6791696,-0.04,0.06,1.46,-7.63,0.61,-10.07,941.89,21.52,
6791735,-0.05,0.07,1.49,-7.57,0.12,-9.64,941.84,21.52,
6791773,-0.01,0.05,1.49,-7.39,0.37,-9.34,941.93,21.52,
6791811,-0.04,0.05,1.47,-7.14,-0.73,-9.16,941.86,21.5,
6791850,-0.05,0.04,1.45,-6.84,-0.06,-8.97,941.91,21.5,
6791888,-0.01,0.03,1.41,-6.84,-1.04,-8.61,941.91,21.52,
6791926,-0.03,0.03,1.4,-6.71,-1.89,-8.48,941.98,21.53,
6791964,-0.04,0.04,1.35,-6.96,-2.5,-8.3,941.95,21.51,
6792002,-0.03,0.04,1.39,-6.77,-3.54,-8.12,941.91,21.52,
6792052,-0.02,0.02,1.4,-6.96,-5.25,-7.63,941.96,21.5,
6792091,-0.04,0.03,1.44,-6.96,-6.23,-7.57,941.98,21.52,
6792129,-0.02,0.03,1.44,-6.9,-6.04,-7.45,942.0,21.53,
6792167,-0.02,0.02,1.41,-6.96,-6.29,-7.63,942.03,21.53,
6792205,-0.05,0.03,1.42,-6.59,-7.26,-7.02,942.08,21.52,
6792244,-0.03,0.02,1.41,-6.47,-7.08,-7.2,942.06,21.52,
6792282,-0.02,0.02,1.4,-6.53,-7.02,-7.63,942.1,21.52,
6792320,-0.03,0.03,1.41,-6.35,-7.39,-7.2,942.08,21.53,
6792359,-0.03,0.0,1.38,-6.04,-7.63,-7.14,942.03,21.52,
6792397,-0.03,-0.0,1.32,-5.92,-6.77,-7.2,942.14,21.52,
6792447,-0.02,0.01,1.36,-5.86,-6.77,-7.45,942.15,21.52,
6792485,-0.01,0.0,1.38,-5.55,-7.51,-7.57,942.24,21.53,
6792523,-0.04,0.0,1.34,-5.55,-7.45,-7.63,942.18,21.52,
6792562,-0.04,0.02,1.39,-5.37,-7.26,-7.75,942.27,21.53,
6792600,-0.02,0.01,1.38,-5.25,-7.32,-7.69,942.33,21.53,
6792638,-0.02,0.01,1.39,-5.37,-7.57,-7.87,942.3,21.53,
6792676,-0.02,0.01,1.4,-5.13,-6.77,-8.3,942.33,21.54,
6792715,-0.01,-0.0,1.4,-5.07,-6.71,-8.18,942.39,21.54,
6792753,-0.03,0.01,1.42,-4.94,-6.41,-8.42,942.33,21.53,
6792803,-0.03,0.02,1.38,-4.94,-5.62,-8.79,942.44,21.52,
6792841,-0.02,0.01,1.4,-4.58,-5.74,-8.73,942.47,21.53,
6792879,-0.03,0.0,1.4,-4.46,-5.19,-8.85,942.49,21.54,
6792918,-0.02,0.02,1.42,-4.33,-4.76,-9.16,942.54,21.52,
6792956,-0.01,0.02,1.42,-3.97,-4.03,-9.34,942.52,21.53,
6792994,-0.01,0.01,1.43,-4.03,-3.72,-9.4,942.57,21.53,
6793032,-0.02,-0.0,1.38,-3.91,-2.99,-9.46,942.64,21.52,
6793071,-0.01,-0.0,1.37,-3.91,-2.75,-9.58,942.59,21.53,
6793109,-0.01,0.0,1.33,-3.97,-2.87,-9.7,942.6,21.53,
6793159,-0.02,0.0,1.36,-3.97,-3.11,-9.58,942.64,21.53,
6793197,-0.0,-0.01,1.32,-4.33,-2.26,-9.89,942.63,21.54,
6793235,0.0,0.0,1.35,-4.27,-2.5,-10.13,942.64,21.54,
6793274,-0.01,0.0,1.37,-4.33,-0.67,-10.31,942.66,21.54,
6793312,-0.02,-0.01,1.37,-4.09,-0.12,-10.31,942.71,21.53,
6793350,-0.01,-0.01,1.39,-4.03,0.55,-10.5,942.69,21.53,
6793388,-0.01,-0.01,1.35,-3.85,1.1,-10.68,942.64,21.53,
6793427,-0.02,-0.01,1.32,-4.03,1.95,-10.8,942.68,21.54,
6793465,-0.01,-0.01,1.29,-3.78,2.44,-10.68,942.7,21.54,
6793515,-0.01,-0.01,1.28,-3.85,3.54,-10.86,942.73,21.53,
6793553,-0.03,-0.03,1.26,-3.85,4.58,-10.68,942.74,21.53,
6793591,-0.01,-0.02,1.28,-3.78,4.7,-10.74,942.77,21.54,
6793630,-0.01,-0.01,1.28,-3.78,4.58,-10.68,942.74,21.54,
6793668,-0.03,-0.02,1.26,-3.91,4.82,-10.62,942.7,21.53,
6793706,-0.0,-0.03,1.22,-4.09,5.92,-10.56,942.74,21.53,
6793744,0.01,-0.02,1.22,-4.27,5.49,-10.68,942.69,21.54,
6793783,-0.03,-0.02,1.22,-4.15,5.19,-10.5,942.67,21.53,
6793821,-0.01,-0.02,1.19,-4.58,5.19,-10.5,942.69,21.53,
6793897,-0.02,-0.04,1.24,-4.76,4.21,-10.5,942.7,21.5,
6793935,-0.03,-0.02,1.31,-4.82,3.72,-10.56,942.68,21.53,
6793974,-0.02,-0.02,1.26,-4.82,4.76,-10.56,942.64,21.53,
6794064,-0.03,-0.01,1.29,-4.88,3.97,-10.44,942.73,21.49,
6794102,-0.03,-0.02,1.27,-4.82,4.76,-10.56,942.68,21.5,
6794140,-0.03,-0.02,1.31,-4.52,4.27,-10.62,942.79,21.52,
6794178,-0.03,-0.02,1.3,-4.58,4.52,-10.5,942.69,21.51,
6794217,-0.03,-0.02,1.3,-4.33,4.39,-10.44,942.73,21.52,
6794255,-0.04,-0.03,1.23,-4.39,5.19,-10.44,942.71,21.52,
6794293,-0.03,-0.01,1.24,-4.39,4.82,-10.19,942.67,21.52,
6794343,-0.04,-0.03,1.24,-4.33,5.68,-10.19,942.68,21.51,
6794381,-0.04,-0.02,1.24,-4.33,5.43,-10.31,942.69,21.52,
6794420,-0.03,-0.02,1.3,-4.46,5.74,-10.25,942.69,21.52,
6794458,-0.04,-0.02,1.25,-4.39,5.37,-10.31,942.65,21.53,
6794496,-0.05,-0.02,1.25,-4.58,5.74,-10.13,942.68,21.53,
6794535,-0.03,-0.02,1.24,-4.58,6.23,-10.13,942.67,21.53,
6794573,-0.04,-0.02,1.28,-4.7,6.1,-10.13,942.65,21.53,
6794611,-0.04,-0.02,1.25,-4.7,6.53,-10.01,942.6,21.53,
6794649,-0.05,-0.01,1.29,-4.7,6.53,-9.83,942.66,21.54,
6794699,-0.03,-0.02,1.28,-4.76,6.16,-9.52,942.67,21.52,
6794737,-0.05,-0.01,1.29,-5.0,5.74,-9.52,942.63,21.53,
6794776,-0.04,-0.02,1.27,-4.88,5.37,-9.22,942.63,21.52,
6794814,-0.04,-0.01,1.25,-4.94,4.94,-9.16,942.65,21.52,
6794852,-0.06,-0.01,1.24,-5.07,4.21,-8.91,942.63,21.53,
6794890,-0.05,-0.01,1.23,-4.76,3.66,-8.67,942.57,21.53,
6794929,-0.04,-0.02,1.22,-5.13,3.11,-8.73,942.56,21.52,
6794967,-0.04,-0.01,1.21,-5.25,1.59,-8.36,942.58,21.53,
6795005,-0.05,-0.01,1.25,-4.88,1.1,-8.36,942.55,21.54,
6795055,-0.05,-0.0,1.25,-5.13,0.43,-8.06,942.58,21.53,
6795093,-0.05,-0.0,1.3,-4.88,0.24,-7.93,942.58,21.54,
6795132,-0.05,-0.01,1.27,-4.94,-0.43,-7.81,942.57,21.54,
6795170,-0.06,0.0,1.31,-4.76,-0.79,-7.93,942.59,21.53,
6795208,-0.05,-0.0,1.3,-4.52,0.18,-7.69,942.57,21.55,
6795246,-0.04,0.0,1.32,-4.27,-0.37,-7.57,942.55,21.54,
6795285,-0.05,-0.0,1.33,-4.21,-0.67,-7.57,942.66,21.55,
6795323,-0.06,-0.01,1.27,-3.91,-1.28,-7.39,942.61,21.54,
6795361,-0.06,-0.0,1.27,-3.85,-0.85,-7.39,942.58,21.55,
6795411,-0.04,-0.01,1.2,-3.17,-0.92,-7.32,942.59,21.53,
6795449,-0.05,-0.01,1.19,-2.87,-1.4,-7.39,942.58,21.54,
6795488,-0.06,-0.02,1.14,-2.81,-1.22,-7.08,942.59,21.54,
6795526,-0.06,-0.01,1.16,-2.62,-1.77,-7.08,942.53,21.54,
6795564,-0.05,-0.02,1.09,-2.75,-1.95,-6.84,942.53,21.54,
6795602,-0.07,-0.02,1.08,-2.81,-2.69,-6.71,942.53,21.54,
6795641,-0.07,-0.03,1.08,-2.81,-1.83,-6.59,942.53,21.54,
6795679,-0.05,-0.03,1.06,-2.75,-1.95,-6.41,942.51,21.54,
6795717,-0.05,-0.02,1.09,-2.81,-2.5,-6.41,942.54,21.53,
6795767,-0.06,-0.02,1.04,-2.69,-1.71,-6.16,942.51,21.54,
6795805,-0.08,-0.02,1.09,-2.62,-2.14,-6.16,942.49,21.54,
6795844,-0.07,-0.03,1.08,-2.87,-1.77,-6.16,942.5,21.54,
6795882,-0.08,-0.02,1.14,-2.69,-1.83,-6.04,942.5,21.53,
6795920,-0.06,-0.02,1.12,-2.87,-1.4,-5.8,942.51,21.54,
6795958,-0.07,-0.01,1.13,-2.81,-1.83,-5.86,942.48,21.54,
6795997,-0.06,-0.01,1.17,-2.62,-0.73,-5.49,942.48,21.54,
6796035,-0.06,-0.01,1.14,-2.81,-0.79,-5.49,942.49,21.54,
6796073,-0.06,-0.0,1.2,-2.38,-0.61,-5.37,942.49,21.54,
6796112,-0.07,-0.01,1.15,-2.32,0.06,-5.19,942.48,21.54,
6796162,-0.06,-0.0,1.17,-2.08,0.0,-5.19,942.48,21.54,
6796200,-0.05,-0.01,1.15,-2.08,0.37,-5.19,942.48,21.55,
6796238,-0.06,-0.01,1.16,-1.77,0.43,-5.13,942.46,21.54,
6796276,-0.06,-0.01,1.14,-1.83,1.22,-4.88,942.46,21.54,
6796315,-0.06,-0.0,1.18,-1.1,1.83,-5.0,942.53,21.53,
6796353,-0.05,-0.01,1.17,-1.16,3.23,-4.88,942.47,21.53,
6796391,-0.05,-0.01,1.16,-0.98,2.75,-4.94,942.55,21.55,
6796429,-0.06,-0.02,1.17,-0.79,4.33,-4.7,942.5,21.55,
6796468,-0.06,-0.02,1.1,-0.85,5.25,-4.39,942.44,21.54,
6796518,-0.05,-0.0,1.15,-0.24,5.19,-4.39,942.53,21.53,
6796556,-0.06,-0.03,1.06,-0.37,5.19,-4.15,942.51,21.54,
6796594,-0.05,-0.03,1.1,-0.12,5.25,-4.33,942.42,21.53,
6796632,-0.04,-0.02,1.09,0.0,6.47,-3.97,942.47,21.54,
6796671,-0.04,-0.02,1.11,0.18,5.98,-3.85,942.49,21.55,
6796709,-0.04,-0.03,1.04,-0.24,6.59,-3.48,942.47,21.54,
6796747,-0.05,-0.03,1.07,-0.12,5.43,-3.3,942.46,21.55,
6796785,-0.06,-0.03,1.06,-0.49,5.86,-3.17,942.44,21.54,
6796824,-0.05,-0.01,1.03,-0.55,5.25,-2.99,942.4,21.55,
6796900,-0.03,-0.03,1.02,-0.49,5.13,-2.81,942.4,21.52,
6796938,-0.04,-0.04,1.05,-0.55,4.52,-2.44,942.43,21.52,
6796976,-0.03,-0.04,1.07,-0.43,4.88,-2.5,942.42,21.53,
6797066,-0.04,-0.03,1.12,-0.49,3.97,-1.95,942.4,21.5,
6797104,-0.04,-0.02,1.15,-0.43,2.38,-2.08,942.42,21.52,
6797143,-0.02,-0.03,1.18,-0.55,2.38,-1.95,942.41,21.53,
6797181,-0.03,-0.03,1.13,-1.1,1.65,-1.71,942.38,21.52,
6797219,-0.02,-0.01,1.17,-1.22,1.46,-1.83,942.37,21.53,
6797257,-0.03,-0.02,1.13,-1.46,1.65,-1.83,942.4,21.53,
6797295,-0.02,-0.02,1.18,-1.34,1.77,-1.71,942.39,21.54,
6797345,-0.01,-0.03,1.15,-1.53,2.2,-1.95,942.4,21.52,
6797384,-0.02,-0.02,1.16,-1.53,2.26,-2.08,942.38,21.53,
6797422,-0.02,-0.02,1.13,-1.59,2.26,-1.89,942.44,21.53,
6797460,-0.01,-0.03,1.15,-1.34,2.2,-1.95,942.4,21.54,
6797498,-0.01,-0.03,1.1,-1.59,1.95,-1.89,942.35,21.52,
6797537,-0.02,-0.02,1.12,-1.53,1.71,-2.14,942.41,21.53,
6797575,-0.02,-0.02,1.1,-1.46,1.53,-1.95,942.42,21.53,
6797613,-0.02,-0.02,1.13,-1.77,1.4,-2.08,942.39,21.53,
6797652,-0.02,-0.02,1.14,-1.71,1.59,-2.01,942.38,21.54,
6797701,-0.02,-0.03,1.13,-1.59,2.5,-2.14,942.38,21.52,
6797740,-0.01,-0.02,1.16,-1.65,2.93,-2.08,942.38,21.53,
6797778,-0.01,-0.02,1.14,-1.65,3.6,-2.2,942.41,21.54,
6797816,-0.01,-0.02,1.14,-1.77,4.09,-2.26,942.37,21.53,
6797854,-0.01,-0.02,1.13,-1.77,4.58,-2.08,942.38,21.54,
6797893,-0.01,-0.01,1.15,-1.71,4.64,-2.14,942.32,21.54,
6797931,-0.01,-0.02,1.12,-1.77,4.52,-2.01,942.3,21.53,
6797969,-0.01,-0.02,1.12,-1.95,4.09,-2.01,942.37,21.55,
6798007,-0.02,-0.03,1.11,-2.2,4.39,-1.95,942.38,21.54,
6798057,0.0,-0.01,1.1,-1.95,4.21,-1.89,942.4,21.54,
6798096,-0.0,-0.01,1.12,-2.26,4.15,-2.01,942.29,21.53,
6798134,-0.01,-0.02,1.13,-2.2,3.97,-1.83,942.34,21.54,
6798172,-0.01,-0.02,1.16,-2.08,3.97,-1.89,942.33,21.54,
6798210,0.0,-0.01,1.16,-2.32,3.6,-1.95,942.35,21.54,
6798249,0.0,-0.0,1.18,-2.14,3.05,-1.95,942.4,21.54,
6798287,0.0,-0.01,1.16,-2.14,3.05,-1.77,942.35,21.55,
6798325,0.01,-0.02,1.18,-1.89,2.75,-2.08,942.36,21.54,
6798363,0.01,-0.02,1.15,-2.01,2.75,-2.08,942.32,21.55,
6798402,0.01,-0.01,1.14,-1.65,2.2,-1.89,942.29,21.54,
6798452,0.0,-0.0,1.17,-1.34,2.01,-2.2,942.27,21.54,
6798490,0.02,-0.01,1.18,-1.28,2.2,-2.32,942.27,21.54,
6798528,0.02,-0.01,1.19,-0.98,1.89,-2.26,942.28,21.54,
6798566,0.02,-0.01,1.2,-0.55,1.95,-2.38,942.24,21.55,
6798605,0.01,-0.01,1.16,-0.31,2.32,-2.69,942.25,21.54,
6798643,0.02,-0.01,1.15,0.06,2.69,-2.75,942.29,21.54,
6798681,0.03,-0.02,1.1,0.31,3.66,-2.99,942.29,21.55,
6798719,0.03,-0.02,1.08,0.61,4.15,-3.23,942.24,21.54,
6798758,0.03,-0.02,1.06,0.61,4.33,-3.48,942.24,21.55,
6798808,0.01,-0.02,1.06,0.85,5.37,-3.91,942.25,21.53,
6798846,0.02,-0.02,1.05,0.73,5.55,-4.09,942.23,21.55,
6798884,0.03,-0.02,1.1,0.92,5.31,-4.39,942.23,21.55,
6798922,0.03,-0.02,1.07,0.73,5.86,-4.33,942.29,21.54,
6798961,0.02,-0.02,1.07,0.49,5.68,-4.64,942.26,21.54,
6798999,0.02,-0.03,1.06,0.37,6.41,-5.0,942.31,21.55,
6799037,0.02,-0.02,1.05,0.31,5.86,-4.88,942.16,21.54,
6799075,0.01,-0.03,1.02,0.49,5.68,-4.88,942.21,21.54,
6799114,0.02,-0.03,1.0,0.37,5.37,-5.07,942.23,21.55,
6799152,0.03,-0.02,1.03,0.37,4.64,-5.25,942.23,21.56,
6799202,0.03,-0.03,0.99,0.0,4.03,-5.19,942.14,21.53,
6799240,0.02,-0.03,1.02,0.06,3.97,-5.49,942.23,21.54,
6799278,0.03,-0.04,0.97,-0.49,4.52,-5.74,942.16,21.54,
6799317,0.02,-0.02,0.99,-0.49,3.42,-5.8,942.17,21.55,
6799355,0.01,-0.03,0.94,-0.79,3.91,-5.92,942.21,21.54,
6799393,0.03,-0.03,0.96,-0.85,3.17,-6.16,942.1,21.55,
6799431,0.02,-0.03,0.96,-1.04,3.3,-6.35,942.16,21.54,
6799470,0.01,-0.03,0.94,-1.04,3.05,-6.41,942.17,21.55,
6799508,0.02,-0.03,0.96,-1.28,3.48,-6.65,942.14,21.55,
6799558,0.02,-0.02,0.96,-1.46,3.78,-6.9,942.14,21.53,
6799596,0.01,-0.04,0.95,-1.71,4.33,-7.14,942.13,21.55,
6799635,0.02,-0.03,0.94,-1.89,4.76,-7.32,942.19,21.54,
6799673,0.02,-0.03,0.97,-1.59,4.76,-7.63,942.15,21.55,
6799711,0.01,-0.03,0.95,-1.77,4.46,-7.63,942.12,21.54,
6799749,0.0,-0.02,0.98,-1.59,4.15,-7.87,942.15,21.54,
6799788,0.0,-0.03,0.96,-1.77,4.52,-7.93,942.11,21.55,
6799826,0.01,-0.02,0.99,-1.83,4.21,-8.12,942.12,21.55,
6799864,0.0,-0.02,1.0,-1.95,4.39,-8.24,942.14,21.55,
6799902,0.01,-0.02,1.01,-1.95,4.27,-8.3,942.08,21.55,
6799979,0.0,-0.03,1.0,-1.77,4.7,-8.36,942.1,21.51,
6800017,0.0,-0.02,1.0,-1.71,4.52,-8.73,942.09,21.52,
6800055,-0.0,-0.02,0.98,-1.65,4.76,-8.91,942.15,21.53,
6800219,0.01,-0.02,1.01,-1.22,4.64,-9.4,942.11,21.49,
6800257,0.0,-0.01,1.03,-1.22,3.78,-9.58,942.08,21.49,
6800296,-0.01,-0.0,1.08,-1.28,4.27,-9.64,942.08,21.49,
6800334,-0.01,-0.02,1.06,-1.34,3.85,-9.52,942.15,21.5,
6800372,0.0,-0.02,1.07,-1.53,3.54,-9.52,942.15,21.51,
6800410,0.0,-0.01,1.04,-1.83,3.48,-9.83,942.14,21.53,
6800460,0.0,-0.01,1.07,-1.46,2.75,-9.77,942.07,21.5,
6800499,-0.01,-0.02,1.04,-1.46,2.81,-9.77,942.12,21.52,
6800537,-0.02,-0.02,1.08,-1.4,2.26,-9.77,942.13,21.52,
6800575,-0.01,-0.02,1.05,-1.59,2.32,-9.77,942.15,21.54,
6800613,-0.03,-0.02,1.04,-1.53,1.65,-9.95,942.06,21.52,
6800652,-0.02,-0.02,1.05,-1.77,2.2,-10.01,942.12,21.53,
