timestamp,acc_x,acc_y,acc_z,rot_x,rot_y,rot_z,qfe,temp
4893506,0.05,-0.07,0.98,4.33,16.78,3.6,888.23,31.04
4893544,0.05,-0.08,0.94,5.37,16.85,3.36,888.17,31.05
4893583,0.05,-0.08,0.93,5.74,17.03,3.23,888.23,31.06
4893621,0.04,-0.09,0.87,6.04,17.52,3.05,888.18,31.06
4893659,0.05,-0.09,0.85,5.98,16.48,2.5,888.1,31.04
4893697,0.07,-0.08,0.79,5.37,16.97,2.2,888.15,31.06
4893735,0.08,-0.09,0.79,4.52,15.26,1.83,888.11,31.06
4893773,0.07,-0.08,0.79,3.54,14.53,1.53,888.14,31.05
4893812,0.08,-0.09,0.77,2.26,12.51,1.04,888.05,31.05
4893850,0.08,-0.09,0.82,0.73,11.96,0.79,888.1,31.06
4893899,0.08,-0.09,0.86,-1.16,10.07,0.18,888.1,31.05
4893938,0.06,-0.08,0.92,-2.01,8.36,-0.18,888.11,31.04
4893976,0.08,-0.08,0.91,-2.56,8.0,-0.55,887.98,31.04
4894014,0.08,-0.08,0.94,-3.42,7.14,-0.98,888.04,31.05
4894052,0.07,-0.08,0.95,-4.15,7.02,-1.16,888.01,31.05
4894090,0.07,-0.07,1.0,-4.46,6.29,-1.71,888.09,31.05
4894128,0.07,-0.07,1.04,-4.7,6.29,-2.2,887.99,31.06
4894167,0.06,-0.06,1.08,-5.43,4.76,-2.69,887.99,31.05
4894205,0.07,-0.05,1.17,-5.31,4.52,-3.17,888.03,31.05
4894243,0.08,-0.06,1.19,-5.25,4.94,-3.6,887.94,31.04
4894293,0.07,-0.05,1.25,-4.21,4.39,-4.21,887.97,31.03
4894331,0.06,-0.05,1.25,-3.91,4.39,-4.82,888.02,31.03
4894369,0.05,-0.05,1.25,-3.42,4.58,-5.19,887.99,31.04
4894407,0.06,-0.05,1.18,-2.93,4.46,-5.8,888.05,31.03
4894445,0.07,-0.06,1.18,-2.93,4.21,-6.23,888.0,31.04
4894483,0.05,-0.06,1.13,-2.62,4.27,-6.84,887.92,31.03
4894522,0.06,-0.06,1.14,-2.75,4.76,-7.14,888.04,31.03
4894560,0.06,-0.06,1.15,-2.62,4.76,-7.75,887.92,31.03
4894598,0.04,-0.06,1.13,-2.93,5.07,-8.12,887.92,31.03
4894648,0.05,-0.07,1.13,-3.11,4.88,-8.85,887.9,31.03
4894686,0.05,-0.05,1.15,-3.48,4.82,-9.28,887.95,31.04
4894724,0.04,-0.05,1.14,-3.6,4.39,-9.64,887.9,31.04
4894762,0.03,-0.05,1.15,-3.85,3.91,-10.01,887.93,31.04
4894800,0.03,-0.05,1.16,-4.03,4.15,-10.31,887.9,31.05
4894838,0.03,-0.05,1.16,-4.33,4.33,-10.8,887.94,31.05
4894876,0.03,-0.05,1.19,-4.33,4.33,-11.11,887.93,31.05
4894915,0.02,-0.05,1.19,-4.33,4.33,-11.29,887.81,31.05
4894953,0.01,-0.05,1.2,-4.46,4.76,-11.6,887.86,31.05
4895029,0.01,-0.04,1.22,-4.7,5.31,-12.08,887.83,31.04
4895067,-0.0,-0.03,1.24,-4.64,5.86,-12.21,887.83,31.03
4895105,0.01,-0.04,1.23,-4.58,6.29,-12.57,887.9,31.05
4895194,0.01,-0.03,1.24,-4.46,6.9,-13.06,887.79,31.02
4895233,0.0,-0.03,1.26,-4.46,6.84,-13.18,887.76,31.03
4895271,-0.0,-0.02,1.25,-4.52,6.47,-13.18,887.77,31.03
4895309,-0.0,-0.02,1.26,-4.46,6.29,-13.37,887.78,31.03
4895347,-0.0,-0.02,1.27,-4.27,6.65,-13.61,887.77,31.03
4895385,-0.0,-0.02,1.28,-4.58,6.84,-13.61,887.79,31.04
4895423,-0.01,-0.02,1.28,-4.82,7.2,-13.79,887.74,31.03
4895473,-0.02,-0.02,1.29,-4.94,6.96,-13.67,887.7,31.02
4895511,-0.02,-0.01,1.3,-4.76,6.96,-13.67,887.71,31.03
4895550,-0.02,-0.02,1.27,-5.07,6.84,-13.79,887.64,31.04
4895588,-0.03,-0.01,1.27,-4.94,6.47,-13.67,887.69,31.05
4895626,-0.03,-0.02,1.25,-5.25,6.77,-13.43,887.65,31.06
4895664,-0.02,-0.02,1.23,-5.49,6.71,-13.37,887.64,31.05
4895702,-0.03,-0.01,1.25,-5.43,6.65,-13.61,887.57,31.04
4895741,-0.03,-0.02,1.23,-5.43,6.77,-13.55,887.58,31.03
4895779,-0.03,-0.01,1.25,-5.49,6.47,-13.43,887.57,31.06
4895829,-0.04,-0.01,1.24,-5.55,6.59,-13.31,887.52,31.04
4895867,-0.04,-0.01,1.25,-5.86,6.29,-13.43,887.57,31.05
4895905,-0.05,-0.0,1.25,-5.68,6.96,-13.24,887.52,31.05
4895943,-0.04,-0.0,1.26,-5.55,7.26,-13.18,887.49,31.05
4895981,-0.05,0.0,1.27,-5.62,7.32,-13.0,887.5,31.05
4896019,-0.05,-0.0,1.28,-5.49,7.32,-12.82,887.5,31.07
4896057,-0.05,-0.0,1.27,-5.31,7.45,-12.51,887.48,31.06
4896096,-0.06,0.0,1.25,-5.07,7.14,-12.39,887.47,31.06
4896134,-0.06,0.0,1.24,-5.0,7.2,-12.21,887.38,31.05
4896183,-0.06,0.01,1.24,-5.07,7.08,-11.9,887.45,31.05
4896222,-0.06,-0.0,1.24,-4.64,7.26,-11.72,887.35,31.06
4896260,-0.05,-0.0,1.24,-4.58,7.02,-11.6,887.35,31.05
4896298,-0.06,0.01,1.24,-4.33,7.45,-11.41,887.39,31.06
4896336,-0.06,-0.0,1.24,-4.15,7.51,-11.11,887.36,31.06
4896375,-0.07,-0.0,1.22,-3.85,7.75,-10.99,887.38,31.06
4896413,-0.07,0.0,1.24,-3.85,7.93,-10.68,887.26,31.06
4896451,-0.06,-0.0,1.22,-3.85,8.48,-10.56,887.28,31.05
4896489,-0.07,0.0,1.22,-3.78,8.79,-10.38,887.24,31.06
4896539,-0.07,0.0,1.22,-3.54,9.83,-10.13,887.26,31.04
4896577,-0.06,-0.0,1.23,-3.66,9.89,-9.95,887.16,31.05
4896615,-0.06,-0.0,1.22,-3.36,10.62,-9.83,887.22,31.06
4896653,-0.07,0.0,1.2,-3.48,10.62,-9.34,887.21,31.05
4896692,-0.06,0.0,1.21,-3.23,10.99,-8.91,887.16,31.07
4896730,-0.06,0.0,1.2,-3.36,11.11,-8.85,887.23,31.07
4896768,-0.07,0.0,1.2,-3.17,10.93,-8.42,887.18,31.05
4896806,-0.07,-0.0,1.19,-2.99,11.17,-8.18,887.16,31.06
4896844,-0.05,0.0,1.18,-3.11,10.8,-7.81,887.14,31.07
4896894,-0.06,0.0,1.16,-3.42,9.95,-7.14,887.14,31.06
4896932,-0.07,-0.01,1.14,-3.23,9.89,-6.9,887.08,31.06
4896971,-0.06,-0.01,1.13,-3.3,9.52,-6.65,887.11,31.06
4897009,-0.06,-0.0,1.14,-3.42,8.73,-6.29,887.12,31.07
4897047,-0.05,-0.01,1.14,-3.54,8.12,-5.92,887.05,31.05
4897085,-0.05,-0.01,1.14,-3.48,7.75,-5.74,887.04,31.06
4897123,-0.05,-0.01,1.16,-3.54,7.32,-5.49,886.98,31.06
4897161,-0.05,-0.01,1.14,-3.54,6.47,-5.25,887.02,31.06
4897199,-0.04,-0.01,1.13,-3.6,6.29,-5.13,887.02,31.06
4897238,-0.05,-0.0,1.12,-3.66,6.29,-5.0,887.04,31.06
4897287,-0.04,-0.01,1.14,-3.42,5.55,-4.88,886.96,31.05
4897326,-0.05,-0.01,1.12,-3.54,5.07,-4.76,886.96,31.04
4897364,-0.04,-0.01,1.14,-3.48,5.13,-4.7,886.97,31.05
4897402,-0.04,-0.01,1.12,-3.42,5.55,-4.64,886.97,31.04
4897440,-0.04,-0.01,1.13,-3.3,5.68,-4.64,886.97,31.06
4897478,-0.04,-0.01,1.11,-2.93,6.9,-4.46,886.96,31.05
4897517,-0.03,-0.01,1.11,-2.87,7.87,-4.46,886.98,31.05
4897555,-0.03,-0.01,1.12,-2.62,8.73,-4.33,886.99,31.05
4897593,-0.03,-0.01,1.09,-2.38,8.97,-4.27,886.98,31.05
4897643,-0.03,-0.01,1.09,-2.26,9.77,-4.09,886.93,31.03
4897681,-0.02,-0.02,1.08,-2.38,9.58,-3.91,886.96,31.05
4897719,-0.01,-0.01,1.11,-2.44,8.61,-3.97,886.93,31.04
4897757,-0.01,-0.02,1.09,-2.32,7.63,-3.91,886.92,31.05
4897795,-0.01,-0.01,1.08,-2.38,7.14,-3.91,886.9,31.04
4897833,-0.0,-0.02,1.08,-2.32,5.98,-3.78,886.85,31.04
4897872,0.01,-0.03,1.07,-2.2,4.88,-3.97,886.85,31.04
4897910,0.0,-0.03,1.04,-2.38,3.91,-4.03,886.82,31.04
4897948,0.0,-0.03,1.03,-2.56,3.05,-4.15,886.83,31.04
4898024,0.0,-0.03,1.01,-2.75,1.83,-4.58,886.79,31.02
4898062,0.0,-0.03,1.0,-3.17,2.01,-4.64,886.8,31.03
4898100,0.0,-0.03,1.01,-3.48,1.71,-4.88,886.82,31.03
4898189,0.0,-0.02,1.01,-3.91,2.01,-5.37,886.75,31.0
4898228,0.0,-0.03,1.03,-4.27,2.01,-5.68,886.82,31.01
4898266,0.01,-0.03,1.01,-4.33,2.14,-6.04,886.74,31.0
4898304,0.01,-0.02,1.02,-4.46,2.26,-6.29,886.78,31.03
4898342,0.02,-0.03,1.02,-4.39,2.5,-6.53,886.77,31.01
4898380,0.01,-0.02,1.04,-4.76,2.26,-6.71,886.79,31.04
4898418,0.01,-0.02,1.05,-4.58,2.08,-6.96,886.74,31.03
4898468,0.01,-0.03,1.03,-4.58,2.38,-7.26,886.82,31.04
4898506,0.01,-0.02,1.04,-4.58,2.38,-7.51,886.76,31.04
4898545,0.01,-0.04,1.0,-4.58,2.69,-7.63,886.75,31.03
4898583,0.01,-0.02,1.0,-4.82,2.26,-7.81,886.76,31.04
4898621,0.0,-0.02,1.02,-4.94,2.56,-8.12,886.75,31.05
4898659,0.01,-0.02,1.02,-5.13,2.62,-8.36,886.71,31.04
4898697,0.0,-0.02,1.07,-5.19,2.56,-8.42,886.75,31.05
4898735,-0.0,-0.02,1.07,-4.76,3.11,-8.91,886.73,31.06
4898774,-0.0,-0.01,1.08,-4.7,3.23,-9.03,886.8,31.06
4898823,0.02,-0.01,1.08,-4.52,2.99,-9.16,886.79,31.06
4898862,-0.0,-0.01,1.08,-4.52,2.93,-9.4,886.78,31.05
4898900,-0.01,-0.0,1.08,-4.39,2.87,-9.34,886.77,31.05
4898938,-0.01,-0.0,1.07,-4.46,2.69,-9.46,886.69,31.06
4898976,-0.0,-0.0,1.09,-4.52,2.62,-9.46,886.68,31.05
4899014,-0.0,-0.01,1.09,-4.52,2.56,-9.46,886.73,31.06
4899052,-0.0,-0.0,1.12,-4.46,2.44,-9.4,886.7,31.04
4899090,-0.01,0.0,1.12,-4.52,2.5,-9.52,886.76,31.07
4899128,-0.01,0.0,1.11,-4.46,2.62,-9.64,886.72,31.06
4899167,-0.01,0.0,1.12,-4.21,2.5,-9.7,886.73,31.06
4899216,-0.01,-0.0,1.1,-4.03,2.81,-9.95,886.72,31.06
4899255,-0.0,-0.0,1.09,-4.09,2.69,-10.01,886.74,31.05
4899293,-0.01,-0.0,1.08,-4.39,2.93,-9.95,886.73,31.06
4899331,-0.01,0.0,1.08,-4.52,2.87,-10.07,886.77,31.07
4899369,-0.0,-0.0,1.08,-4.33,3.05,-10.13,886.73,31.06
4899407,-0.0,-0.0,1.08,-4.33,2.87,-10.07,886.75,31.08
4899445,-0.01,0.0,1.1,-4.7,2.75,-10.07,886.73,31.08
4899483,-0.02,0.01,1.1,-4.64,2.93,-10.19,886.72,31.08
4899522,-0.01,0.02,1.14,-4.7,3.05,-10.38,886.73,31.07
4899571,-0.01,0.02,1.16,-4.64,3.3,-10.38,886.72,31.06
4899610,-0.01,0.02,1.18,-4.7,3.66,-10.56,886.74,31.08
4899648,-0.01,0.02,1.18,-4.88,4.27,-10.62,886.79,31.08
4899686,-0.01,0.02,1.17,-5.0,4.09,-10.38,886.76,31.09
4899724,-0.03,0.02,1.15,-4.7,3.91,-10.31,886.75,31.08
4899762,-0.02,0.01,1.12,-4.82,4.03,-10.19,886.76,31.07
4899800,-0.01,0.01,1.09,-4.58,3.66,-10.44,886.8,31.08
4899838,-0.02,0.01,1.09,-4.58,3.36,-10.31,886.78,31.09
4899877,-0.01,-0.0,1.1,-4.39,3.66,-10.38,886.84,31.1
4899927,-0.03,0.01,1.12,-4.46,4.15,-10.44,886.77,31.08
4899965,-0.03,0.01,1.15,-4.39,4.58,-10.44,886.82,31.08
4900003,-0.02,-0.0,1.15,-4.39,4.64,-10.31,886.79,31.08
4900041,-0.02,0.01,1.16,-4.58,4.46,-10.56,886.83,31.08
4900079,-0.02,0.02,1.16,-4.64,4.15,-10.25,886.88,31.09
4900117,-0.02,0.02,1.16,-4.64,4.09,-10.25,886.86,31.08
4900155,-0.03,0.01,1.17,-4.76,3.91,-10.13,886.81,31.08
4900194,-0.02,0.01,1.19,-4.94,3.85,-10.07,886.86,31.08
4900232,-0.03,0.01,1.18,-4.88,3.91,-9.77,886.89,31.09
4900270,-0.02,0.01,1.17,-4.94,3.66,-9.83,886.85,31.1
4900320,-0.02,0.01,1.19,-5.07,3.54,-9.83,886.91,31.09
4900358,-0.03,0.01,1.19,-4.94,3.3,-9.7,886.85,31.08
4900396,-0.02,0.01,1.21,-5.07,3.23,-9.7,886.83,31.09
4900434,-0.03,0.01,1.21,-5.13,3.42,-9.7,886.83,31.09
4900472,-0.03,0.02,1.21,-5.31,3.23,-9.7,886.85,31.1
4900511,-0.03,0.01,1.23,-5.31,2.87,-9.58,886.84,31.1
4900549,-0.01,0.01,1.23,-5.62,2.56,-9.64,886.8,31.1
4900587,-0.02,0.02,1.27,-5.74,2.62,-9.64,886.82,31.09
4900625,-0.03,0.01,1.27,-5.86,2.75,-9.4,886.85,31.11
4900675,-0.03,0.02,1.29,-5.98,2.75,-9.28,886.87,31.08
4900713,-0.03,0.01,1.29,-6.04,2.62,-9.46,886.88,31.1
4900751,-0.03,0.02,1.31,-6.1,2.44,-9.16,886.92,31.09
4900789,-0.02,0.02,1.33,-6.16,2.62,-9.28,886.89,31.09
4900827,-0.03,0.03,1.34,-6.35,2.62,-9.16,886.9,31.09
4900866,-0.04,0.03,1.35,-6.29,2.08,-9.03,886.93,31.09
4900904,-0.05,0.02,1.37,-6.35,2.14,-8.97,886.91,31.08
4900942,-0.03,0.02,1.36,-6.41,2.32,-8.73,886.98,31.08
4900980,-0.04,0.04,1.37,-6.47,1.83,-8.61,886.96,31.07
4901018,-0.04,0.04,1.37,-6.41,1.77,-8.42,886.95,31.08
4901095,-0.04,0.02,1.36,-6.41,2.26,-8.36,886.93,31.05
4901134,-0.04,0.03,1.38,-6.41,2.5,-8.24,887.0,31.07
4901172,-0.04,0.03,1.35,-6.23,2.93,-8.06,887.0,31.07
4901261,-0.04,0.01,1.32,-6.23,2.93,-7.75,887.01,31.02
4901299,-0.03,0.02,1.33,-6.23,2.5,-7.57,887.03,31.04
4901338,-0.04,0.02,1.33,-6.04,2.75,-7.45,887.02,31.05
4901376,-0.03,0.02,1.32,-6.29,3.17,-7.57,887.07,31.04
4901414,-0.04,0.01,1.31,-6.29,3.36,-7.39,887.03,31.05
4901452,-0.03,0.01,1.34,-6.29,3.11,-7.14,887.07,31.05
4901502,-0.03,0.01,1.32,-5.98,3.42,-7.26,887.06,31.05
4901540,-0.03,0.02,1.35,-6.04,3.78,-7.26,887.05,31.04
4901578,-0.03,0.0,1.34,-5.98,4.7,-7.2,887.03,31.05
4901616,-0.03,0.01,1.34,-6.16,4.21,-7.14,887.09,31.08
4901654,-0.03,0.0,1.33,-5.92,4.88,-7.2,887.12,31.06
4901693,-0.03,0.01,1.31,-6.04,5.13,-7.08,887.07,31.06
4901731,-0.02,0.01,1.33,-6.04,4.52,-7.08,887.12,31.06
4901769,-0.03,0.01,1.31,-6.35,4.58,-6.84,887.08,31.06
4901807,-0.02,0.01,1.32,-6.41,4.39,-6.71,887.13,31.06
4901845,-0.02,0.01,1.32,-6.23,4.33,-6.65,887.1,31.07
4901895,-0.03,0.01,1.33,-6.29,4.21,-6.77,887.12,31.07
4901933,-0.02,0.01,1.34,-5.86,4.64,-6.84,887.16,31.08
4901971,-0.02,0.01,1.36,-5.98,5.19,-6.77,887.17,31.08
4902009,-0.02,0.01,1.34,-6.04,5.19,-6.71,887.13,31.08
4902048,-0.03,0.01,1.36,-6.16,5.19,-6.77,887.09,31.08
4902086,-0.01,0.01,1.37,-6.16,5.92,-6.84,887.15,31.08
4902124,-0.01,0.02,1.39,-6.1,5.92,-7.08,887.07,31.09
4902162,-0.02,0.02,1.41,-6.04,6.41,-6.9,887.13,31.1
4902200,-0.02,0.03,1.4,-6.1,6.35,-6.84,887.13,31.1
4902250,-0.01,0.04,1.46,-5.74,6.16,-6.96,887.06,31.08
4902288,-0.0,0.03,1.45,-5.74,6.04,-6.84,887.11,31.08
4902326,-0.01,0.04,1.46,-5.8,5.74,-6.84,887.18,31.1
4902364,-0.01,0.03,1.43,-5.62,5.8,-6.77,887.12,31.07
4902403,-0.02,0.03,1.42,-5.62,5.37,-6.59,887.11,31.09
4902441,-0.01,0.04,1.4,-5.49,5.49,-6.65,887.16,31.1
4902479,-0.01,0.03,1.39,-5.31,4.76,-6.53,887.08,31.08
4902517,-0.01,0.03,1.4,-5.25,4.03,-6.41,887.13,31.08
4902555,-0.02,0.02,1.39,-5.25,3.97,-6.29,887.11,31.09
4902593,-0.01,0.03,1.39,-5.13,3.3,-6.23,887.13,31.08
4902643,-0.01,0.03,1.39,-4.94,2.81,-6.04,887.13,31.08
4902681,-0.02,0.02,1.37,-4.82,2.08,-5.98,887.12,31.1
4902719,-0.01,0.01,1.35,-4.64,2.08,-5.86,887.16,31.08
4902758,-0.01,0.01,1.3,-4.58,2.08,-6.1,887.16,31.09
4902796,-0.01,0.02,1.28,-4.46,2.14,-6.35,887.18,31.1
4902834,-0.02,0.0,1.24,-4.39,2.69,-6.35,887.14,31.09
4902872,-0.0,-0.01,1.24,-4.27,2.75,-6.47,887.18,31.09
4902910,0.0,-0.02,1.22,-3.91,3.17,-6.53,887.17,31.08
4902948,-0.02,-0.03,1.11,-4.15,3.11,-6.53,887.19,31.09
4902998,-0.03,-0.02,1.07,-4.09,3.42,-6.59,887.24,31.08
4903036,0.0,-0.04,1.01,-4.15,3.48,-6.9,887.18,31.08
4903074,-0.0,-0.05,0.95,-4.46,3.48,-6.96,887.22,31.09
4903112,-0.0,-0.05,0.94,-4.33,3.17,-6.96,887.23,31.08
4903150,-0.01,-0.05,0.93,-4.52,3.6,-7.32,887.23,31.08
4903189,-0.0,-0.04,0.95,-4.58,2.69,-7.32,887.27,31.09
4903227,-0.01,-0.04,1.01,-4.94,3.36,-7.14,887.17,31.08
4903265,-0.0,-0.05,1.0,-5.13,3.48,-7.63,887.2,31.09
4903303,-0.0,-0.04,1.06,-5.62,3.36,-7.69,887.18,31.09
4903353,-0.0,-0.03,1.04,-5.62,3.6,-7.87,887.19,31.08
4903391,0.0,-0.02,1.09,-5.86,3.72,-7.87,887.21,31.1
4903429,0.0,-0.03,1.08,-5.86,4.21,-8.24,887.23,31.09
4903467,-0.01,-0.03,1.11,-5.86,3.66,-8.3,887.25,31.1
4903505,-0.01,-0.03,1.11,-5.92,3.42,-8.12,887.24,31.09
4903544,0.0,-0.02,1.15,-6.1,3.23,-8.36,887.15,31.09
4903582,-0.01,-0.02,1.16,-6.23,3.05,-8.36,887.22,31.1
4903620,-0.0,-0.02,1.17,-6.04,2.38,-8.3,887.15,31.09
4903658,-0.0,-0.01,1.2,-6.16,2.08,-8.54,887.17,31.11
4903696,-0.0,-0.01,1.17,-6.1,2.01,-8.48,887.19,31.11
4903746,-0.0,-0.01,1.2,-5.98,1.53,-8.48,887.21,31.1
4903784,-0.01,-0.01,1.17,-5.86,1.59,-8.85,887.19,31.1
4903822,-0.02,-0.0,1.2,-5.8,1.16,-8.97,887.15,31.09
4903860,-0.0,-0.01,1.18,-5.62,1.71,-9.22,887.21,31.09
4903898,-0.0,-0.0,1.2,-5.98,0.98,-9.16,887.13,31.1
4903937,-0.01,-0.0,1.19,-5.74,1.46,-9.03,887.26,31.1
4903975,-0.02,-0.01,1.19,-5.86,1.34,-9.4,887.17,31.11
4904013,-0.02,0.0,1.23,-5.74,1.4,-9.64,887.18,31.12
4904051,-0.02,-0.0,1.22,-5.55,1.53,-9.46,887.24,31.12
4904127,-0.02,0.01,1.23,-5.19,2.5,-9.83,887.26,31.09
4904165,-0.02,0.0,1.21,-5.19,2.81,-9.7,887.24,31.1
4904203,-0.01,-0.01,1.2,-5.07,3.6,-9.83,887.27,31.1
4904293,-0.02,-0.0,1.16,-4.88,3.97,-9.83,887.24,31.06
4904331,-0.02,-0.0,1.17,-4.76,3.17,-9.89,887.19,31.07
4904369,-0.01,-0.01,1.17,-5.0,3.78,-9.95,887.27,31.08
4904407,-0.02,-0.0,1.2,-4.94,4.15,-9.89,887.24,31.08
4904445,-0.02,-0.0,1.2,-5.0,4.94,-9.95,887.22,31.08
4904483,-0.02,0.01,1.22,-4.94,4.58,-9.83,887.27,31.08
4904533,-0.02,0.01,1.25,-4.64,5.43,-9.83,887.27,31.1
4904572,-0.03,-0.01,1.23,-4.46,5.43,-9.95,887.26,31.09
4904610,-0.03,0.01,1.25,-4.33,5.62,-9.7,887.27,31.09
4904648,-0.03,0.01,1.26,-4.09,5.62,-9.52,887.27,31.1
4904686,-0.03,0.02,1.29,-3.97,5.62,-9.4,887.3,31.1
4904724,-0.03,0.01,1.28,-3.78,5.68,-9.46,887.24,31.11
4904762,-0.04,0.01,1.31,-3.91,5.43,-9.34,887.25,31.12
4904801,-0.02,0.01,1.29,-4.21,6.29,-9.09,887.23,31.1
4904839,-0.03,0.02,1.29,-4.09,5.92,-8.85,887.23,31.1
4904877,-0.02,0.01,1.28,-3.85,5.86,-8.85,887.27,31.1
4904927,-0.02,-0.0,1.24,-3.91,5.55,-8.61,887.32,31.1
4904965,-0.02,-0.0,1.25,-3.72,5.37,-8.48,887.31,31.1
4905003,-0.03,-0.0,1.22,-3.72,5.25,-8.48,887.32,31.1
4905041,-0.03,0.01,1.23,-3.72,4.82,-8.67,887.29,31.11
4905080,-0.02,-0.01,1.16,-3.54,5.07,-8.3,887.37,31.11
4905118,-0.03,-0.01,1.16,-3.6,4.09,-8.42,887.35,31.11
4905156,-0.03,-0.02,1.12,-3.78,4.46,-8.12,887.37,31.1
4905194,-0.03,-0.02,1.1,-3.6,3.6,-8.0,887.43,31.12
4905232,-0.03,-0.02,1.09,-3.54,4.52,-8.3,887.41,31.11
4905282,-0.02,-0.03,1.05,-3.72,3.54,-8.24,887.34,31.09
4905320,-0.04,-0.02,1.12,-3.78,4.39,-8.06,887.35,31.11
4905359,-0.03,-0.03,1.08,-4.03,4.52,-8.24,887.36,31.1
4905397,-0.03,-0.0,1.17,-4.39,4.09,-8.18,887.35,31.11
4905435,-0.04,-0.02,1.13,-4.64,5.37,-8.24,887.31,31.1
4905473,-0.04,-0.01,1.17,-4.33,5.0,-8.12,887.31,31.11
4905511,-0.02,-0.01,1.19,-4.27,5.86,-8.3,887.33,31.11
4905549,-0.02,-0.01,1.2,-4.39,5.55,-8.3,887.33,31.12
4905587,-0.04,-0.01,1.19,-4.27,5.49,-8.0,887.36,31.11
4905637,-0.02,-0.01,1.23,-4.15,5.43,-8.06,887.33,31.09
4905675,-0.05,-0.02,1.19,-3.6,6.29,-8.0,887.34,31.11
4905714,-0.03,-0.0,1.18,-3.85,5.25,-8.18,887.32,31.1
4905752,-0.03,-0.01,1.21,-3.54,5.86,-8.0,887.39,31.1
4905790,-0.05,-0.03,1.09,-3.48,5.74,-8.0,887.38,31.1
4905828,-0.04,-0.0,1.18,-3.54,5.07,-7.81,887.4,31.11
4905866,-0.03,-0.03,1.09,-3.54,5.98,-7.63,887.39,31.11
4905905,-0.04,-0.0,1.18,-3.97,4.15,-7.75,887.36,31.13
4905943,-0.05,-0.03,1.15,-3.91,6.29,-7.57,887.39,31.11
4905981,-0.03,-0.03,1.18,-3.78,5.25,-7.69,887.38,31.11
4906031,-0.05,-0.01,1.18,-3.78,6.1,-7.57,887.28,31.11
4906069,-0.05,0.01,1.22,-3.91,6.47,-7.63,887.29,31.11
4906107,-0.05,0.01,1.23,-4.15,8.24,-7.63,887.26,31.11
4906145,-0.04,0.02,1.35,-3.91,7.45,-7.81,887.31,31.12
4906183,-0.04,0.0,1.36,-3.85,9.09,-7.32,887.3,31.12
4906222,-0.05,0.01,1.32,-3.97,8.91,-7.26,887.35,31.12
4906260,-0.04,0.03,1.38,-3.54,8.91,-7.26,887.36,31.12
4906298,-0.04,0.02,1.31,-3.36,8.36,-6.96,887.39,31.13
4906336,-0.03,0.01,1.32,-3.17,8.12,-6.53,887.34,31.13
4906386,-0.04,-0.0,1.26,-3.05,8.0,-6.53,887.39,31.12
4906424,-0.04,0.01,1.24,-3.11,6.9,-6.29,887.34,31.12
4906462,-0.01,0.01,1.29,-2.99,6.41,-6.23,887.38,31.12
4906500,-0.03,-0.01,1.24,-3.11,6.04,-6.23,887.34,31.12
4906538,-0.02,0.0,1.27,-3.3,3.85,-6.1,887.36,31.1
4906577,-0.03,-0.0,1.28,-3.11,3.05,-5.92,887.4,31.12
4906615,-0.02,-0.02,1.21,-3.36,2.38,-5.98,887.27,31.12
4906653,-0.05,0.0,1.23,-3.54,0.79,-6.04,887.33,31.11
4906691,-0.03,-0.01,1.22,-3.6,0.85,-6.04,887.28,31.12
4906729,-0.04,0.0,1.22,-3.91,-0.73,-6.04,887.33,31.11
4906779,-0.04,-0.0,1.26,-3.6,-0.49,-6.1,887.27,31.11
4906817,-0.03,-0.01,1.23,-3.6,-0.79,-6.1,887.27,31.1
4906855,-0.04,-0.0,1.3,-3.66,-1.4,-6.23,887.25,31.11
4906894,-0.04,-0.02,1.23,-3.42,-1.22,-6.16,887.35,31.12
4906932,-0.04,-0.01,1.2,-3.42,-2.56,-6.23,887.32,31.1
4906970,-0.05,-0.01,1.17,-3.48,-2.62,-5.98,887.32,31.11
4907008,-0.04,-0.01,1.13,-3.48,-4.21,-6.04,887.33,31.12
4907046,-0.06,-0.0,1.15,-3.42,-4.82,-5.98,887.29,31.1
4907084,-0.04,-0.02,1.17,-3.36,-5.07,-5.8,887.28,31.12
4907160,-0.06,-0.0,1.21,-3.3,-5.92,-5.98,887.3,31.09
4907198,-0.04,-0.01,1.2,-3.36,-5.8,-6.04,887.22,31.1
4907236,-0.05,-0.01,1.22,-3.11,-6.29,-6.1,887.31,31.1
4907326,-0.05,-0.01,1.2,-2.81,-6.65,-6.16,887.22,31.06
4907364,-0.06,-0.02,1.15,-2.56,-6.04,-6.04,887.27,31.07
4907402,-0.06,-0.01,1.17,-2.62,-7.02,-6.23,887.26,31.07
4907440,-0.05,-0.02,1.14,-2.56,-6.53,-6.1,887.22,31.08
4907479,-0.05,-0.02,1.12,-2.44,-6.96,-6.04,887.27,31.08
4907517,-0.06,-0.02,1.11,-2.38,-6.53,-6.35,887.25,31.08
4907566,-0.06,-0.03,1.09,-2.2,-6.1,-6.29,887.34,31.08
4907605,-0.06,-0.03,1.09,-2.14,-5.8,-6.53,887.28,31.09
4907643,-0.07,-0.03,1.07,-1.95,-5.62,-6.59,887.29,31.09
4907681,-0.06,-0.02,1.07,-2.14,-5.13,-6.47,887.27,31.09
4907719,-0.05,-0.02,1.08,-2.08,-5.07,-6.59,887.27,31.09
4907757,-0.06,-0.02,1.08,-2.01,-4.64,-6.65,887.29,31.11
4907795,-0.07,-0.03,1.05,-1.95,-4.09,-6.53,887.29,31.1
4907834,-0.06,-0.03,1.07,-1.71,-3.6,-6.65,887.28,31.11
4907872,-0.07,-0.03,1.04,-2.08,-2.32,-6.53,887.33,31.1
4907922,-0.07,-0.01,1.07,-1.65,-2.14,-6.84,887.32,31.1
4907960,-0.06,-0.03,1.06,-1.46,-0.67,-6.71,887.42,31.1
4907998,-0.05,-0.03,1.06,-1.46,-0.24,-6.84,887.4,31.1
4908036,-0.05,-0.03,1.06,-1.34,1.22,-6.77,887.32,31.1
4908074,-0.07,-0.03,1.01,-1.34,1.22,-6.41,887.41,31.11
4908112,-0.06,-0.02,1.05,-1.53,1.04,-6.59,887.39,31.1
4908151,-0.06,-0.03,1.03,-1.28,1.1,-6.77,887.38,31.12
4908189,-0.06,-0.03,1.03,-1.34,0.98,-6.29,887.43,31.11
4908227,-0.03,-0.03,1.04,-1.22,1.04,-6.35,887.38,31.1
4908277,-0.05,-0.03,1.05,-0.92,0.18,-6.41,887.39,31.1
4908315,-0.05,-0.03,1.04,-1.1,0.18,-6.16,887.44,31.1
4908353,-0.06,-0.02,1.06,-1.28,0.06,-6.04,887.46,31.12
4908391,-0.05,-0.03,1.05,-1.28,0.79,-6.16,887.46,31.1
4908429,-0.05,-0.03,1.03,-1.34,0.37,-6.1,887.49,31.1
4908467,-0.06,-0.03,1.08,-1.28,0.92,-5.92,887.49,31.11
4908506,-0.04,-0.04,1.06,-1.16,2.32,-5.92,887.45,31.1
4908544,-0.07,-0.02,1.09,-0.92,2.75,-5.8,887.57,31.11
4908582,-0.06,-0.02,1.09,-0.61,3.6,-5.68,887.58,31.11
4908620,-0.06,-0.03,1.08,-0.43,4.15,-5.62,887.58,31.12
4908670,-0.05,-0.02,1.1,-0.18,5.31,-5.31,887.63,31.1
4908708,-0.04,-0.03,1.1,0.06,5.31,-5.25,887.54,31.11
4908746,-0.06,-0.03,1.09,0.31,5.98,-5.13,887.58,31.12
4908784,-0.05,-0.03,1.07,0.43,5.92,-5.0,887.53,31.1
4908823,-0.05,-0.02,1.06,0.31,6.16,-4.7,887.56,31.12
4908861,-0.04,-0.03,1.05,0.24,5.55,-4.58,887.59,31.13
4908899,-0.04,-0.02,1.07,0.12,4.82,-4.39,887.51,31.12
4908937,-0.04,-0.03,1.05,0.0,4.58,-4.27,887.54,31.12
4908975,-0.04,-0.03,1.06,-0.06,3.91,-4.21,887.59,31.12
4909025,-0.05,-0.03,1.06,-0.31,3.42,-4.09,887.57,31.11
4909063,-0.04,-0.03,1.05,-0.55,2.99,-3.85,887.57,31.12
4909101,-0.05,-0.03,1.06,-0.73,3.05,-3.91,887.52,31.12
4909139,-0.05,-0.03,1.05,-0.73,2.99,-3.66,887.55,31.1
4909177,-0.05,-0.03,1.06,-0.85,2.93,-3.72,887.56,31.11
4909216,-0.04,-0.03,1.08,-0.98,3.3,-3.54,887.58,31.12
4909254,-0.05,-0.02,1.09,-0.98,3.6,-3.36,887.61,31.13
4909292,-0.05,-0.02,1.12,-1.04,3.42,-3.42,887.58,31.13
4909330,-0.05,-0.02,1.11,-1.04,4.15,-3.36,887.6,31.14
4909380,-0.03,-0.02,1.12,-1.04,4.39,-3.42,887.56,31.12
4909418,-0.04,-0.01,1.12,-0.98,4.52,-3.17,887.56,31.13
4909456,-0.04,-0.02,1.13,-0.85,5.13,-2.87,887.54,31.12
4909494,-0.04,-0.02,1.12,-0.92,4.88,-3.11,887.57,31.13
4909532,-0.03,-0.01,1.15,-0.92,4.58,-2.93,887.54,31.13
4909570,-0.04,-0.02,1.14,-1.04,4.88,-2.93,887.52,31.13
4909609,-0.04,-0.01,1.14,-0.98,4.21,-2.81,887.55,31.13
4909647,-0.03,-0.02,1.13,-0.85,4.58,-2.62,887.59,31.13
4909685,-0.03,-0.02,1.12,-0.61,4.58,-2.44,887.65,31.13
4909723,-0.03,-0.03,1.12,-0.61,4.64,-2.5,887.63,31.13
4909773,-0.04,-0.02,1.11,-0.49,4.58,-2.56,887.65,31.14
4909811,-0.03,-0.02,1.1,-0.49,4.46,-2.38,887.63,31.13
4909849,-0.03,-0.02,1.11,-0.24,4.39,-2.38,887.65,31.13
4909887,-0.03,-0.03,1.09,-0.24,4.82,-2.38,887.6,31.14
4909925,-0.04,-0.02,1.09,0.0,4.33,-2.2,887.62,31.15
4909963,-0.04,-0.02,1.1,0.18,4.46,-2.26,887.63,31.13
4910001,-0.02,-0.02,1.1,0.31,4.58,-2.26,887.62,31.14
4910039,-0.03,-0.02,1.09,0.67,4.88,-2.32,887.67,31.15
4910078,-0.03,-0.03,1.08,0.73,4.76,-2.26,887.64,31.13
4910153,-0.03,-0.02,1.08,0.85,4.58,-2.44,887.69,31.12
4910191,-0.02,-0.03,1.06,0.85,4.82,-2.26,887.55,31.11
4910230,-0.02,-0.03,1.06,0.55,4.58,-2.38,887.66,31.13
4910319,-0.03,-0.02,1.07,0.0,5.13,-2.2,887.6,31.09
4910357,-0.03,-0.02,1.06,0.18,5.07,-2.26,887.64,31.1
4910395,-0.02,-0.02,1.11,0.06,5.0,-2.32,887.66,31.13
4910433,-0.04,-0.03,1.06,0.0,5.62,-2.14,887.66,31.11
4910472,-0.02,-0.03,1.07,-0.12,5.98,-2.32,887.64,31.11
4910510,-0.02,-0.02,1.1,0.06,6.47,-2.32,887.66,31.12
4910548,-0.02,-0.03,1.07,-0.06,6.41,-2.08,887.66,31.13
4910598,-0.02,-0.02,1.13,0.24,6.71,-2.14,887.58,31.11
4910636,-0.02,-0.04,1.08,0.24,6.71,-2.2,887.62,31.13
4910674,-0.03,-0.03,1.09,0.06,6.23,-2.2,887.56,31.12
4910712,-0.02,-0.03,1.08,0.06,6.77,-2.08,887.68,31.13
4910750,-0.02,-0.04,1.08,-0.18,6.41,-2.2,887.7,31.14
4910788,-0.01,-0.03,1.09,-0.31,6.71,-2.32,887.66,31.14
4910826,-0.02,-0.03,1.08,-0.43,6.96,-2.2,887.58,31.14
4910865,-0.03,-0.03,1.09,-0.49,6.41,-2.26,887.65,31.15
4910903,-0.03,-0.02,1.11,-0.55,6.84,-2.38,887.63,31.13
4910953,-0.03,-0.03,1.11,-0.67,7.02,-2.26,887.62,31.12
4910991,-0.02,-0.03,1.12,-0.79,7.26,-2.38,887.6,31.12
4911029,-0.02,-0.03,1.13,-0.61,7.87,-2.32,887.62,31.14
4911067,-0.02,-0.03,1.11,-0.49,8.48,-2.5,887.67,31.14
4911105,-0.01,-0.03,1.1,-0.37,9.22,-2.26,887.68,31.15
4911143,-0.02,-0.03,1.1,-0.31,9.83,-2.32,887.62,31.15
4911181,-0.01,-0.04,1.08,-0.12,10.13,-2.32,887.63,31.16
4911219,-0.01,-0.03,1.1,-0.31,9.83,-2.2,887.61,31.15
4911258,0.0,-0.03,1.1,-0.37,10.31,-2.38,887.59,31.17
4911307,0.0,-0.03,1.11,-0.61,9.46,-2.26,887.64,31.15
4911345,0.0,-0.03,1.11,-0.73,8.91,-2.14,887.65,31.15
4911384,-0.0,-0.03,1.11,-0.79,8.12,-2.26,887.63,31.17
4911422,0.01,-0.03,1.11,-0.85,7.57,-2.32,887.56,31.15
4911460,0.0,-0.03,1.1,-1.04,6.23,-2.44,887.61,31.16
4911498,0.0,-0.04,1.1,-1.22,5.55,-2.5,887.6,31.17
4911536,0.01,-0.03,1.1,-1.28,4.58,-2.69,887.64,31.16
4911574,0.01,-0.03,1.1,-1.22,4.46,-2.69,887.53,31.16
4911612,0.0,-0.04,1.08,-1.28,3.85,-2.81,887.64,31.16
4911650,-0.01,-0.04,1.07,-1.16,3.97,-3.17,887.64,31.18
4911700,0.0,-0.03,1.09,-1.28,4.03,-3.42,887.62,31.15
4911738,-0.0,-0.04,1.06,-1.34,3.72,-3.54,887.61,31.14
4911776,0.0,-0.03,1.06,-1.28,3.42,-3.66,887.53,31.15
4911815,0.0,-0.04,1.06,-1.4,3.78,-3.78,887.64,31.16
4911853,0.0,-0.03,1.08,-1.77,3.11,-3.97,887.57,31.15
4911891,0.0,-0.03,1.08,-1.89,2.87,-4.03,887.62,31.15
4911929,-0.01,-0.03,1.07,-2.14,2.5,-4.09,887.66,31.16
4911967,-0.01,-0.03,1.09,-2.32,2.62,-4.27,887.61,31.15
4912005,0.0,-0.04,1.08,-2.32,2.5,-4.46,887.55,31.14
4912055,-0.0,-0.03,1.1,-2.32,2.2,-4.39,887.54,31.14
4912093,-0.0,-0.03,1.12,-2.14,1.71,-4.52,887.62,31.15
4912131,-0.0,-0.03,1.11,-2.32,1.95,-4.58,887.54,31.14
4912169,-0.01,-0.02,1.14,-2.2,1.16,-4.64,887.6,31.15
4912207,0.0,-0.02,1.15,-2.14,1.16,-4.76,887.61,31.15
4912246,0.0,-0.02,1.15,-2.32,1.28,-4.94,887.55,31.14
4912284,0.0,-0.02,1.15,-2.08,1.04,-4.94,887.54,31.14
4912322,0.01,-0.02,1.17,-1.89,0.37,-4.94,887.57,31.15
4912360,-0.01,-0.03,1.15,-2.14,0.18,-5.13,887.58,31.15
4912410,-0.0,-0.02,1.16,-1.95,0.31,-5.19,887.61,31.15
4912448,-0.0,-0.03,1.16,-1.89,-0.18,-5.43,887.57,31.15
4912486,-0.01,-0.02,1.13,-1.89,-0.12,-5.49,887.59,31.15
4912524,-0.0,-0.02,1.16,-1.65,0.12,-5.55,887.61,31.14
4912562,-0.0,-0.03,1.1,-1.71,0.37,-5.98,887.57,31.14
4912601,-0.01,-0.01,1.14,-1.65,-0.24,-5.8,887.61,31.17
4912639,-0.01,-0.03,1.11,-1.65,0.85,-6.04,887.6,31.16
4912677,-0.01,-0.03,1.11,-1.53,0.67,-6.1,887.66,31.17
4912715,-0.0,-0.02,1.13,-1.4,1.1,-6.1,887.57,31.15
4912753,-0.01,-0.03,1.1,-1.28,1.22,-6.47,887.6,31.15
4912803,-0.02,-0.02,1.1,-1.4,2.38,-6.47,887.6,31.15
4912841,-0.01,-0.03,1.1,-1.53,2.5,-6.53,887.59,31.14
4912879,-0.01,-0.03,1.1,-1.4,2.75,-6.53,887.53,31.13
4912917,-0.02,-0.02,1.11,-1.4,2.93,-6.47,887.59,31.17
4912955,-0.01,-0.02,1.11,-1.22,3.42,-6.65,887.54,31.15
4912994,-0.02,-0.02,1.1,-1.4,3.78,-6.65,887.61,31.16
4913032,-0.01,-0.02,1.12,-1.4,3.91,-6.77,887.58,31.18
4913070,-0.01,-0.02,1.13,-1.34,4.15,-6.96,887.58,31.16
4913108,-0.01,-0.03,1.11,-1.22,5.07,-6.84,887.56,31.16
4913184,-0.0,-0.03,1.12,-1.28,5.13,-6.96,887.51,31.12
4913222,-0.02,-0.03,1.09,-1.28,4.88,-6.96,887.5,31.13
4913260,-0.01,-0.02,1.13,-1.28,5.13,-6.96,887.51,31.14
4913350,-0.02,-0.03,1.16,-1.53,4.39,-7.08,887.54,31.12
4913388,-0.01,-0.03,1.15,-1.28,4.64,-6.96,887.58,31.13
4913426,-0.01,-0.02,1.14,-1.53,4.46,-7.08,887.59,31.13
4913464,-0.02,-0.02,1.1,-1.53,4.33,-7.14,887.54,31.13
4913502,-0.03,-0.03,1.08,-1.59,4.52,-7.02,887.55,31.13
4913540,-0.02,-0.03,1.08,-1.77,5.19,-7.26,887.56,31.15
4913590,-0.01,-0.02,1.1,-1.77,5.13,-7.2,887.52,31.12
4913628,-0.02,-0.03,1.08,-1.71,5.62,-7.32,887.52,31.13
4913667,-0.02,-0.02,1.1,-1.59,6.23,-7.14,887.52,31.14
4913705,-0.03,-0.02,1.11,-1.46,6.65,-7.2,887.55,31.15
4913743,-0.03,-0.03,1.11,-1.53,7.57,-7.14,887.51,31.14
4913781,-0.03,-0.02,1.11,-1.28,8.0,-7.08,887.62,31.15
4913819,-0.03,-0.02,1.11,-1.16,8.12,-7.14,887.51,31.16
4913857,-0.02,-0.02,1.07,-1.16,8.3,-7.02,887.52,31.16
4913895,-0.02,-0.02,1.1,-1.16,7.93,-7.02,887.5,31.15
4913934,-0.03,-0.03,1.09,-1.1,8.0,-6.84,887.57,31.15
4913983,-0.03,-0.02,1.11,-1.04,8.36,-6.77,887.58,31.14
4914022,-0.03,-0.01,1.12,-1.04,7.93,-6.65,887.51,31.15
4914060,-0.03,-0.02,1.11,-0.73,7.63,-6.53,887.51,31.15
4914098,-0.03,-0.02,1.12,-0.92,7.87,-6.53,887.54,31.16
4914136,-0.03,-0.02,1.13,-0.92,7.75,-6.35,887.59,31.15
4914174,-0.03,-0.02,1.11,-0.79,7.69,-6.16,887.55,31.15
4914212,-0.04,-0.02,1.1,-0.92,7.39,-6.23,887.61,31.16
4914250,-0.04,-0.02,1.1,-0.92,7.08,-6.16,887.65,31.16
4914288,-0.02,-0.02,1.12,-0.92,6.71,-6.04,887.62,31.18
4914338,-0.03,-0.01,1.14,-1.1,6.71,-5.92,887.57,31.15
4914376,-0.03,-0.01,1.16,-1.1,6.71,-5.8,887.58,31.15
4914414,-0.03,-0.02,1.16,-1.04,6.9,-5.74,887.52,31.16
4914453,-0.02,-0.01,1.18,-0.98,6.04,-5.98,887.48,31.16
4914491,-0.03,-0.01,1.16,-1.1,6.04,-5.92,887.58,31.17
4914529,-0.02,-0.01,1.16,-0.92,5.43,-5.86,887.52,31.16
4914567,-0.02,-0.01,1.2,-0.92,4.46,-5.98,887.47,31.17
4914605,-0.06,-0.01,1.16,-1.04,3.91,-5.74,887.46,31.17
4914643,-0.03,-0.01,1.18,-1.16,3.6,-5.74,887.48,31.18
4914693,-0.03,-0.01,1.16,-1.04,3.66,-5.98,887.41,31.15
4914731,-0.02,-0.01,1.19,-1.04,3.85,-6.23,887.46,31.17
4914769,-0.05,-0.01,1.19,-0.92,3.91,-6.16,887.48,31.17
4914807,-0.06,-0.02,1.15,-0.55,3.97,-6.1,887.52,31.18
4914846,-0.04,-0.02,1.14,-0.55,4.33,-6.16,887.51,31.16
4914884,-0.05,-0.02,1.11,-0.43,3.66,-6.29,887.43,31.16
4914922,-0.06,-0.02,1.09,-0.61,3.23,-5.92,887.51,31.17
4914960,-0.04,-0.02,1.07,-0.37,3.23,-5.86,887.46,31.17
4914998,-0.06,-0.03,1.07,-0.31,2.81,-5.74,887.45,31.17
4915036,-0.06,-0.03,1.03,-0.31,2.14,-5.55,887.44,31.16
4915086,-0.06,-0.03,1.03,-0.12,1.65,-5.62,887.48,31.16
4915124,-0.06,-0.03,1.02,-0.37,1.46,-5.49,887.39,31.17
4915162,-0.05,-0.03,1.0,-0.61,1.46,-5.37,887.51,31.16
4915200,-0.05,-0.03,1.01,-0.67,1.22,-5.25,887.46,31.18
4915239,-0.06,-0.04,0.99,-0.67,1.28,-5.19,887.4,31.17
4915277,-0.07,-0.04,0.97,-0.92,0.85,-5.13,887.44,31.17
4915315,-0.07,-0.04,0.98,-0.98,0.98,-5.0,887.4,31.17
4915353,-0.05,-0.04,0.96,-1.34,0.43,-4.94,887.41,31.18
4915391,-0.06,-0.03,0.98,-1.46,0.37,-4.76,887.44,31.17
4915441,-0.05,-0.03,0.99,-1.71,0.61,-4.7,887.39,31.15
4915479,-0.05,-0.02,1.02,-1.71,-0.18,-4.58,887.4,31.15
4915517,-0.06,-0.03,1.02,-1.95,0.31,-4.46,887.38,31.15
4915555,-0.05,-0.03,1.02,-1.95,0.49,-4.39,887.4,31.15
4915594,-0.04,-0.02,1.04,-2.14,0.31,-4.46,887.37,31.14
4915632,-0.05,-0.02,1.01,-1.77,0.06,-4.52,887.45,31.15
4915670,-0.05,-0.02,1.02,-1.59,-0.06,-4.39,887.4,31.16
4915708,-0.05,-0.03,1.03,-1.46,-0.31,-4.46,887.42,31.16
4915746,-0.05,-0.04,1.01,-1.34,-1.04,-4.33,887.36,31.18
4915796,-0.06,-0.02,1.03,-1.16,-1.83,-4.27,887.33,31.15
4915834,-0.07,-0.02,1.01,-0.98,-2.81,-4.21,887.32,31.15
4915872,-0.06,-0.02,1.02,-0.92,-3.6,-3.97,887.32,31.15
4915910,-0.07,-0.02,1.02,-0.98,-4.15,-3.78,887.29,31.14
4915948,-0.08,-0.02,1.02,-0.55,-4.58,-3.78,887.31,31.15
4915987,-0.08,-0.02,1.03,-0.55,-4.76,-3.6,887.25,31.14
4916025,-0.07,-0.02,1.05,-0.18,-4.82,-3.6,887.31,31.15
4916063,-0.06,-0.03,1.03,-0.12,-4.64,-3.36,887.32,31.15
4916101,-0.07,-0.02,1.04,0.12,-5.19,-3.42,887.29,31.15
4916177,-0.07,-0.02,1.0,0.43,-5.07,-3.42,887.31,31.13
4916215,-0.06,-0.02,1.01,0.67,-4.94,-3.3,887.28,31.14
4916253,-0.07,-0.03,0.98,1.04,-5.0,-3.17,887.31,31.14
4916342,-0.06,-0.03,1.02,1.16,-4.46,-3.23,887.36,31.11
4916381,-0.06,-0.03,1.01,1.16,-3.91,-3.3,887.35,31.13
4916419,-0.06,-0.02,1.02,1.53,-3.85,-3.17,887.4,31.13
4916457,-0.05,-0.03,0.98,1.4,-3.48,-3.17,887.32,31.14
4916495,-0.06,-0.02,1.0,1.34,-3.97,-2.99,887.4,31.14
4916533,-0.05,-0.02,0.99,1.34,-3.85,-3.17,887.36,31.15
4916571,-0.05,-0.02,1.01,1.22,-4.15,-3.05,887.35,31.14
4916621,-0.06,-0.02,1.01,1.34,-3.23,-2.99,887.41,31.14
4916659,-0.05,-0.02,1.02,1.22,-2.26,-3.05,887.46,31.14
4916697,-0.05,-0.02,1.05,1.65,-1.4,-2.93,887.48,31.14
4916736,-0.06,-0.02,1.02,1.53,-1.04,-2.87,887.52,31.15
4916774,-0.05,-0.02,1.03,1.83,0.06,-2.93,887.48,31.14
4916812,-0.05,-0.03,1.01,1.83,0.79,-2.75,887.5,31.15
4916850,-0.04,-0.02,1.0,1.95,1.4,-2.75,887.51,31.14
4916888,-0.05,-0.02,0.99,1.89,1.59,-2.75,887.52,31.14
4916926,-0.05,-0.03,0.98,1.77,2.01,-2.44,887.46,31.14
4916976,-0.04,-0.03,0.99,1.83,1.46,-2.2,887.47,31.13
4917014,-0.05,-0.03,0.98,1.65,1.77,-2.32,887.51,31.14
4917052,-0.05,-0.03,0.98,1.71,1.46,-2.01,887.47,31.14
4917090,-0.04,-0.03,0.99,1.71,1.34,-1.89,887.49,31.13
4917129,-0.04,-0.03,0.98,1.59,1.16,-1.83,887.47,31.13
4917167,-0.05,-0.03,0.99,1.65,0.85,-1.59,887.48,31.14
4917205,-0.04,-0.03,0.98,1.65,0.92,-1.53,887.5,31.13
4917243,-0.04,-0.03,0.97,1.53,0.67,-1.28,887.54,31.15
4917281,-0.05,-0.03,0.96,1.46,0.92,-1.22,887.57,31.15
4917331,-0.04,-0.03,0.97,1.28,0.98,-1.22,887.55,31.14
4917369,-0.04,-0.04,0.96,1.34,0.85,-1.1,887.57,31.15
4917407,-0.05,-0.03,0.96,1.22,0.85,-0.98,887.51,31.14
4917445,-0.04,-0.03,0.95,1.28,1.83,-0.79,887.57,31.16
4917483,-0.04,-0.03,0.95,1.22,1.71,-0.79,887.55,31.16
4917521,-0.05,-0.03,0.97,1.34,2.32,-0.73,887.58,31.16
4917560,-0.04,-0.04,0.96,1.4,2.99,-0.73,887.59,31.16
4917598,-0.03,-0.03,0.98,1.16,3.36,-0.61,887.59,31.16
4917636,-0.03,-0.02,1.01,1.16,3.97,-0.61,887.58,31.17
4917674,-0.01,-0.03,1.02,0.98,3.91,-0.43,887.55,31.16
4917724,-0.02,-0.02,1.05,1.1,4.03,-0.55,887.54,31.16
4917762,-0.0,-0.03,1.07,1.04,3.97,-0.61,887.57,31.17
4917800,-0.0,-0.03,1.06,0.67,4.46,-0.61,887.54,31.17
4917838,-0.01,-0.01,1.1,0.73,4.21,-0.61,887.53,31.16
4917876,-0.0,-0.02,1.08,0.98,5.19,-0.73,887.47,31.17
4917914,0.0,-0.02,1.1,0.79,4.52,-0.85,887.58,31.17
4917952,-0.01,-0.02,1.1,0.98,4.33,-0.85,887.55,31.16
4917991,-0.01,-0.03,1.08,0.85,4.39,-0.92,887.49,31.17
4918029,0.0,-0.02,1.09,0.67,5.0,-0.98,887.51,31.17
4918078,0.01,-0.03,1.07,0.85,5.25,-1.16,887.59,31.17
4918117,0.01,-0.02,1.05,0.49,5.86,-1.22,887.55,31.17
4918155,0.0,-0.03,1.04,0.73,5.55,-1.34,887.53,31.16
4918193,0.0,-0.03,1.04,0.92,5.43,-1.59,887.61,31.17
4918231,-0.0,-0.04,1.03,1.1,4.39,-1.59,887.57,31.16
4918269,0.0,-0.04,1.0,1.16,4.33,-1.65,887.55,31.16
4918307,0.0,-0.03,0.97,0.79,4.46,-1.89,887.59,31.18
4918345,0.01,-0.03,0.99,0.49,4.09,-1.89,887.56,31.16
4918383,0.0,-0.03,1.0,-0.06,3.85,-1.89,887.51,31.17
4918422,-0.0,-0.04,1.03,0.0,3.54,-2.08,887.52,31.17
4918471,-0.01,-0.03,1.03,-0.24,3.11,-2.44,887.54,31.15
4918509,0.01,-0.03,1.06,-0.31,2.69,-2.32,887.54,31.17
4918547,-0.01,-0.02,1.07,-0.37,1.89,-2.26,887.51,31.17
4918586,-0.01,-0.02,1.09,-0.24,2.44,-2.5,887.54,31.16
4918624,-0.01,-0.01,1.09,-0.43,2.08,-2.5,887.52,31.16
4918662,0.0,-0.01,1.18,-0.73,1.71,-2.62,887.54,31.17
4918700,-0.02,-0.03,1.14,-0.79,2.38,-2.62,887.61,31.18
4918738,-0.02,-0.01,1.19,-0.55,1.59,-2.81,887.58,31.16
4918776,-0.01,-0.01,1.18,-0.37,2.2,-2.75,887.53,31.17
4918826,-0.01,-0.01,1.17,-0.18,1.4,-3.05,887.54,31.16
4918864,-0.01,-0.01,1.14,0.12,2.69,-3.17,887.55,31.17
4918902,0.0,-0.02,1.14,0.24,2.32,-3.36,887.47,31.15
4918940,-0.01,-0.02,1.15,0.73,2.38,-3.23,887.59,31.17
4918978,-0.01,-0.02,1.13,0.79,2.44,-3.36,887.57,31.17
4919017,-0.01,-0.01,1.15,1.34,2.87,-3.66,887.58,31.17
4919055,-0.0,-0.02,1.12,1.46,3.3,-3.54,887.58,31.17
4919093,-0.01,-0.02,1.1,1.59,2.93,-3.66,887.62,31.18
4919131,-0.02,-0.02,1.07,1.59,3.42,-3.91,887.6,31.17
4919169,-0.01,-0.03,1.06,1.46,3.36,-3.91,887.58,31.17
4919245,-0.02,-0.03,1.03,1.53,3.11,-3.97,887.54,31.14
4919283,-0.01,-0.03,1.05,1.34,3.11,-4.15,887.52,31.16
4919321,-0.01,-0.03,1.04,1.34,3.3,-4.27,887.48,31.15
4919485,-0.02,-0.03,1.04,1.1,3.3,-4.21,887.53,31.09
4919523,-0.03,-0.03,1.02,0.98,3.36,-4.39,887.59,31.12
4919561,-0.03,-0.02,1.02,0.98,3.05,-4.39,887.59,31.13
4919599,-0.03,-0.03,1.02,0.92,3.36,-4.21,887.52,31.13
4919638,-0.02,-0.03,1.03,0.73,2.99,-4.21,887.55,31.13
4919676,-0.03,-0.02,1.04,0.92,2.75,-4.27,887.57,31.13
4919725,-0.04,-0.03,1.04,0.85,2.75,-4.15,887.55,31.14
4919764,-0.03,-0.03,1.05,0.85,2.69,-4.15,887.6,31.15
4919802,-0.03,-0.02,1.04,1.04,2.99,-4.03,887.59,31.14
4919840,-0.03,-0.02,1.03,1.04,2.81,-4.15,887.51,31.15
4919878,-0.04,-0.03,1.04,1.04,3.17,-4.09,887.58,31.16
4919916,-0.03,-0.03,1.03,0.98,3.23,-4.03,887.51,31.15
4919954,-0.04,-0.03,1.05,1.16,2.99,-4.03,887.5,31.16
4919992,-0.04,-0.02,1.03,1.16,2.87,-3.97,887.6,31.17
4920030,-0.03,-0.02,1.03,1.34,3.05,-4.03,887.56,31.17
4920068,-0.04,-0.03,1.01,1.28,3.6,-3.85,887.57,31.15
4920118,-0.03,-0.03,1.02,1.28,3.42,-3.72,887.51,31.15
4920156,-0.04,-0.02,1.02,1.34,3.48,-3.78,887.57,31.16
4920194,-0.03,-0.02,1.02,1.4,4.03,-3.66,887.53,31.17
4920233,-0.03,-0.03,1.02,1.4,4.09,-3.78,887.51,31.16
4920271,-0.03,-0.03,1.01,1.4,3.91,-3.85,887.51,31.17
4920309,-0.04,-0.03,1.0,1.4,4.52,-3.54,887.57,31.17
4920347,-0.03,-0.03,0.97,1.4,4.64,-3.54,887.56,31.17
4920385,-0.04,-0.02,0.99,1.4,3.97,-3.66,887.48,31.18
4920423,-0.04,-0.03,0.97,1.34,4.58,-3.66,887.51,31.18
4920473,-0.03,-0.03,1.01,1.28,4.15,-3.6,887.47,31.17
4920511,-0.04,-0.03,0.99,1.34,4.39,-3.54,887.54,31.17
4920549,-0.05,-0.03,1.0,1.34,3.97,-3.36,887.49,31.18
4920587,-0.04,-0.03,1.0,1.4,4.58,-3.3,887.46,31.17
4920625,-0.04,-0.03,0.99,1.4,4.27,-3.36,887.5,31.19
4920663,-0.04,-0.03,1.0,1.4,4.46,-3.3,887.51,31.19
4920702,-0.04,-0.03,0.96,1.34,4.03,-3.05,887.48,31.18
4920740,-0.04,-0.02,1.0,1.4,3.66,-2.93,887.49,31.17
4920778,-0.03,-0.03,1.01,1.34,3.11,-3.05,887.45,31.18
4920816,-0.05,-0.03,1.05,1.34,2.99,-2.75,887.44,31.18
4920866,-0.04,-0.02,1.06,1.34,2.99,-2.75,887.41,31.17
4920904,-0.04,-0.01,1.1,1.28,3.17,-2.81,887.41,31.17
4920942,-0.03,-0.02,1.07,1.16,3.48,-2.5,887.46,31.2
4920980,-0.04,-0.01,1.08,1.16,2.75,-2.75,887.45,31.19
4921018,-0.05,-0.02,1.06,1.22,3.54,-2.75,887.43,31.19
4921057,-0.03,-0.03,1.02,1.28,2.81,-2.75,887.5,31.19
4921095,-0.04,-0.02,1.05,1.46,2.62,-2.56,887.43,31.19
4921133,-0.05,-0.03,1.0,1.65,2.56,-2.69,887.43,31.2
4921171,-0.04,-0.03,1.03,1.4,2.44,-2.62,887.43,31.2
4921221,-0.04,-0.03,1.03,1.77,2.75,-2.5,887.45,31.17
4921259,-0.04,-0.03,1.02,1.65,2.81,-2.32,887.48,31.19
4921297,-0.04,-0.03,1.02,1.53,3.3,-2.62,887.41,31.18
4921335,-0.04,-0.03,1.03,1.71,3.11,-2.62,887.47,31.17
4921373,-0.05,-0.03,1.0,1.71,3.17,-2.44,887.46,31.19
4921411,-0.04,-0.03,1.03,1.59,3.42,-2.56,887.46,31.18
4921450,-0.03,-0.03,1.03,1.59,3.91,-2.69,887.42,31.17
4921488,-0.04,-0.03,1.02,1.53,3.91,-2.62,887.43,31.18
4921526,-0.04,-0.03,1.02,1.53,4.27,-2.75,887.48,31.18
4921564,-0.03,-0.03,1.02,1.4,4.52,-2.56,887.43,31.17
4921614,-0.04,-0.03,1.02,1.46,5.07,-2.5,887.42,31.17
4921652,-0.05,-0.03,1.03,1.4,5.19,-2.69,887.36,31.17
4921690,-0.05,-0.03,1.02,1.16,5.68,-2.38,887.42,31.18
4921728,-0.05,-0.03,1.04,1.4,5.68,-2.38,887.45,31.2
4921766,-0.03,-0.03,1.03,1.4,6.29,-2.32,887.41,31.18
4921805,-0.03,-0.04,1.02,1.77,6.59,-2.62,887.41,31.18
4921843,-0.03,-0.04,0.99,1.95,6.65,-2.44,887.46,31.19
4921881,-0.02,-0.04,0.98,1.89,6.23,-2.38,887.43,31.19
4921919,-0.03,-0.05,0.96,1.83,6.84,-2.32,887.44,31.18
4921969,-0.04,-0.04,0.95,1.71,6.53,-2.5,887.42,31.17
4922007,-0.03,-0.05,0.93,1.65,6.65,-2.44,887.4,31.19
4922045,-0.03,-0.04,0.95,1.34,6.16,-2.62,887.45,31.19
4922083,-0.03,-0.04,0.96,1.4,6.29,-2.44,887.42,31.19
4922122,-0.03,-0.05,0.97,1.22,6.16,-2.44,887.46,31.2
4922160,-0.04,-0.05,0.96,1.22,6.1,-2.44,887.38,31.18
4922198,-0.04,-0.04,0.95,1.22,6.41,-2.44,887.38,31.2
4922236,-0.03,-0.04,0.96,1.1,6.23,-2.44,887.34,31.18
4922274,-0.01,-0.05,0.95,1.22,5.62,-2.69,887.33,31.21
4922312,-0.03,-0.05,0.94,1.04,4.94,-2.5,887.32,31.2
4922388,-0.03,-0.05,0.95,0.92,3.23,-2.69,887.34,31.17
4922426,-0.04,-0.04,0.96,0.85,1.83,-2.56,887.29,31.18
4922465,-0.04,-0.04,0.96,0.73,1.16,-2.69,887.31,31.18
4922554,-0.03,-0.04,0.98,0.55,-0.37,-2.69,887.27,31.15
4922592,-0.05,-0.03,0.97,0.43,-0.67,-2.56,887.26,31.15
4922630,-0.05,-0.03,0.99,0.37,-0.73,-2.69,887.26,31.17
4922669,-0.05,-0.04,0.98,0.37,-0.85,-2.75,887.25,31.18
4922707,-0.05,-0.04,1.0,0.49,-1.53,-2.81,887.29,31.17
4922745,-0.05,-0.04,1.01,0.55,-1.34,-2.81,887.23,31.16
4922795,-0.04,-0.03,1.02,0.61,-1.53,-2.75,887.29,31.16
4922833,-0.06,-0.03,1.01,0.79,-2.2,-2.62,887.31,31.18
4922871,-0.06,-0.04,0.99,0.79,-2.2,-2.62,887.23,31.18
4922909,-0.06,-0.04,0.99,0.67,-2.01,-2.56,887.29,31.18
4922947,-0.06,-0.04,0.98,1.04,-2.81,-2.32,887.24,31.19
4922985,-0.07,-0.04,0.95,1.04,-2.87,-2.32,887.23,31.18
4923023,-0.06,-0.04,0.96,1.28,-2.62,-2.38,887.2,31.17
4923062,-0.05,-0.04,0.96,1.16,-2.32,-2.2,887.19,31.17
4923100,-0.07,-0.04,0.94,1.22,-2.93,-2.14,887.24,31.19
4923150,-0.07,-0.04,0.96,1.16,-2.44,-2.26,887.18,31.19
4923188,-0.06,-0.04,0.97,1.1,-2.5,-2.14,887.24,31.19
4923226,-0.07,-0.04,0.98,1.04,-2.81,-2.01,887.24,31.2
4923264,-0.07,-0.04,0.99,0.98,-2.56,-1.95,887.17,31.17
4923302,-0.06,-0.04,1.0,0.79,-1.83,-2.08,887.15,31.17
4923340,-0.06,-0.03,1.0,0.79,-2.26,-1.89,887.23,31.19
4923379,-0.07,-0.03,1.0,0.79,-2.5,-1.89,887.22,31.18
4923417,-0.06,-0.04,0.96,0.98,-1.83,-1.95,887.23,31.18
4923455,-0.06,-0.03,0.98,1.16,-1.65,-1.77,887.21,31.19
4923493,-0.06,-0.04,0.96,1.16,-1.77,-1.77,887.25,31.19
4923543,-0.06,-0.03,0.98,1.28,-1.59,-1.59,887.25,31.18
4923581,-0.06,-0.03,0.99,1.4,-1.16,-1.53,887.28,31.18
4923619,-0.06,-0.04,0.99,1.46,-0.67,-1.71,887.26,31.2
4923658,-0.07,-0.03,1.0,1.65,-0.24,-1.59,887.29,31.17
4923696,-0.06,-0.04,1.0,1.59,0.73,-1.65,887.32,31.19
4923734,-0.07,-0.03,1.0,1.59,1.89,-1.59,887.32,31.2
4923772,-0.06,-0.03,1.01,2.2,2.38,-1.34,887.32,31.19
4923810,-0.06,-0.04,0.99,2.08,2.75,-1.4,887.31,31.19
4923848,-0.06,-0.02,1.0,2.01,3.23,-1.22,887.35,31.19
4923898,-0.05,-0.04,1.01,2.01,3.91,-1.04,887.32,31.17
4923936,-0.04,-0.04,1.02,2.2,3.91,-0.98,887.31,31.17
4923975,-0.04,-0.03,1.03,2.08,4.39,-1.1,887.36,31.18
4924013,-0.04,-0.04,1.01,2.26,5.0,-0.92,887.38,31.17
4924051,-0.04,-0.04,1.0,2.01,5.49,-0.67,887.35,31.18
4924089,-0.05,-0.04,0.97,2.38,5.19,-0.92,887.4,31.19
4924127,-0.05,-0.04,0.95,2.2,5.19,-0.79,887.33,31.17
4924166,-0.03,-0.04,0.97,2.32,5.49,-0.61,887.34,31.19
4924204,-0.03,-0.04,0.96,2.32,5.13,-0.73,887.37,31.18
4924242,-0.03,-0.04,0.98,2.56,4.58,-0.73,887.38,31.19
4924292,-0.03,-0.04,0.97,2.56,4.46,-0.67,887.35,31.17
4924330,-0.03,-0.04,0.98,2.44,4.39,-0.67,887.34,31.19
4924368,-0.02,-0.04,0.97,2.5,4.33,-0.73,887.36,31.17
4924406,-0.03,-0.03,0.99,2.5,4.21,-0.79,887.37,31.18
4924444,-0.03,-0.05,0.94,2.75,4.33,-0.67,887.38,31.18
4924483,-0.02,-0.04,0.97,2.38,4.33,-0.79,887.32,31.2
4924521,-0.03,-0.04,0.97,2.56,4.82,-0.85,887.33,31.19
4924559,-0.03,-0.05,0.95,2.69,5.0,-0.98,887.33,31.19
4924597,-0.04,-0.05,0.97,2.81,5.55,-1.1,887.26,31.18
4924647,-0.03,-0.05,0.91,2.69,5.98,-1.22,887.34,31.17
4924685,-0.04,-0.05,0.9,2.75,6.04,-1.28,887.36,31.19
4924723,-0.03,-0.05,0.88,2.5,5.98,-1.28,887.4,31.2
4924761,-0.04,-0.05,0.88,2.32,5.86,-1.22,887.33,31.18
4924799,-0.05,-0.06,0.86,2.38,5.92,-1.04,887.32,31.19
4924838,-0.05,-0.05,0.86,2.62,5.55,-1.1,887.39,31.2
4924876,-0.03,-0.05,0.85,2.56,5.31,-1.04,887.37,31.19
4924914,-0.02,-0.06,0.83,2.32,5.49,-0.92,887.37,31.19
4924952,-0.04,-0.06,0.83,2.26,5.86,-0.85,887.43,31.2
4924990,-0.04,-0.06,0.84,2.26,5.68,-0.98,887.36,31.18
4925040,-0.05,-0.05,0.85,2.08,5.74,-0.79,887.38,31.19
4925078,-0.05,-0.06,0.85,1.89,5.8,-0.98,887.37,31.19
4925117,-0.06,-0.06,0.86,1.65,5.86,-0.92,887.42,31.19
4925155,-0.03,-0.05,0.9,1.22,5.74,-0.73,887.36,31.19
4925193,-0.02,-0.05,0.91,1.16,6.04,-0.85,887.4,31.2
4925231,-0.04,-0.05,0.91,1.22,5.8,-0.73,887.32,31.2
4925269,-0.05,-0.04,0.92,1.04,5.86,-0.85,887.36,31.2
4925307,-0.04,-0.05,0.93,0.98,6.23,-0.92,887.33,31.19
4925346,-0.04,-0.05,0.94,0.79,5.43,-0.79,887.31,31.19
4925421,-0.04,-0.05,0.94,0.85,5.92,-0.73,887.36,31.17
4925460,-0.02,-0.04,0.97,0.73,5.55,-0.61,887.39,31.19
4925498,-0.06,-0.04,0.99,0.79,4.7,-0.49,887.36,31.19
4925588,-0.03,-0.03,1.01,0.67,3.91,-0.43,887.41,31.16
4925626,-0.03,-0.04,1.0,0.73,2.93,-0.49,887.31,31.17
4925664,-0.04,-0.04,1.0,0.55,2.01,-0.24,887.34,31.17
4925702,-0.03,-0.04,1.05,0.67,1.89,-0.24,887.43,31.19
4925740,-0.03,-0.05,1.01,0.92,1.83,-0.49,887.39,31.18
4925778,-0.04,-0.04,1.02,0.67,1.71,-0.43,887.4,31.19
4925817,-0.04,-0.04,1.01,0.79,1.71,-0.31,887.37,31.19
4925867,-0.04,-0.03,1.02,0.43,1.71,-0.24,887.44,31.18
4925905,-0.03,-0.03,1.03,0.37,1.59,-0.37,887.39,31.19
4925943,-0.04,-0.03,1.03,0.18,1.34,-0.37,887.41,31.18
4925981,-0.05,-0.03,1.04,0.24,1.77,-0.49,887.41,31.19
4926019,-0.05,-0.03,1.06,0.12,2.2,-0.43,887.41,31.2
4926057,-0.04,-0.03,1.06,0.0,2.38,-0.43,887.4,31.19
4926096,-0.05,-0.03,1.06,0.12,2.5,-0.31,887.4,31.19
4926134,-0.05,-0.03,1.06,0.18,2.32,-0.31,887.38,31.21
4926172,-0.03,-0.03,1.07,0.37,2.26,-0.31,887.35,31.2
4926222,-0.04,-0.03,1.1,0.55,2.26,-0.18,887.4,31.2
4926260,-0.04,-0.03,1.09,0.61,2.32,0.0,887.39,31.21
4926298,-0.05,-0.02,1.13,0.67,2.75,-0.18,887.36,31.2
4926336,-0.03,-0.03,1.14,0.73,2.75,-0.12,887.35,31.2
4926374,-0.03,-0.03,1.12,0.73,2.69,-0.24,887.43,31.2
4926413,-0.04,-0.02,1.1,0.98,2.93,-0.31,887.39,31.2
4926451,-0.03,-0.02,1.1,1.1,3.36,-0.18,887.37,31.21
4926489,-0.03,-0.03,1.1,1.16,3.3,-0.31,887.36,31.2
4926527,-0.03,-0.03,1.09,1.16,3.36,-0.37,887.41,31.21
4926565,-0.04,-0.03,1.08,1.59,3.23,-0.43,887.42,31.21
4926615,-0.02,-0.02,1.11,1.65,3.54,-0.43,887.37,31.2
4926653,-0.03,-0.02,1.1,1.89,3.78,-0.49,887.4,31.19
4926692,-0.03,-0.02,1.1,2.14,3.66,-0.55,887.47,31.21
4926730,-0.04,-0.03,1.06,2.2,3.66,-0.43,887.4,31.2
4926768,-0.03,-0.02,1.06,2.14,3.66,-0.55,887.42,31.21
4926806,-0.03,-0.02,1.05,2.26,3.17,-0.49,887.44,31.21
4926844,-0.03,-0.03,1.03,2.26,2.87,-0.49,887.45,31.22
4926883,-0.03,-0.03,1.05,2.14,3.17,-0.55,887.4,31.22
4926921,-0.02,-0.03,1.06,2.2,3.05,-0.49,887.42,31.21
4926971,-0.04,-0.03,1.04,2.2,2.87,-0.55,887.44,31.2
4927009,-0.05,-0.04,1.03,2.26,3.05,-0.43,887.43,31.2
4927047,-0.03,-0.04,1.0,2.32,3.78,-0.61,887.37,31.2
4927085,-0.03,-0.04,0.96,2.08,4.03,-0.55,887.45,31.21
4927123,-0.03,-0.03,0.96,2.08,4.15,-0.55,887.38,31.2
4927161,-0.02,-0.04,0.91,2.32,4.58,-0.67,887.4,31.21
4927199,-0.04,-0.04,0.96,2.5,4.58,-0.67,887.43,31.2
4927238,-0.03,-0.05,0.95,2.56,4.94,-0.73,887.45,31.2
4927276,-0.03,-0.04,0.97,2.38,4.64,-0.79,887.45,31.2
4927314,-0.03,-0.04,0.96,2.81,5.37,-0.79,887.45,31.2
4927364,-0.03,-0.04,0.96,2.69,4.82,-0.61,887.4,31.19
4927402,-0.04,-0.05,0.96,2.62,5.25,-0.79,887.4,31.21
4927440,-0.04,-0.04,0.95,2.44,5.68,-0.85,887.46,31.2
4927478,-0.03,-0.03,1.01,2.5,5.98,-0.92,887.44,31.21
4927517,-0.04,-0.04,1.0,2.38,6.29,-0.85,887.42,31.2
4927555,-0.04,-0.04,1.05,2.08,5.98,-0.92,887.41,31.22
4927593,-0.01,-0.04,1.05,2.26,6.1,-0.73,887.41,31.21
4927631,-0.05,-0.03,1.04,1.95,5.13,-0.98,887.37,31.21
4927669,-0.03,-0.04,1.02,1.77,5.25,-0.85,887.46,31.23
4927719,-0.03,-0.04,1.04,1.77,4.82,-0.98,887.45,31.2
4927757,-0.02,-0.04,0.99,1.59,5.13,-0.98,887.42,31.21
4927795,-0.03,-0.04,0.98,1.53,4.64,-0.98,887.43,31.2
4927833,-0.03,-0.04,1.01,1.65,5.37,-1.1,887.4,31.2
4927872,-0.02,-0.04,1.01,1.71,5.62,-1.04,887.48,31.2
4927910,-0.03,-0.04,1.03,1.59,5.31,-1.22,887.43,31.2
4927948,-0.04,-0.04,0.98,1.4,6.16,-1.28,887.47,31.2
4927986,-0.02,-0.03,1.05,1.59,6.29,-1.53,887.45,31.2
4928024,-0.02,-0.04,1.02,1.77,6.59,-1.53,887.46,31.21
4928074,-0.03,-0.04,1.03,1.83,6.35,-1.28,887.38,31.19
4928112,-0.03,-0.04,1.02,1.83,6.9,-1.4,887.47,31.19
4928150,-0.03,-0.03,1.05,1.53,6.59,-1.65,887.43,31.2
4928188,-0.02,-0.04,1.01,1.83,7.02,-1.46,887.44,31.2
4928227,-0.03,-0.04,1.0,1.71,6.53,-1.53,887.44,31.21
4928265,-0.04,-0.04,1.0,1.89,7.26,-1.65,887.42,31.21
4928303,-0.04,-0.04,0.97,1.65,6.71,-1.53,887.42,31.2
4928341,-0.03,-0.03,1.01,1.77,6.23,-1.71,887.38,31.19
4928379,-0.03,-0.04,0.98,1.83,6.96,-1.53,887.37,31.21
4928418,-0.04,-0.04,1.01,1.53,6.47,-1.59,887.41,31.2
4928493,-0.03,-0.04,1.04,1.65,6.41,-1.65,887.39,31.17
4928532,-0.04,-0.03,1.05,1.4,7.14,-1.65,887.35,31.17
4928570,-0.03,-0.04,1.06,1.71,7.08,-1.59,887.39,31.2
4928659,-0.05,-0.03,1.06,1.46,6.9,-1.34,887.36,31.15
4928698,-0.03,-0.04,1.02,1.4,7.63,-1.34,887.4,31.16
4928736,-0.02,-0.03,1.06,1.22,6.29,-1.53,887.36,31.17
4928774,-0.04,-0.04,1.05,1.46,7.57,-1.34,887.33,31.17
4928812,-0.04,-0.05,1.02,1.4,7.08,-1.4,887.36,31.17
4928850,-0.03,-0.03,1.09,1.46,6.96,-1.46,887.36,31.19
4928900,-0.03,-0.03,1.06,1.4,6.96,-1.46,887.39,31.16
4928938,-0.04,-0.03,1.09,1.1,7.57,-1.46,887.39,31.18
4928977,-0.03,-0.04,1.04,1.53,7.87,-1.59,887.42,31.18
4929015,-0.04,-0.04,1.04,1.46,7.51,-1.59,887.38,31.17
4929053,-0.03,-0.04,1.04,1.4,7.81,-1.65,887.41,31.19
4929091,-0.03,-0.04,1.04,1.22,7.81,-1.65,887.37,31.19
4929130,-0.03,-0.04,1.05,1.16,7.87,-1.65,887.34,31.19
4929168,-0.03,-0.04,1.03,0.73,7.45,-1.59,887.38,31.19
4929206,-0.05,-0.03,1.04,0.67,7.81,-1.77,887.38,31.19
4929244,-0.04,-0.04,1.1,0.37,8.18,-1.83,887.39,31.19
4929294,-0.04,-0.03,1.12,0.43,8.79,-1.83,887.31,31.18
4929332,-0.05,-0.03,1.12,0.12,8.24,-1.71,887.34,31.19
4929370,-0.03,-0.03,1.13,-0.12,8.42,-1.83,887.39,31.19
4929409,-0.03,-0.02,1.12,-0.24,8.24,-1.71,887.31,31.19
4929447,-0.04,-0.03,1.13,0.12,7.93,-1.83,887.4,31.21
4929485,-0.05,-0.04,1.13,0.0,7.63,-1.65,887.36,31.19
