timestamp,acc_x,acc_y,acc_z,rot_x,rot_y,rot_z,qfe,temp
5613519,-0.04,-0.07,0.93,2.44,6.23,-0.12,929.9,30.84
5613557,-0.02,-0.06,0.94,2.44,6.29,-0.18,929.92,30.86
5613595,-0.03,-0.07,0.89,2.32,5.86,-0.18,929.87,30.86
5613633,-0.03,-0.07,0.91,2.14,4.64,-0.12,929.86,30.86
5613671,-0.02,-0.07,0.88,1.83,4.88,-0.24,929.9,30.87
5613709,-0.03,-0.07,0.9,1.59,4.88,-0.18,929.87,30.87
5613748,-0.04,-0.07,0.92,1.53,4.21,-0.18,929.85,30.86
5613786,-0.02,-0.07,0.94,1.34,4.52,-0.24,929.87,30.88
5613824,-0.02,-0.07,0.99,1.22,4.94,-0.12,929.82,30.85
5613862,-0.04,-0.06,1.03,1.28,4.94,-0.24,929.87,30.87
5613912,-0.03,-0.06,1.05,1.22,5.31,-0.31,929.86,30.86
5613950,-0.03,-0.06,1.06,1.28,5.25,-0.43,929.85,30.87
5613988,-0.03,-0.05,1.06,1.46,5.49,-0.31,929.85,30.86
5614026,-0.05,-0.06,1.02,1.65,6.04,-0.43,929.88,30.87
5614064,-0.04,-0.05,1.05,1.53,5.55,-0.31,929.86,30.88
5614103,-0.03,-0.05,1.06,1.59,5.8,-0.37,929.83,30.87
5614141,-0.03,-0.05,1.08,1.59,5.68,-0.37,929.88,30.87
5614179,-0.05,-0.05,1.1,1.71,6.41,-0.18,929.85,30.86
5614217,-0.05,-0.05,1.1,1.59,6.77,-0.24,929.8,30.88
5614267,-0.05,-0.05,1.12,2.32,7.51,-0.18,929.89,30.87
5614305,-0.05,-0.05,1.13,2.5,7.45,-0.18,929.81,30.86
5614343,-0.04,-0.05,1.11,2.69,8.48,-0.18,929.77,30.86
5614381,-0.05,-0.05,1.08,2.99,8.48,-0.12,929.83,30.87
5614420,-0.05,-0.05,1.1,3.11,8.36,0.18,929.8,30.87
5614458,-0.04,-0.06,1.06,2.99,8.67,0.24,929.76,30.87
5614496,-0.05,-0.05,1.08,2.99,9.09,0.49,929.86,30.87
5614534,-0.05,-0.06,1.04,3.11,9.46,0.61,929.8,30.87
5614572,-0.04,-0.06,1.04,3.11,9.09,0.55,929.78,30.87
5614610,-0.05,-0.06,0.99,2.93,9.03,0.67,929.86,30.87
5614660,-0.05,-0.06,0.98,2.56,9.22,0.85,929.83,30.86
5614698,-0.03,-0.06,0.94,2.32,9.09,0.85,929.78,30.87
5614736,-0.04,-0.06,0.94,1.95,8.67,1.04,929.8,30.86
5614774,-0.03,-0.07,0.92,1.77,9.09,1.04,929.75,30.86
5614813,-0.04,-0.07,0.97,1.71,8.54,1.1,929.85,30.87
5614851,-0.03,-0.07,0.95,1.46,8.97,1.16,929.81,30.87
5614889,-0.02,-0.06,1.0,1.4,8.97,0.98,929.81,30.87
5614927,-0.02,-0.07,0.98,1.71,10.74,1.04,929.77,30.87
5614965,-0.02,-0.07,0.95,1.77,11.54,1.16,929.71,30.87
5615015,-0.03,-0.08,0.96,2.2,13.98,1.04,929.71,30.87
5615053,-0.03,-0.07,0.97,2.08,14.47,1.28,929.7,30.87
5615091,-0.03,-0.06,1.0,2.2,14.77,1.28,929.65,30.87
5615130,-0.01,-0.07,1.01,2.08,15.62,1.16,929.65,30.88
5615168,-0.02,-0.07,1.01,1.95,15.93,1.4,929.63,30.86
5615206,-0.02,-0.07,1.03,1.77,15.62,1.53,929.59,30.87
5615244,-0.01,-0.08,1.02,1.65,15.93,1.53,929.59,30.89
5615282,-0.01,-0.08,0.98,1.04,16.11,1.59,929.65,30.88
5615320,-0.01,-0.08,0.95,0.49,15.81,1.65,929.62,30.88
5615359,0.0,-0.06,0.99,-0.43,15.5,1.65,929.59,30.88
5615408,0.0,-0.07,1.09,-0.98,13.98,1.89,929.61,30.87
5615447,-0.01,-0.08,1.1,-1.16,13.85,1.83,929.66,30.88
5615485,-0.0,-0.07,1.1,-1.4,13.92,1.83,929.63,30.88
5615523,0.02,-0.06,1.18,-1.34,13.92,1.89,929.65,30.9
5615561,-0.0,-0.07,1.13,-1.34,13.85,1.83,929.63,30.89
5615599,-0.0,-0.05,1.15,-1.4,13.12,1.95,929.62,30.88
5615637,0.02,-0.06,1.19,-1.46,14.16,1.71,929.58,30.88
5615676,0.02,-0.06,1.19,-1.77,12.57,1.77,929.61,30.89
5615714,-0.0,-0.06,1.24,-1.59,11.29,1.71,929.58,30.89
5615764,0.02,-0.07,1.19,-1.53,13.18,1.77,929.52,30.87
5615802,0.02,-0.05,1.25,-1.77,11.96,1.65,929.62,30.88
5615840,0.01,-0.05,1.19,-1.89,12.15,1.59,929.53,30.87
5615878,-0.0,-0.05,1.22,-2.08,11.84,1.77,929.54,30.88
5615916,0.02,-0.05,1.23,-1.83,13.0,1.53,929.59,30.88
5615955,0.02,-0.05,1.24,-1.77,11.78,1.53,929.58,30.88
5615993,0.01,-0.05,1.23,-1.77,11.78,1.46,929.53,30.87
5616031,0.02,-0.05,1.23,-1.34,12.15,1.46,929.52,30.89
5616069,0.03,-0.05,1.22,-1.04,12.21,1.34,929.5,30.87
5616107,0.03,-0.06,1.2,-0.92,11.54,1.22,929.47,30.88
5616183,0.04,-0.07,1.14,-0.43,12.82,0.92,929.48,30.86
5616221,0.04,-0.07,1.13,-0.55,12.94,0.49,929.5,30.87
5616259,0.02,-0.06,1.06,-0.49,12.33,0.67,929.51,30.88
5616349,0.04,-0.07,1.06,-1.16,13.18,-0.18,929.42,30.85
5616387,0.04,-0.08,1.04,-1.34,13.24,-0.31,929.41,30.86
5616425,0.05,-0.07,1.03,-1.46,13.61,-0.49,929.41,30.87
5616464,0.04,-0.07,1.03,-1.4,14.4,-0.92,929.49,30.87
5616502,0.04,-0.07,1.0,-1.71,13.98,-1.1,929.44,30.87
5616540,0.04,-0.06,1.02,-1.65,13.0,-1.04,929.44,30.86
5616590,0.03,-0.08,1.01,-2.26,12.39,-1.59,929.46,30.86
5616628,0.05,-0.06,1.07,-2.75,11.05,-1.59,929.36,30.84
5616666,0.05,-0.06,1.08,-3.23,9.89,-1.77,929.42,30.88
5616704,0.03,-0.06,1.09,-3.78,9.09,-1.89,929.38,30.87
5616742,0.04,-0.05,1.14,-3.78,8.06,-2.08,929.36,30.86
5616780,0.05,-0.06,1.12,-4.09,7.39,-2.26,929.34,30.86
5616819,0.04,-0.05,1.14,-4.21,6.53,-2.56,929.37,30.88
5616857,0.04,-0.05,1.16,-4.33,6.04,-2.87,929.36,30.88
5616895,0.06,-0.04,1.23,-4.27,5.62,-2.81,929.26,30.86
5616933,0.05,-0.04,1.27,-4.46,4.21,-2.99,929.26,30.87
5616983,0.03,-0.02,1.34,-4.09,3.11,-3.23,929.29,30.86
5617021,0.05,-0.01,1.42,-4.39,2.93,-3.54,929.27,30.87
5617059,0.03,-0.01,1.45,-3.91,2.08,-3.72,929.24,30.88
5617097,0.04,-0.02,1.45,-3.85,2.93,-4.03,929.23,30.88
5617135,0.06,-0.01,1.48,-3.66,2.93,-4.15,929.22,30.87
5617174,0.04,-0.01,1.47,-3.23,2.38,-4.27,929.23,30.89
5617212,0.02,-0.01,1.44,-3.11,1.34,-4.52,929.2,30.88
5617250,0.04,0.0,1.45,-2.81,0.85,-4.76,929.17,30.87
5617288,0.04,-0.01,1.43,-2.44,1.04,-5.19,929.19,30.89
5617338,0.04,-0.02,1.38,-1.95,0.55,-5.49,929.15,30.86
5617376,0.04,-0.03,1.37,-1.59,1.1,-5.8,929.13,30.87
5617414,0.07,-0.05,1.3,-1.4,1.46,-6.35,929.12,30.87
5617452,0.04,-0.03,1.29,-1.34,3.05,-6.65,929.11,30.88
5617490,0.04,-0.04,1.21,-1.22,3.54,-7.2,929.11,30.88
5617528,0.03,-0.03,1.22,-0.92,3.48,-7.69,929.13,30.89
5617566,0.02,-0.05,1.17,-0.92,3.54,-8.0,929.13,30.88
5617605,0.02,-0.05,1.15,-1.16,2.99,-8.18,929.12,30.87
5617643,0.02,-0.04,1.16,-1.16,3.05,-8.61,929.18,30.89
5617681,0.01,-0.05,1.14,-1.28,2.81,-8.73,929.15,30.87
5617731,0.02,-0.04,1.13,-1.46,2.2,-8.85,929.13,30.88
5617769,0.01,-0.05,1.1,-1.46,2.26,-9.22,929.12,30.89
5617807,0.01,-0.04,1.11,-1.53,2.14,-9.16,929.1,30.87
5617845,0.0,-0.04,1.09,-1.77,1.53,-9.34,929.12,30.89
5617883,0.0,-0.05,1.11,-1.95,1.59,-9.4,929.1,30.87
5617921,0.01,-0.05,1.09,-2.14,1.59,-9.46,929.06,30.87
5617960,0.01,-0.04,1.13,-2.2,1.71,-9.7,929.07,30.89
5617998,-0.0,-0.04,1.1,-2.32,1.83,-9.7,929.08,30.9
5618036,-0.0,-0.04,1.1,-2.38,2.26,-9.83,929.07,30.88
5618086,0.0,-0.04,1.11,-2.44,3.05,-9.89,929.01,30.87
5618124,-0.01,-0.04,1.1,-2.56,3.3,-10.01,929.08,30.88
5618162,-0.01,-0.03,1.15,-2.26,3.72,-10.07,929.02,30.89
5618200,-0.02,-0.03,1.14,-2.38,4.21,-9.95,928.99,30.89
5618238,-0.03,-0.02,1.17,-2.32,4.33,-9.89,928.94,30.88
5618277,-0.01,-0.04,1.16,-2.44,5.68,-9.77,929.02,30.88
5618315,-0.03,-0.03,1.17,-2.44,6.35,-9.77,929.01,30.89
5618353,-0.02,-0.02,1.25,-2.2,6.53,-9.46,928.86,30.88
5618391,-0.01,-0.02,1.19,-1.95,8.06,-9.77,928.91,30.89
5618441,-0.03,-0.0,1.26,-1.71,8.54,-9.52,928.93,30.89
5618479,-0.03,-0.02,1.22,-1.71,9.77,-9.34,928.88,30.89
5618517,-0.04,-0.02,1.24,-1.89,9.28,-9.46,928.84,30.89
5618556,-0.02,-0.03,1.2,-1.71,10.13,-9.22,928.9,30.88
5618594,-0.03,-0.02,1.18,-1.95,10.01,-9.09,928.92,30.89
5618632,-0.0,-0.01,1.15,-1.95,10.5,-8.79,928.88,30.89
5618670,-0.02,-0.01,1.15,-1.83,9.52,-8.54,928.81,30.89
5618708,-0.04,-0.02,1.15,-1.95,9.83,-8.36,928.8,30.9
5618746,-0.03,-0.03,1.2,-1.89,9.22,-8.12,928.79,30.88
5618785,-0.02,-0.02,1.19,-2.26,9.58,-8.0,928.76,30.88
5618834,-0.02,-0.02,1.22,-2.38,9.34,-7.87,928.8,30.88
5618872,-0.0,-0.01,1.18,-2.75,9.16,-7.87,928.7,30.89
5618911,-0.02,-0.01,1.24,-2.81,9.28,-7.69,928.7,30.89
5618949,0.0,-0.03,1.24,-3.05,9.22,-7.57,928.74,30.88
5618987,-0.01,-0.01,1.25,-3.17,9.58,-7.75,928.64,30.87
5619025,-0.04,-0.01,1.23,-2.93,8.91,-7.51,928.74,30.89
5619063,-0.0,-0.01,1.23,-3.05,7.93,-7.63,928.65,30.89
5619101,0.0,-0.02,1.22,-3.17,7.57,-7.93,928.61,30.88
5619140,0.0,-0.02,1.21,-3.3,6.77,-7.51,928.6,30.89
5619215,-0.03,-0.02,1.19,-3.72,6.16,-7.57,928.55,30.85
5619254,-0.02,-0.01,1.23,-3.6,5.8,-7.69,928.52,30.86
5619292,-0.01,-0.02,1.2,-4.09,5.62,-7.69,928.5,30.86
5619381,-0.02,-0.02,1.19,-3.72,4.82,-7.57,928.5,30.84
5619419,-0.02,-0.03,1.19,-3.42,4.82,-7.57,928.43,30.85
5619458,-0.02,-0.02,1.18,-3.42,4.15,-7.63,928.47,30.85
5619496,-0.03,-0.01,1.18,-3.6,5.25,-7.57,928.41,30.86
5619534,-0.01,-0.02,1.18,-3.6,6.1,-7.87,928.41,30.87
5619572,-0.02,-0.02,1.21,-3.6,5.92,-7.57,928.39,30.86
5619622,-0.03,-0.02,1.16,-3.72,7.26,-7.87,928.37,30.86
5619660,-0.02,-0.01,1.17,-4.03,7.2,-7.93,928.34,30.86
5619698,-0.03,-0.01,1.16,-4.09,7.81,-7.75,928.31,30.87
5619736,-0.03,-0.02,1.15,-4.27,7.69,-7.93,928.33,30.86
5619774,-0.0,-0.01,1.11,-4.15,7.75,-7.81,928.31,30.86
5619812,-0.03,-0.02,1.11,-3.85,7.57,-7.75,928.3,30.87
5619851,-0.02,-0.02,1.09,-3.78,7.39,-7.51,928.31,30.87
5619889,-0.02,-0.02,1.1,-3.91,6.77,-7.51,928.31,30.86
5619927,-0.04,-0.02,1.06,-3.6,6.59,-7.14,928.32,30.88
5619965,-0.02,-0.02,1.07,-3.6,6.04,-6.96,928.19,30.86
5620015,-0.02,-0.02,1.08,-3.54,6.41,-7.26,928.23,30.87
5620053,-0.03,-0.01,1.16,-3.3,6.35,-7.14,928.16,30.88
5620091,-0.01,-0.02,1.16,-3.54,6.96,-7.2,928.15,30.87
5620129,-0.01,0.0,1.21,-3.48,6.84,-7.32,928.15,30.87
5620168,-0.02,-0.0,1.17,-3.78,7.45,-7.32,928.16,30.89
5620206,-0.02,-0.0,1.19,-3.66,7.57,-7.14,928.11,30.87
5620244,-0.01,-0.01,1.19,-3.6,7.69,-7.39,928.15,30.87
5620282,-0.01,-0.01,1.16,-3.42,7.57,-7.26,928.16,30.87
5620320,-0.02,-0.01,1.15,-3.3,6.84,-7.2,928.04,30.87
5620370,-0.02,-0.01,1.07,-2.99,6.47,-7.02,928.03,30.86
5620408,-0.0,-0.02,1.06,-3.17,6.04,-7.45,927.97,30.88
5620446,-0.01,-0.03,1.02,-3.54,5.68,-7.2,928.05,30.87
5620484,-0.02,-0.03,1.03,-3.66,4.58,-7.2,928.01,30.87
5620522,-0.01,-0.03,1.04,-4.09,4.46,-7.39,927.93,30.89
5620561,0.0,-0.02,1.04,-4.52,3.54,-7.26,927.92,30.87
5620599,-0.03,-0.02,1.08,-4.39,2.75,-7.39,927.94,30.88
5620637,-0.01,-0.03,1.05,-4.7,2.38,-7.45,927.88,30.88
5620675,-0.01,-0.01,1.08,-5.0,2.14,-7.51,927.87,30.89
5620725,-0.01,-0.01,1.08,-5.13,1.22,-7.39,927.85,30.86
5620763,-0.02,-0.0,1.09,-5.55,0.49,-7.39,927.81,30.87
5620801,-0.03,0.0,1.14,-5.37,0.61,-7.45,927.88,30.87
5620839,-0.01,-0.0,1.15,-5.49,0.06,-7.45,927.77,30.87
5620877,-0.01,0.01,1.19,-5.49,-0.73,-7.26,927.81,30.87
5620915,-0.0,0.01,1.17,-5.43,-1.04,-7.51,927.86,30.88
5620954,-0.01,0.01,1.18,-5.0,-0.85,-7.81,927.77,30.88
5620992,-0.0,0.0,1.18,-4.76,-0.67,-7.75,927.83,30.87
5621030,-0.0,0.0,1.18,-4.76,-0.67,-7.93,927.83,30.88
5621068,-0.03,0.02,1.17,-4.03,-0.12,-8.24,927.83,30.89
5621118,-0.01,0.0,1.16,-3.85,-0.12,-8.3,927.81,30.86
5621156,-0.01,0.01,1.17,-3.54,0.06,-8.54,927.78,30.87
5621194,-0.01,0.01,1.16,-3.48,0.37,-8.61,927.72,30.86
5621232,-0.01,0.01,1.15,-3.42,0.98,-8.67,927.76,30.86
5621270,-0.02,0.0,1.12,-3.11,1.34,-8.91,927.78,30.87
5621309,-0.03,-0.0,1.1,-3.17,1.28,-8.91,927.73,30.87
5621347,-0.01,0.0,1.11,-2.81,1.1,-9.16,927.65,30.87
5621385,-0.02,-0.0,1.07,-2.81,1.53,-8.97,927.7,30.87
5621423,-0.02,0.0,1.07,-2.75,0.55,-9.28,927.7,30.88
5621473,-0.03,-0.01,1.06,-2.44,0.12,-9.09,927.66,30.86
5621511,-0.0,-0.02,1.05,-2.62,-0.06,-9.03,927.64,30.87
5621549,-0.02,-0.02,1.03,-2.75,-0.73,-9.09,927.63,30.87
5621587,-0.03,-0.02,0.99,-2.69,-0.67,-9.09,927.65,30.86
5621625,-0.03,-0.02,0.97,-2.62,-0.92,-9.22,927.64,30.87
5621664,-0.02,-0.03,0.96,-2.62,-0.85,-9.34,927.59,30.87
5621702,-0.03,-0.03,0.91,-2.69,-0.73,-9.34,927.63,30.88
5621740,-0.03,-0.02,0.9,-2.56,0.37,-9.4,927.58,30.87
5621778,-0.03,-0.03,0.92,-2.69,-0.18,-9.4,927.59,30.87
5621828,-0.04,-0.03,0.9,-2.87,0.43,-9.64,927.6,30.87
5621866,-0.03,-0.02,0.93,-2.99,1.46,-9.89,927.57,30.87
5621904,-0.02,-0.02,0.97,-3.3,2.62,-9.95,927.59,30.88
5621942,-0.03,-0.01,1.02,-3.54,2.75,-10.01,927.55,30.88
5621981,-0.04,-0.02,1.04,-3.42,3.17,-9.89,927.54,30.87
5622019,-0.04,-0.01,1.06,-3.54,3.36,-10.01,927.56,30.87
5622057,-0.04,-0.0,1.1,-3.42,3.54,-10.01,927.54,30.88
5622095,-0.04,-0.01,1.03,-3.36,3.36,-9.83,927.59,30.88
5622133,-0.04,0.0,1.06,-3.36,3.42,-9.89,927.55,30.88
5622209,-0.04,-0.01,1.03,-3.42,2.99,-9.7,927.5,30.84
5622247,-0.05,-0.0,1.07,-3.17,3.48,-9.58,927.47,30.86
5622286,-0.04,0.0,1.06,-2.99,3.85,-9.77,927.45,30.85
5622375,-0.05,-0.0,1.06,-2.75,3.85,-9.4,927.43,30.83
5622413,-0.05,0.0,1.08,-2.99,4.27,-9.58,927.49,30.84
5622452,-0.05,0.0,1.07,-2.69,4.58,-9.46,927.46,30.86
5622490,-0.05,-0.0,1.06,-2.75,4.64,-9.22,927.44,30.85
5622528,-0.04,-0.0,1.04,-2.56,4.88,-9.34,927.39,30.85
5622566,-0.06,0.01,1.06,-2.75,5.07,-9.28,927.42,30.86
5622604,-0.05,-0.0,1.06,-2.75,4.88,-9.03,927.45,30.86
5622654,-0.05,0.0,1.09,-2.93,4.39,-9.09,927.41,30.83
5622692,-0.06,0.0,1.07,-2.81,4.52,-8.73,927.4,30.85
5622730,-0.05,0.01,1.11,-2.75,4.64,-8.54,927.4,30.86
5622768,-0.04,0.01,1.08,-2.87,4.52,-8.48,927.38,30.86
5622806,-0.06,0.01,1.09,-2.87,3.85,-8.42,927.39,30.86
5622845,-0.06,0.01,1.07,-2.69,4.76,-8.24,927.42,30.86
5622883,-0.03,0.01,1.11,-2.69,4.58,-8.06,927.37,30.86
5622921,-0.04,0.01,1.13,-2.56,4.03,-7.87,927.39,30.86
5622959,-0.05,0.01,1.09,-2.5,4.33,-7.81,927.42,30.86
5623009,-0.04,0.02,1.13,-2.2,4.94,-7.75,927.36,30.85
5623047,-0.04,0.01,1.11,-2.14,4.94,-7.75,927.38,30.86
5623085,-0.05,0.01,1.14,-1.95,4.7,-7.51,927.39,30.86
5623123,-0.05,0.01,1.12,-1.95,5.55,-7.26,927.35,30.87
5623161,-0.03,0.01,1.12,-1.95,5.49,-7.32,927.41,30.88
5623200,-0.04,0.02,1.13,-1.71,5.62,-7.14,927.38,30.86
5623238,-0.05,0.0,1.11,-1.53,6.1,-6.96,927.34,30.86
5623276,-0.05,0.01,1.13,-1.34,6.71,-6.9,927.36,30.87
5623314,-0.04,0.01,1.16,-1.28,6.84,-6.96,927.36,30.87
5623352,-0.04,0.02,1.18,-1.16,6.59,-6.59,927.36,30.87
5623402,-0.03,0.02,1.14,-0.98,6.35,-6.35,927.39,30.87
5623440,-0.05,0.01,1.13,-1.22,6.04,-6.23,927.32,30.87
5623478,-0.04,0.0,1.11,-1.16,6.53,-6.29,927.33,30.87
5623517,-0.03,0.0,1.1,-1.16,6.23,-6.04,927.29,30.87
5623555,-0.04,0.01,1.16,-0.98,6.59,-5.98,927.33,30.87
5623593,-0.04,0.01,1.13,-0.79,7.02,-5.98,927.31,30.86
5623631,-0.03,0.0,1.19,-0.67,6.53,-6.1,927.29,30.86
5623669,-0.04,-0.0,1.16,-0.55,7.32,-6.23,927.29,30.88
5623707,-0.03,0.02,1.19,-1.04,6.53,-6.1,927.29,30.87
5623757,-0.04,0.02,1.16,-1.04,7.87,-5.98,927.25,30.87
5623795,-0.04,0.02,1.16,-1.53,6.9,-6.04,927.2,30.88
5623833,-0.04,0.01,1.17,-1.89,6.9,-5.86,927.27,30.86
5623872,-0.04,0.0,1.13,-1.95,6.41,-5.68,927.26,30.87
5623910,-0.03,0.02,1.17,-2.14,5.62,-5.74,927.23,30.87
5623948,-0.02,-0.0,1.11,-2.26,5.31,-5.68,927.29,30.88
5623986,-0.04,0.01,1.1,-2.38,4.27,-5.49,927.25,30.87
5624024,-0.05,-0.01,1.07,-2.26,5.25,-5.43,927.24,30.88
5624062,-0.03,-0.01,1.05,-2.56,4.27,-5.49,927.29,30.88
5624101,-0.03,-0.0,1.06,-3.11,4.03,-5.49,927.32,30.88
5624150,-0.04,-0.02,1.01,-3.36,3.17,-5.43,927.25,30.86
5624189,-0.03,-0.01,1.01,-3.54,3.36,-5.37,927.34,30.87
5624227,-0.02,-0.02,1.02,-3.6,3.3,-5.25,927.3,30.88
5624265,-0.02,-0.02,1.01,-3.54,2.5,-5.13,927.29,30.87
5624303,-0.05,-0.02,0.98,-3.72,1.77,-5.25,927.32,30.88
5624341,-0.03,-0.03,0.98,-3.91,1.16,-5.13,927.33,30.89
5624379,-0.02,-0.04,0.96,-4.09,0.61,-5.19,927.27,30.88
5624417,-0.02,-0.03,0.92,-4.09,0.0,-5.13,927.33,30.88
5624456,-0.01,-0.03,0.92,-4.03,0.31,-5.07,927.35,30.88
5624505,-0.02,-0.03,0.91,-3.72,-0.55,-5.55,927.32,30.87
5624543,-0.03,-0.03,0.91,-4.15,0.06,-5.43,927.31,30.88
5624582,-0.01,-0.04,0.95,-3.91,-0.37,-5.55,927.4,30.88
5624620,-0.01,-0.04,0.97,-3.91,-0.49,-5.74,927.39,30.88
5624658,-0.01,-0.03,0.99,-3.97,-1.34,-5.68,927.39,30.89
5624696,-0.02,-0.02,1.01,-3.72,-1.22,-5.74,927.43,30.89
5624734,-0.01,-0.03,1.03,-3.78,-1.65,-5.92,927.38,30.88
5624772,-0.02,-0.03,1.01,-3.91,-1.59,-5.92,927.41,30.89
5624811,-0.04,-0.03,1.0,-3.85,-1.28,-5.98,927.39,30.88
5624860,-0.02,-0.03,0.98,-3.54,-0.18,-6.23,927.43,30.87
5624899,-0.02,-0.02,0.97,-3.78,0.18,-6.41,927.41,30.88
5624937,-0.03,-0.01,0.96,-3.3,0.79,-6.53,927.43,30.89
5624975,-0.02,-0.03,0.96,-3.11,1.83,-6.96,927.42,30.87
5625013,-0.02,-0.03,0.97,-2.93,2.75,-7.02,927.42,30.89
5625051,-0.03,-0.03,1.01,-2.5,3.17,-7.08,927.46,30.89
5625089,-0.02,-0.03,1.01,-2.5,3.23,-7.14,927.43,30.89
5625128,-0.02,-0.02,1.0,-2.38,3.6,-7.2,927.49,30.9
5625166,-0.02,-0.03,1.03,-1.95,3.85,-7.14,927.49,30.9
5625241,-0.03,-0.01,0.99,-2.14,3.36,-7.2,927.48,30.87
5625280,-0.02,-0.02,0.96,-2.08,4.09,-7.26,927.48,30.87
5625318,-0.02,-0.02,1.01,-2.14,3.42,-7.45,927.42,30.88
5625407,-0.01,-0.02,1.03,-2.14,4.33,-7.63,927.46,30.82
5625446,-0.02,-0.01,1.04,-2.01,5.07,-7.57,927.53,30.87
5625484,-0.02,-0.01,1.04,-2.01,5.13,-7.75,927.5,30.87
5625522,-0.02,-0.01,1.04,-1.83,4.52,-7.63,927.47,30.86
5625560,-0.02,-0.0,1.05,-1.77,5.07,-7.81,927.48,30.86
5625598,-0.01,-0.01,1.07,-1.53,5.92,-7.81,927.52,30.88
5625637,-0.01,-0.01,1.06,-1.59,5.49,-7.87,927.51,30.88
5625686,-0.03,-0.01,1.04,-1.46,6.1,-7.87,927.52,30.87
5625725,-0.03,-0.01,1.05,-1.34,5.86,-7.63,927.51,30.87
5625763,-0.01,-0.01,1.05,-1.59,6.16,-8.06,927.56,30.88
5625801,-0.03,-0.01,1.04,-1.59,5.55,-7.87,927.54,30.88
5625839,-0.02,-0.01,1.05,-1.71,5.55,-7.69,927.56,30.89
5625877,-0.01,-0.01,1.07,-1.77,5.74,-7.81,927.53,30.9
5625915,-0.01,-0.01,1.05,-1.89,5.07,-7.69,927.54,30.88
5625954,-0.02,-0.01,1.07,-1.83,5.0,-7.63,927.62,30.89
5625992,-0.03,-0.01,1.03,-2.01,5.31,-7.57,927.56,30.9
5626042,-0.02,-0.01,1.06,-1.95,4.58,-7.57,927.62,30.89
5626080,-0.03,-0.02,1.01,-2.01,4.27,-7.32,927.65,30.89
5626118,-0.02,-0.02,1.03,-2.14,3.72,-7.26,927.63,30.88
5626156,-0.02,-0.02,1.01,-2.38,4.46,-7.32,927.64,30.89
5626194,-0.02,-0.01,1.02,-2.44,3.91,-7.39,927.7,30.89
5626232,-0.02,-0.02,1.0,-2.44,4.39,-7.32,927.65,30.89
5626271,-0.02,-0.02,1.0,-2.62,4.39,-7.57,927.62,30.89
5626309,-0.02,-0.02,1.04,-2.81,4.76,-7.57,927.66,30.89
5626347,-0.02,-0.02,1.05,-2.81,4.52,-7.69,927.71,30.89
5626397,-0.02,-0.01,1.1,-3.05,4.15,-7.63,927.69,30.88
5626435,-0.02,-0.02,1.09,-3.36,4.39,-7.87,927.69,30.9
5626473,-0.02,-0.01,1.12,-3.48,4.46,-7.93,927.69,30.89
5626511,-0.02,-0.01,1.12,-3.3,4.7,-7.81,927.73,30.9
5626550,-0.02,-0.01,1.13,-3.36,4.15,-7.75,927.72,30.9
5626588,-0.02,-0.0,1.14,-3.23,4.52,-7.63,927.73,30.89
5626626,-0.02,-0.0,1.15,-3.05,3.97,-7.81,927.73,30.89
5626664,-0.02,-0.01,1.15,-3.23,4.03,-7.93,927.77,30.89
5626702,-0.02,-0.0,1.18,-3.3,3.54,-7.87,927.79,30.91
5626740,-0.02,-0.0,1.18,-3.11,3.72,-7.81,927.75,30.9
5626790,-0.03,0.0,1.18,-3.3,3.3,-7.75,927.77,30.88
5626828,-0.03,-0.0,1.17,-3.05,3.6,-7.63,927.84,30.9
5626866,-0.02,-0.0,1.16,-3.05,2.75,-7.93,927.82,30.9
5626905,-0.03,0.01,1.18,-3.3,3.11,-7.87,927.81,30.89
5626943,-0.03,0.0,1.17,-3.17,3.42,-7.75,927.87,30.91
5626981,-0.03,0.01,1.24,-3.17,3.11,-7.75,927.8,30.9
5627019,-0.02,-0.0,1.2,-3.23,2.81,-7.75,927.84,30.89
5627057,-0.04,-0.01,1.22,-3.23,1.89,-7.51,927.92,30.9
5627095,-0.03,-0.02,1.17,-3.11,2.26,-7.57,927.87,30.89
5627145,-0.02,-0.01,1.13,-3.17,1.53,-7.57,927.98,30.9
5627183,-0.04,-0.02,1.02,-2.75,2.14,-7.39,927.98,30.9
5627222,-0.05,-0.02,1.05,-2.62,0.79,-7.51,927.98,30.91
5627260,-0.04,-0.02,1.07,-2.81,1.1,-7.57,927.93,30.89
5627298,-0.05,-0.03,1.04,-3.05,0.24,-7.39,927.91,30.91
5627336,-0.04,0.0,1.15,-3.36,0.79,-7.32,927.97,30.9
5627374,-0.03,-0.02,1.15,-3.78,1.28,-7.26,927.9,30.9
5627412,-0.04,-0.0,1.21,-4.09,0.55,-7.51,927.9,30.89
5627451,-0.04,-0.0,1.23,-3.78,2.08,-7.26,927.91,30.91
5627500,-0.03,0.0,1.22,-4.15,1.59,-7.2,927.91,30.89
5627539,-0.04,0.02,1.25,-3.78,1.59,-7.14,927.96,30.9
5627577,-0.04,0.0,1.24,-3.6,1.53,-7.26,927.93,30.9
5627615,-0.03,0.01,1.28,-3.66,2.14,-7.39,928.03,30.9
5627653,-0.04,0.01,1.28,-2.75,2.44,-7.08,927.97,30.91
5627691,-0.05,0.02,1.31,-2.26,2.56,-7.2,927.97,30.92
5627729,-0.06,0.01,1.25,-1.71,3.6,-7.26,928.05,30.92
5627767,-0.06,0.01,1.25,-1.4,3.48,-7.26,928.06,30.91
5627806,-0.05,0.0,1.23,-1.1,4.03,-6.96,928.08,30.91
5627844,-0.05,-0.0,1.2,-0.85,4.46,-6.96,928.1,30.92
5627893,-0.05,0.01,1.2,-0.67,5.07,-6.59,928.11,30.89
5627932,-0.05,-0.0,1.17,-0.24,5.62,-6.35,928.09,30.91
5627970,-0.06,-0.01,1.16,-0.31,5.13,-6.23,928.12,30.9
5628008,-0.05,-0.01,1.14,-0.06,5.92,-6.04,928.06,30.9
5628046,-0.03,-0.01,1.15,-0.12,5.49,-6.1,928.09,30.9
5628084,-0.02,-0.02,1.12,0.12,5.86,-5.92,928.19,30.91
5628122,-0.05,-0.01,1.09,-0.06,4.64,-5.74,928.15,30.91
5628160,-0.06,-0.02,1.09,-0.12,5.62,-5.62,928.19,30.91
5628199,-0.04,-0.03,1.07,-0.12,5.62,-5.43,928.2,30.91
5628274,-0.05,-0.02,1.05,-0.24,3.91,-5.25,928.21,30.88
5628313,-0.04,-0.02,1.06,-0.55,4.58,-5.07,928.2,30.88
5628351,-0.02,-0.03,1.06,-0.55,4.7,-5.19,928.22,30.89
5628440,-0.05,-0.03,1.02,-0.79,4.46,-4.88,928.22,30.86
5628478,-0.04,-0.03,1.04,-0.98,5.13,-5.0,928.31,30.89
5628517,-0.04,-0.04,1.03,-0.98,5.31,-5.0,928.29,30.88
5628555,-0.04,-0.03,1.01,-1.1,5.31,-5.07,928.29,30.89
5628593,-0.04,-0.04,0.99,-1.16,5.86,-4.76,928.31,30.89
5628631,-0.03,-0.04,1.0,-1.22,6.23,-4.94,928.34,30.89
5628669,-0.04,-0.03,1.01,-1.34,5.8,-4.76,928.31,30.89
5628719,-0.04,-0.04,1.01,-1.4,6.29,-4.64,928.31,30.89
5628757,-0.04,-0.04,1.03,-1.83,6.53,-4.76,928.36,30.9
5628796,-0.02,-0.03,1.06,-1.89,6.16,-4.52,928.36,30.9
5628834,-0.04,-0.03,1.06,-2.26,6.41,-4.64,928.32,30.89
5628872,-0.04,-0.03,1.07,-2.56,6.65,-4.52,928.41,30.91
5628910,-0.03,-0.03,1.1,-2.5,6.65,-4.7,928.45,30.9
5628948,-0.03,-0.02,1.11,-2.44,6.47,-4.52,928.36,30.9
5628986,-0.03,-0.02,1.1,-2.69,6.16,-4.64,928.41,30.9
5629025,-0.03,-0.02,1.13,-2.75,6.59,-4.52,928.46,30.91
5629074,-0.02,-0.02,1.12,-2.62,6.29,-4.7,928.4,30.89
5629113,-0.04,-0.02,1.14,-2.56,6.41,-4.46,928.46,30.91
5629151,-0.03,-0.02,1.13,-2.44,6.53,-4.52,928.5,30.9
5629189,-0.03,-0.01,1.14,-2.56,6.41,-4.64,928.44,30.91
5629227,-0.02,-0.02,1.14,-2.38,6.47,-4.52,928.5,30.91
5629265,-0.01,-0.02,1.14,-2.56,6.41,-4.33,928.47,30.91
5629304,-0.02,-0.02,1.15,-2.5,6.59,-4.7,928.53,30.91
5629342,-0.02,-0.02,1.14,-2.69,6.41,-4.52,928.55,30.91
5629380,-0.02,-0.02,1.17,-2.69,5.92,-4.58,928.51,30.9
5629430,-0.02,-0.03,1.15,-2.69,5.86,-4.52,928.56,30.89
5629468,-0.01,-0.02,1.16,-2.75,5.37,-4.58,928.64,30.92
5629506,-0.02,-0.01,1.17,-2.93,5.19,-4.58,928.57,30.91
5629544,-0.02,-0.02,1.16,-2.99,5.13,-4.76,928.52,30.91
5629582,-0.01,-0.02,1.19,-3.05,5.13,-4.64,928.65,30.91
5629621,-0.02,-0.02,1.19,-3.11,5.25,-4.52,928.64,30.91
5629659,-0.02,-0.02,1.18,-3.11,5.13,-4.7,928.62,30.91
5629697,-0.03,-0.01,1.19,-2.93,5.0,-4.76,928.64,30.91
5629735,-0.02,-0.01,1.19,-2.93,5.0,-4.82,928.63,30.92
5629785,-0.02,-0.02,1.18,-2.87,5.13,-4.82,928.66,30.9
5629823,-0.02,-0.02,1.18,-3.05,5.19,-4.88,928.67,30.91
5629861,-0.01,-0.02,1.19,-2.93,5.13,-4.94,928.67,30.92
5629899,-0.01,-0.02,1.18,-2.99,5.37,-5.0,928.73,30.91
5629938,-0.02,-0.02,1.18,-2.56,4.82,-4.94,928.75,30.9
5629976,-0.02,-0.02,1.18,-2.56,5.25,-4.94,928.71,30.91
5630014,-0.02,-0.02,1.16,-2.56,5.0,-5.07,928.74,30.92
5630052,-0.02,-0.02,1.17,-2.44,5.25,-5.0,928.75,30.92
5630090,-0.02,-0.02,1.14,-2.62,5.19,-5.13,928.77,30.91
5630128,-0.02,-0.02,1.15,-2.75,5.07,-5.19,928.74,30.92
5630178,-0.01,-0.02,1.16,-2.93,5.25,-5.31,928.81,30.9
5630216,-0.02,-0.02,1.16,-2.99,5.25,-5.31,928.85,30.92
5630255,-0.01,-0.03,1.17,-2.99,5.43,-5.25,928.79,30.91
5630293,-0.02,-0.02,1.16,-2.87,5.49,-5.37,928.85,30.91
5630331,-0.02,-0.02,1.15,-3.05,5.37,-5.31,928.84,30.91
5630369,-0.02,-0.02,1.15,-3.17,5.31,-5.43,928.82,30.9
5630407,-0.02,-0.02,1.15,-3.05,5.13,-5.37,928.82,30.91
5630446,-0.01,-0.02,1.17,-3.23,5.07,-5.43,928.88,30.92
5630484,-0.02,-0.02,1.17,-3.36,4.82,-5.43,928.81,30.9
5630534,-0.01,-0.02,1.18,-3.3,4.82,-5.49,928.88,30.91
5630572,-0.02,-0.02,1.18,-3.72,4.88,-5.62,928.89,30.91
5630610,-0.01,-0.02,1.2,-3.66,4.52,-5.49,928.91,30.92
5630648,-0.02,-0.02,1.19,-3.48,4.46,-5.55,928.92,30.92
5630686,-0.01,-0.01,1.2,-3.48,4.03,-5.62,928.87,30.92
5630724,-0.02,-0.01,1.21,-3.36,4.39,-5.62,928.88,30.92
5630762,-0.01,-0.02,1.2,-3.36,4.09,-5.55,928.98,30.92
5630801,-0.02,-0.02,1.21,-3.42,4.09,-5.8,928.93,30.91
5630839,-0.02,-0.01,1.2,-3.3,4.21,-5.68,928.96,30.91
5630889,-0.01,-0.01,1.23,-3.42,4.03,-5.86,928.95,30.9
5630927,-0.01,-0.01,1.23,-3.42,3.97,-6.04,928.96,30.91
5630965,-0.02,-0.01,1.24,-3.36,4.03,-6.04,929.02,30.92
5631003,-0.02,-0.01,1.23,-3.48,4.58,-6.16,928.98,30.91
5631041,-0.02,-0.0,1.26,-3.6,4.58,-6.23,928.96,30.91
5631079,-0.02,-0.01,1.27,-3.36,4.46,-6.23,928.99,30.92
5631117,-0.02,-0.0,1.28,-3.3,4.7,-6.1,928.99,30.91
5631156,-0.02,-0.0,1.27,-3.23,5.43,-6.35,929.06,30.92
5631194,-0.01,-0.01,1.29,-3.23,4.88,-6.35,929.11,30.91
5631232,-0.01,-0.01,1.27,-3.3,4.64,-6.47,929.01,30.93
5631387,-0.01,-0.0,1.25,-3.42,5.0,-6.59,929.04,30.84
5631425,-0.03,-0.01,1.23,-3.54,4.82,-6.59,929.14,30.88
5631463,-0.02,-0.01,1.24,-3.42,4.64,-6.47,929.12,30.88
5631552,-0.02,-0.02,1.23,-3.3,4.64,-6.59,929.09,30.84
5631591,-0.02,-0.02,1.23,-3.3,4.76,-6.71,929.18,30.87
5631629,-0.02,-0.02,1.23,-3.17,4.39,-6.77,929.13,30.86
5631667,-0.02,-0.02,1.21,-3.17,4.39,-6.71,929.19,30.88
5631705,-0.02,-0.01,1.21,-3.36,4.52,-6.84,929.21,30.88
5631743,-0.01,-0.02,1.2,-3.48,4.64,-6.77,929.21,30.89
5631793,-0.02,-0.02,1.21,-3.23,4.27,-6.71,929.18,30.86
5631831,-0.02,-0.02,1.2,-3.6,4.15,-6.96,929.21,30.89
5631869,-0.02,-0.01,1.22,-3.6,3.97,-6.9,929.2,30.88
5631908,-0.02,-0.02,1.21,-3.6,4.03,-6.96,929.25,30.89
5631946,-0.02,-0.02,1.2,-3.6,3.66,-6.96,929.15,30.89
5631984,-0.01,-0.02,1.21,-3.54,3.85,-6.96,929.21,30.89
5632022,-0.02,-0.02,1.18,-3.72,3.42,-6.84,929.24,30.9
5632060,-0.02,-0.02,1.19,-3.66,3.42,-7.02,929.26,30.89
5632099,-0.02,-0.02,1.18,-3.72,3.23,-7.02,929.2,30.9
5632148,-0.02,-0.02,1.21,-3.97,3.23,-7.14,929.32,30.89
5632187,-0.01,-0.02,1.19,-3.85,3.3,-7.08,929.22,30.89
5632225,-0.02,-0.01,1.2,-3.85,3.17,-7.26,929.3,30.91
5632263,-0.02,-0.02,1.2,-3.78,3.6,-7.26,929.29,30.89
5632301,-0.02,-0.02,1.19,-3.91,3.48,-7.26,929.24,30.91
5632339,-0.02,-0.02,1.2,-3.85,3.72,-7.57,929.3,30.91
5632377,-0.02,-0.02,1.19,-4.03,4.09,-7.63,929.35,30.92
5632416,-0.03,-0.01,1.21,-3.91,3.72,-7.51,929.34,30.91
5632454,-0.02,-0.02,1.21,-3.97,4.09,-7.57,929.33,30.92
5632492,-0.02,-0.01,1.21,-4.09,3.72,-7.63,929.31,30.92
5632542,-0.03,-0.01,1.22,-4.33,3.78,-7.75,929.3,30.91
5632580,-0.03,-0.01,1.22,-4.09,3.36,-7.69,929.31,30.9
5632618,-0.02,-0.01,1.23,-4.21,3.3,-7.63,929.4,30.91
5632656,-0.03,-0.01,1.22,-4.33,2.93,-7.57,929.36,30.91
5632695,-0.03,-0.01,1.22,-4.15,3.05,-7.51,929.38,30.91
5632733,-0.03,-0.01,1.22,-4.52,2.87,-7.75,929.39,30.92
5632771,-0.02,-0.01,1.23,-4.27,2.87,-7.63,929.37,30.91
5632809,-0.02,-0.01,1.21,-4.27,2.62,-7.63,929.4,30.9
5632847,-0.03,-0.01,1.23,-4.27,2.87,-7.81,929.41,30.92
5632897,-0.02,-0.01,1.22,-3.97,2.75,-7.75,929.37,30.9
5632935,-0.02,-0.01,1.23,-4.09,2.75,-7.75,929.44,30.92
5632973,-0.02,-0.01,1.22,-3.97,3.11,-7.69,929.43,30.92
5633012,-0.03,-0.01,1.21,-3.85,2.87,-7.75,929.44,30.9
5633050,-0.03,-0.01,1.22,-3.78,2.93,-7.69,929.39,30.92
5633088,-0.03,-0.01,1.23,-3.85,2.75,-7.69,929.46,30.91
5633126,-0.03,-0.01,1.23,-3.6,2.62,-7.69,929.39,30.92
5633164,-0.03,-0.01,1.22,-3.66,2.69,-7.69,929.39,30.92
5633202,-0.03,-0.0,1.24,-3.6,2.87,-7.51,929.43,30.92
5633252,-0.03,-0.01,1.21,-3.6,3.17,-7.69,929.48,30.91
5633290,-0.03,-0.01,1.24,-3.72,2.93,-7.69,929.4,30.9
5633329,-0.03,-0.01,1.22,-3.42,3.23,-7.63,929.44,30.91
5633367,-0.03,-0.0,1.23,-3.54,2.93,-7.57,929.5,30.92
5633405,-0.04,-0.0,1.24,-3.23,2.75,-7.57,929.45,30.91
5633443,-0.04,-0.01,1.23,-3.23,2.75,-7.39,929.47,30.92
5633481,-0.03,-0.0,1.26,-3.11,2.56,-7.57,929.42,30.91
5633520,-0.02,-0.01,1.22,-2.99,3.36,-7.39,929.5,30.93
5633558,-0.04,-0.01,1.21,-3.11,2.93,-7.51,929.49,30.91
5633596,-0.05,-0.01,1.19,-2.87,3.66,-7.63,929.5,30.92
5633646,-0.04,-0.01,1.19,-2.99,3.3,-7.51,929.49,30.9
5633684,-0.04,-0.01,1.2,-2.87,3.36,-7.45,929.45,30.91
5633722,-0.05,-0.01,1.19,-2.99,2.75,-7.32,929.5,30.91
5633760,-0.05,-0.01,1.22,-2.87,3.36,-7.32,929.44,30.91
5633798,-0.04,-0.02,1.19,-2.81,3.78,-7.26,929.47,30.9
5633836,-0.04,-0.0,1.22,-2.75,3.54,-7.14,929.48,30.91
5633875,-0.05,-0.01,1.21,-2.62,4.09,-7.08,929.5,30.92
5633913,-0.05,-0.02,1.2,-2.5,4.27,-7.08,929.5,30.92
5633951,-0.05,-0.0,1.21,-2.62,4.21,-6.96,929.52,30.92
5634001,-0.04,-0.01,1.22,-2.62,4.15,-6.84,929.5,30.92
5634039,-0.04,-0.01,1.21,-2.62,4.39,-6.96,929.46,30.91
5634077,-0.05,-0.01,1.23,-2.69,4.46,-6.9,929.5,30.91
5634115,-0.05,-0.01,1.24,-2.44,4.33,-6.84,929.46,30.91
5634153,-0.04,-0.01,1.21,-2.44,4.52,-6.71,929.53,30.92
5634192,-0.04,-0.01,1.22,-2.32,4.39,-6.59,929.5,30.91
5634230,-0.06,-0.01,1.2,-2.32,4.64,-6.41,929.53,30.93
5634268,-0.06,-0.01,1.2,-2.32,4.15,-6.29,929.55,30.91
5634306,-0.05,-0.01,1.19,-2.14,4.58,-6.23,929.5,30.92
5634382,-0.06,-0.0,1.2,-2.26,4.46,-5.92,929.5,30.89
5634420,-0.05,-0.01,1.19,-2.26,4.27,-6.04,929.48,30.91
5634458,-0.05,-0.01,1.19,-2.14,3.97,-5.86,929.51,30.91
5634548,-0.05,-0.01,1.18,-2.38,3.91,-5.68,929.51,30.86
5634586,-0.06,-0.01,1.16,-2.5,3.85,-5.55,929.47,30.88
5634624,-0.06,-0.02,1.17,-2.44,3.85,-5.62,929.52,30.88
5634662,-0.04,-0.02,1.15,-2.44,4.21,-5.43,929.51,30.89
5634700,-0.05,-0.0,1.15,-2.44,3.78,-5.25,929.51,30.89
5634739,-0.06,-0.01,1.14,-2.26,4.03,-5.25,929.53,30.91
5634789,-0.06,-0.02,1.1,-2.5,3.66,-5.0,929.54,30.88
5634827,-0.05,-0.01,1.1,-2.44,3.72,-5.0,929.56,30.91
5634865,-0.05,-0.02,1.09,-2.5,3.36,-5.0,929.55,30.9
5634903,-0.05,-0.02,1.1,-2.81,3.36,-4.94,929.54,30.9
5634941,-0.05,-0.02,1.13,-2.56,3.78,-4.82,929.54,30.91
5634979,-0.05,-0.03,1.08,-2.44,3.3,-4.76,929.59,30.92
5635017,-0.05,-0.02,1.12,-2.32,3.11,-4.82,929.59,30.91
5635055,-0.05,-0.02,1.09,-2.32,3.17,-4.76,929.58,30.92
5635094,-0.04,-0.02,1.1,-2.26,2.93,-4.82,929.53,30.91
5635132,-0.05,-0.02,1.1,-2.08,3.66,-4.7,929.58,30.92
5635181,-0.05,-0.02,1.11,-2.01,3.23,-4.82,929.58,30.91
5635220,-0.05,-0.02,1.11,-1.95,3.54,-4.76,929.6,30.91
5635258,-0.05,-0.02,1.11,-1.89,3.91,-4.58,929.64,30.91
5635296,-0.04,-0.02,1.11,-1.83,3.3,-4.33,929.62,30.92
5635334,-0.04,-0.02,1.1,-1.83,3.36,-4.39,929.59,30.91
5635372,-0.04,-0.02,1.08,-1.65,3.36,-4.39,929.6,30.93
5635410,-0.04,-0.03,1.05,-1.53,3.48,-4.46,929.61,30.91
5635448,-0.03,-0.02,1.07,-1.59,2.99,-4.46,929.6,30.92
5635486,-0.03,-0.02,1.06,-1.59,2.87,-4.46,929.57,30.91
5635536,-0.03,-0.02,1.08,-1.65,2.44,-4.52,929.62,30.91
5635574,-0.03,-0.02,1.08,-1.53,2.08,-4.64,929.62,30.91
5635612,-0.02,-0.03,1.09,-1.46,1.65,-4.7,929.64,30.93
5635650,-0.02,-0.03,1.07,-1.34,1.34,-4.76,929.6,30.93
5635689,-0.01,-0.03,1.05,-1.28,0.85,-4.88,929.58,30.92
5635727,-0.02,-0.02,1.06,-1.34,0.73,-4.94,929.6,30.94
5635765,-0.03,-0.03,1.02,-1.22,0.24,-4.88,929.64,30.92
5635803,-0.04,-0.02,1.05,-1.16,-0.37,-5.0,929.64,30.92
5635841,-0.03,-0.03,1.03,-1.1,0.18,-5.19,929.63,30.92
5635891,-0.02,-0.02,1.05,-1.04,-0.49,-5.13,929.65,30.92
5635929,-0.03,-0.02,1.03,-1.16,-0.49,-5.25,929.63,30.92
5635967,-0.03,-0.02,1.04,-1.28,-0.55,-5.19,929.6,30.92
5636005,-0.03,-0.03,1.02,-1.28,-0.12,-5.43,929.64,30.92
5636043,-0.04,-0.03,1.02,-1.34,-0.43,-5.55,929.66,30.93
5636082,-0.03,-0.02,1.06,-1.46,-0.31,-5.86,929.62,30.92
5636120,-0.03,-0.03,1.05,-1.59,0.43,-5.92,929.6,30.92
5636158,-0.03,-0.01,1.11,-1.59,0.79,-5.92,929.64,30.92
5636196,-0.04,-0.02,1.09,-1.46,1.59,-6.16,929.58,30.91
5636234,-0.04,-0.01,1.12,-1.59,2.08,-6.35,929.67,30.91
5636284,-0.03,-0.01,1.13,-1.34,2.62,-6.41,929.7,30.91
5636322,-0.03,-0.02,1.13,-1.46,2.5,-6.41,929.69,30.92
5636360,-0.04,-0.01,1.11,-1.46,2.99,-6.53,929.7,30.92
5636398,-0.04,-0.0,1.12,-1.16,2.99,-6.65,929.69,30.92
5636436,-0.04,-0.01,1.13,-1.1,3.05,-6.47,929.69,30.91
5636475,-0.04,-0.02,1.11,-1.04,3.17,-6.65,929.72,30.92
5636513,-0.05,-0.02,1.1,-0.98,3.23,-6.71,929.74,30.92
5636551,-0.03,-0.01,1.09,-0.85,3.6,-6.59,929.7,30.91
5636589,-0.04,-0.01,1.08,-0.85,3.42,-6.71,929.72,30.92
5636639,-0.04,-0.02,1.06,-0.85,3.42,-6.53,929.73,30.91
5636677,-0.04,-0.03,1.06,-1.04,3.42,-6.35,929.68,30.91
5636715,-0.05,-0.03,1.06,-0.98,3.17,-6.41,929.77,30.92
5636753,-0.04,-0.02,1.06,-0.98,2.93,-6.47,929.78,30.93
5636791,-0.03,-0.02,1.08,-0.79,3.3,-6.47,929.78,30.91
5636829,-0.04,-0.02,1.06,-0.73,3.3,-6.41,929.82,30.92
5636868,-0.04,-0.02,1.08,-0.79,3.23,-6.41,929.77,30.92
5636906,-0.04,-0.02,1.08,-0.79,3.66,-6.47,929.82,30.91
5636944,-0.04,-0.02,1.08,-0.85,3.72,-6.41,929.81,30.92
5636994,-0.03,-0.02,1.09,-1.04,4.03,-6.53,929.8,30.91
5637032,-0.04,-0.01,1.09,-0.92,4.15,-6.71,929.79,30.91
5637070,-0.04,-0.01,1.12,-1.1,4.15,-6.47,929.83,30.92
5637108,-0.03,-0.01,1.13,-1.04,4.09,-6.53,929.8,30.93
5637146,-0.04,-0.01,1.12,-1.04,3.91,-6.41,929.8,30.92
5637184,-0.04,-0.01,1.11,-1.1,3.91,-6.23,929.78,30.92
5637222,-0.04,-0.01,1.12,-1.04,3.85,-6.29,929.78,30.92
5637261,-0.04,-0.01,1.12,-1.16,3.78,-6.47,929.85,30.92
5637299,-0.03,-0.01,1.12,-1.04,3.6,-6.23,929.81,30.93
5637374,-0.04,-0.01,1.11,-1.22,3.23,-6.23,929.83,30.89
5637413,-0.04,-0.02,1.12,-1.16,3.17,-6.29,929.87,30.91
5637451,-0.04,-0.02,1.1,-1.1,3.36,-6.1,929.87,30.92
5637540,-0.04,-0.01,1.1,-1.16,3.23,-6.04,929.82,30.89
5637578,-0.04,-0.02,1.1,-1.28,3.11,-6.04,929.85,30.89
5637616,-0.04,-0.02,1.11,-1.22,3.42,-6.1,929.92,30.92
5637655,-0.04,-0.01,1.11,-1.16,3.54,-6.16,929.91,30.9
5637693,-0.04,-0.01,1.1,-1.22,3.91,-6.1,929.86,30.92
5637731,-0.04,-0.01,1.1,-1.16,4.09,-6.04,929.91,30.9
5637769,-0.03,-0.02,1.1,-1.1,4.64,-5.86,929.92,30.92
5637819,-0.04,-0.01,1.09,-1.16,4.82,-5.86,929.9,30.89
5637857,-0.05,-0.02,1.09,-0.98,5.49,-5.86,929.91,30.91
5637895,-0.04,-0.02,1.08,-0.98,5.92,-5.8,929.91,30.91
5637933,-0.04,-0.01,1.1,-0.98,6.16,-5.74,929.93,30.92
5637971,-0.03,-0.02,1.09,-0.73,6.16,-5.62,929.89,30.92
5638009,-0.04,-0.02,1.09,-0.85,6.29,-5.55,929.94,30.92
5638047,-0.04,-0.02,1.08,-0.92,6.16,-5.43,929.99,30.94
5638086,-0.03,-0.01,1.09,-0.92,6.35,-5.31,929.95,30.91
5638124,-0.03,-0.02,1.07,-0.98,6.47,-5.25,929.93,30.92
5638173,-0.03,-0.02,1.07,-0.98,6.1,-5.19,929.95,30.91
5638212,-0.03,-0.02,1.06,-1.16,5.92,-5.13,929.95,30.92
5638250,-0.04,-0.02,1.07,-0.92,5.49,-4.82,929.94,30.92
5638288,-0.04,-0.02,1.06,-1.04,5.31,-4.7,929.96,30.91
5638326,-0.03,-0.02,1.08,-1.1,4.94,-4.7,929.97,30.92
5638364,-0.03,-0.02,1.07,-1.28,5.31,-4.64,929.98,30.92
5638402,-0.04,-0.02,1.06,-1.16,5.0,-4.58,930.02,30.92
5638440,-0.03,-0.02,1.08,-1.34,4.7,-4.76,929.93,30.92
5638478,-0.03,-0.02,1.06,-1.34,4.76,-4.58,929.95,30.91
5638528,-0.03,-0.02,1.08,-1.34,4.64,-4.52,929.98,30.92
5638566,-0.03,-0.02,1.06,-1.46,4.7,-4.39,929.97,30.91
5638604,-0.03,-0.02,1.09,-1.59,4.21,-4.52,929.96,30.92
5638642,-0.03,-0.03,1.06,-1.59,4.33,-4.46,930.04,30.93
5638681,-0.02,-0.02,1.09,-1.65,4.03,-4.39,930.03,30.92
5638719,-0.03,-0.02,1.09,-1.77,3.91,-4.46,930.01,30.92
5638757,-0.03,-0.02,1.07,-1.71,3.72,-4.52,930.04,30.92
5638795,-0.02,-0.03,1.08,-1.83,3.85,-4.33,930.03,30.94
5638833,-0.03,-0.02,1.09,-1.83,3.91,-4.46,930.08,30.93
5638871,-0.03,-0.02,1.11,-1.83,3.91,-4.33,930.04,30.92
5638921,-0.03,-0.02,1.11,-1.65,4.33,-4.46,930.09,30.92
5638959,-0.03,-0.02,1.12,-1.89,4.39,-4.52,930.03,30.93
5638997,-0.03,-0.02,1.11,-2.01,4.33,-4.52,930.03,30.93
5639036,-0.03,-0.02,1.12,-1.95,4.21,-4.39,930.11,30.93
5639074,-0.03,-0.02,1.13,-1.89,4.27,-4.64,930.11,30.93
5639112,-0.04,-0.02,1.12,-1.77,4.33,-4.39,930.01,30.92
5639150,-0.03,-0.02,1.13,-1.89,4.09,-4.33,930.08,30.93
5639188,-0.02,-0.02,1.13,-1.95,4.27,-4.46,930.13,30.92
5639226,-0.03,-0.02,1.12,-1.77,4.21,-4.46,930.1,30.93
5639276,-0.03,-0.02,1.12,-1.89,4.15,-4.46,930.1,30.93
5639314,-0.03,-0.02,1.12,-1.89,4.21,-4.46,930.11,30.93
5639353,-0.03,-0.03,1.13,-1.95,4.09,-4.52,930.1,30.92
5639391,-0.03,-0.02,1.13,-1.95,3.91,-4.52,930.13,30.94
5639429,-0.03,-0.02,1.13,-1.95,3.66,-4.39,930.16,30.92
5639467,-0.02,-0.02,1.13,-1.89,3.85,-4.58,930.13,30.93
5639505,-0.03,-0.02,1.14,-1.95,3.54,-4.39,930.14,30.94
5639543,-0.03,-0.03,1.12,-1.89,3.54,-4.52,930.13,30.92
5639581,-0.03,-0.02,1.14,-2.08,3.36,-4.52,930.12,30.93
5639631,-0.03,-0.02,1.13,-2.2,3.78,-4.64,930.08,30.91
5639669,-0.03,-0.02,1.13,-2.32,3.54,-4.7,930.15,30.93
5639707,-0.03,-0.02,1.13,-2.32,3.91,-4.7,930.16,30.93
5639746,-0.02,-0.02,1.15,-2.5,3.3,-4.7,930.2,30.94
5639784,-0.02,-0.02,1.14,-2.38,3.42,-4.64,930.19,30.93
5639822,-0.03,-0.02,1.14,-2.5,3.11,-4.76,930.18,30.94
5639860,-0.02,-0.02,1.15,-2.5,3.54,-4.76,930.16,30.93
5639898,-0.02,-0.03,1.15,-2.44,3.3,-4.76,930.2,30.94
5639936,-0.02,-0.02,1.15,-2.44,3.05,-4.82,930.27,30.94
5639974,-0.02,-0.02,1.14,-2.38,3.05,-5.0,930.23,30.93
5640024,-0.02,-0.02,1.17,-2.32,2.81,-5.07,930.16,30.92
5640062,-0.02,-0.03,1.15,-2.26,2.81,-5.0,930.25,30.92
5640100,-0.02,-0.02,1.16,-2.56,2.69,-5.07,930.24,30.94
5640139,-0.03,-0.02,1.15,-2.5,2.56,-5.07,930.22,30.94
5640177,-0.02,-0.02,1.17,-2.32,2.38,-5.13,930.22,30.94
5640215,-0.02,-0.02,1.17,-2.32,2.44,-5.19,930.22,30.94
5640253,-0.01,-0.02,1.18,-2.14,2.44,-5.25,930.23,30.95
5640291,-0.02,-0.03,1.16,-2.2,2.75,-5.37,930.25,30.93
5640329,-0.02,-0.02,1.16,-2.38,2.81,-5.31,930.23,30.94
5640405,-0.02,-0.02,1.17,-2.32,3.66,-5.55,930.23,30.91
5640443,-0.02,-0.02,1.16,-2.38,3.66,-5.68,930.29,30.92
5640481,-0.02,-0.02,1.18,-2.2,3.91,-5.86,930.24,30.91
5640571,-0.03,-0.02,1.17,-2.2,4.7,-6.1,930.28,30.9
5640609,-0.03,-0.02,1.18,-2.01,4.88,-6.04,930.29,30.92
5640647,-0.03,-0.02,1.17,-2.08,5.31,-6.16,930.29,30.91
5640685,-0.03,-0.02,1.15,-1.89,5.68,-6.16,930.33,30.91
5640723,-0.03,-0.02,1.17,-1.95,5.55,-6.23,930.27,30.91
5640761,-0.03,-0.03,1.13,-1.95,5.55,-6.16,930.28,30.92
5640811,-0.03,-0.02,1.16,-2.08,6.23,-6.23,930.23,30.91
5640849,-0.02,0.0,1.17,-2.38,5.68,-6.35,930.23,30.91
5640888,-0.05,0.01,1.23,-2.32,5.49,-5.92,930.26,30.92
5640926,-0.04,-0.01,1.22,-2.5,6.29,-5.92,930.21,30.92
5640964,-0.02,0.0,1.29,-2.56,5.43,-5.98,930.24,30.92
5641002,-0.03,-0.0,1.3,-2.5,6.1,-5.92,930.25,30.93
5641040,-0.05,-0.02,1.26,-2.2,6.29,-5.68,930.26,30.93
5641078,-0.04,-0.01,1.23,-1.95,6.65,-5.68,930.23,30.93
5641117,-0.03,0.01,1.24,-1.53,6.77,-5.8,930.28,30.93
5641155,-0.04,0.0,1.2,-1.65,6.84,-5.37,930.22,30.93
5641204,-0.04,-0.0,1.3,-1.46,6.65,-5.55,930.26,30.92
5641243,-0.03,-0.02,1.27,-1.71,7.57,-5.55,930.27,30.92
5641281,-0.03,0.0,1.33,-2.08,6.9,-5.43,930.27,30.93
5641319,-0.02,0.0,1.33,-1.95,6.96,-5.37,930.27,30.94
5641357,-0.02,-0.0,1.34,-1.89,6.16,-5.37,930.25,30.92
5641395,-0.02,-0.0,1.34,-1.83,6.41,-5.13,930.26,30.93
5641433,-0.01,0.0,1.34,-1.95,4.88,-5.0,930.17,30.93
5641471,-0.02,0.02,1.39,-2.08,3.6,-5.13,930.21,30.94
5641509,-0.03,0.0,1.36,-2.44,3.48,-5.07,930.22,30.93
5641559,-0.01,0.01,1.43,-2.26,2.62,-4.94,930.25,30.92
5641597,-0.02,0.0,1.38,-2.5,2.44,-4.94,930.17,30.92
5641636,-0.01,0.02,1.44,-2.38,1.71,-4.94,930.17,30.93
5641674,-0.02,0.01,1.37,-2.38,2.69,-5.13,930.22,30.93
5641712,-0.02,0.0,1.35,-2.5,2.75,-5.25,930.21,30.93
5641750,-0.01,0.0,1.35,-2.5,2.56,-5.62,930.2,30.93
5641788,-0.01,0.01,1.33,-2.44,2.14,-5.55,930.25,30.94
5641826,-0.02,0.01,1.33,-2.56,1.95,-5.49,930.21,30.94
5641864,-0.01,-0.01,1.32,-2.38,1.89,-5.74,930.14,30.92
5641902,-0.02,-0.02,1.3,-2.32,2.01,-6.04,930.21,30.92
5641952,-0.0,-0.01,1.26,-2.32,2.38,-6.04,930.21,30.93
5641990,-0.01,-0.0,1.22,-2.2,2.56,-6.35,930.19,30.92
5642028,-0.01,-0.01,1.19,-2.01,2.56,-6.35,930.16,30.91
5642067,-0.02,-0.02,1.19,-1.83,2.01,-6.53,930.21,30.94
5642105,-0.01,-0.02,1.16,-1.95,2.32,-6.65,930.18,30.93
5642143,-0.02,-0.02,1.17,-1.83,2.62,-6.71,930.14,30.93
5642181,-0.03,-0.02,1.14,-1.95,3.11,-6.84,930.15,30.93
5642219,-0.02,-0.02,1.15,-1.71,2.75,-6.96,930.15,30.93
5642257,-0.02,-0.03,1.13,-1.71,3.11,-6.9,930.2,30.93
5642307,-0.01,-0.02,1.11,-1.89,2.99,-6.84,930.13,30.92
5642345,-0.01,-0.02,1.11,-1.77,2.75,-7.02,930.16,30.94
5642383,-0.02,-0.03,1.11,-1.95,2.26,-7.08,930.16,30.94
5642422,-0.03,-0.02,1.13,-2.2,1.65,-6.84,930.14,30.92
5642460,-0.02,-0.02,1.11,-2.01,1.46,-7.14,930.09,30.92
5642498,-0.01,-0.03,1.12,-2.14,1.04,-7.08,930.13,30.93
5642536,-0.02,-0.03,1.09,-2.26,1.16,-7.26,930.13,30.93
5642574,-0.03,-0.03,1.07,-2.38,1.53,-7.32,930.11,30.93
5642612,-0.02,-0.02,1.07,-2.38,1.95,-7.39,930.12,30.94
5642662,-0.02,-0.02,1.08,-2.69,1.65,-7.45,930.13,30.92
5642700,-0.04,-0.02,1.1,-2.81,1.53,-7.45,930.14,30.92
5642738,-0.02,-0.02,1.13,-2.93,1.83,-7.39,930.11,30.93
5642776,-0.03,-0.02,1.16,-2.81,1.46,-7.69,930.12,30.93
5642815,-0.03,-0.01,1.16,-2.87,1.71,-7.57,930.13,30.94
5642853,-0.03,-0.02,1.16,-2.5,1.95,-7.51,930.18,30.95
5642891,-0.04,-0.01,1.16,-2.5,2.08,-7.75,930.08,30.94
5642929,-0.03,-0.01,1.15,-2.38,1.71,-7.51,930.05,30.94
5642967,-0.03,-0.01,1.16,-2.32,1.46,-7.51,930.06,30.93
5643017,-0.03,-0.0,1.17,-2.44,1.34,-7.45,930.09,30.94
5643055,-0.03,-0.01,1.2,-2.26,1.1,-7.32,930.06,30.92
5643093,-0.04,-0.01,1.19,-2.32,0.43,-7.26,929.99,30.93
5643131,-0.04,-0.01,1.19,-2.14,0.37,-7.2,930.07,30.94
5643169,-0.03,-0.01,1.18,-2.01,0.12,-7.26,930.01,30.94
5643208,-0.04,0.0,1.17,-1.95,-0.12,-7.14,930.01,30.93
5643246,-0.04,0.0,1.16,-2.08,-0.43,-7.14,929.99,30.93
5643284,-0.04,-0.0,1.17,-1.77,-0.79,-7.26,930.02,30.94
5643322,-0.03,-0.02,1.13,-1.65,-0.37,-7.14,930.01,30.95
5643360,-0.03,-0.02,1.17,-1.53,-0.24,-7.32,929.98,30.93
5643436,-0.05,-0.01,1.12,-1.28,-0.24,-7.2,929.96,30.91
5643474,-0.04,-0.02,1.12,-1.28,0.12,-7.32,930.01,30.93
5643512,-0.04,-0.02,1.09,-1.53,0.06,-7.39,929.93,30.92
5643601,-0.04,-0.01,1.1,-1.71,-0.31,-7.45,929.94,30.88
5643640,-0.03,-0.01,1.13,-1.83,-0.12,-7.39,929.92,30.91
5643678,-0.04,-0.02,1.11,-1.77,-0.49,-7.32,929.91,30.91
5643716,-0.04,-0.01,1.1,-2.01,-0.55,-7.14,929.89,30.91
5643754,-0.03,-0.01,1.1,-2.08,-0.43,-7.26,929.94,30.92
5643792,-0.04,-0.02,1.1,-2.08,-0.31,-7.14,929.9,30.92
5643842,-0.04,-0.02,1.08,-2.08,-0.24,-7.39,929.91,30.91
5643880,-0.04,-0.02,1.08,-1.89,0.43,-7.51,929.89,30.93
5643918,-0.04,-0.02,1.05,-2.2,0.85,-7.45,929.89,30.93
5643956,-0.05,-0.01,1.09,-2.01,0.92,-7.51,929.9,30.92
5643994,-0.05,-0.02,1.07,-2.01,1.95,-7.57,929.83,30.92
5644033,-0.05,-0.01,1.09,-1.83,1.71,-7.45,929.87,30.93
5644071,-0.05,-0.01,1.1,-1.65,2.62,-7.39,929.9,30.94
5644109,-0.05,-0.01,1.1,-1.65,2.81,-7.51,929.88,30.94
5644147,-0.05,-0.0,1.13,-1.4,3.36,-7.45,929.86,30.93
5644197,-0.05,-0.0,1.11,-1.16,3.54,-7.32,929.84,30.92
5644235,-0.05,-0.0,1.12,-1.16,3.97,-7.32,929.85,30.93
5644273,-0.06,-0.0,1.12,-0.92,4.58,-7.2,929.77,30.94
5644311,-0.05,-0.0,1.12,-0.67,4.58,-6.96,929.82,30.93
5644349,-0.05,-0.0,1.1,-0.79,4.46,-6.9,929.81,30.93
5644387,-0.05,-0.0,1.08,-0.73,4.76,-6.71,929.78,30.94
5644426,-0.05,-0.01,1.09,-0.49,5.0,-6.47,929.81,30.93
5644464,-0.05,-0.01,1.07,-0.37,4.76,-6.23,929.75,30.93
5644502,-0.05,-0.01,1.06,-0.18,4.58,-6.29,929.76,30.93
5644552,-0.05,-0.01,1.04,-0.24,4.15,-5.86,929.73,30.93
5644590,-0.05,-0.01,1.04,-0.31,3.66,-5.49,929.7,30.93
5644628,-0.05,-0.01,1.03,-0.31,3.05,-5.49,929.69,30.93
5644666,-0.06,-0.01,1.02,-0.49,2.87,-5.25,929.77,30.93
5644704,-0.05,-0.01,1.03,-0.37,2.5,-5.19,929.74,30.94
5644742,-0.05,-0.01,1.01,-0.55,2.14,-5.0,929.74,30.94
5644781,-0.05,-0.01,1.03,-0.37,1.89,-4.94,929.68,30.93
5644819,-0.05,-0.02,1.01,-0.18,2.2,-4.76,929.68,30.95
5644857,-0.05,-0.02,1.02,-0.24,1.89,-4.76,929.68,30.94
5644895,-0.05,-0.02,0.99,-0.37,2.44,-4.82,929.71,30.94
5644945,-0.06,-0.01,0.99,-0.43,2.26,-4.58,929.7,30.93
5644983,-0.05,-0.02,1.0,-0.55,2.75,-4.64,929.63,30.93
5645021,-0.05,-0.01,1.0,-0.73,2.93,-4.46,929.66,30.94
5645060,-0.06,-0.01,1.02,-0.55,2.75,-4.52,929.63,30.94
5645098,-0.04,-0.02,1.01,-0.49,3.23,-4.33,929.64,30.94
5645136,-0.05,-0.01,1.04,-0.55,3.17,-4.39,929.57,30.92
5645174,-0.04,-0.01,1.07,-0.37,3.36,-4.21,929.6,30.93
5645212,-0.04,-0.01,1.04,-0.37,2.87,-4.03,929.56,30.94
5645250,-0.04,-0.01,1.03,-0.24,2.44,-4.15,929.6,30.94
5645300,-0.03,-0.01,1.0,0.12,1.83,-4.21,929.53,30.93
5645338,-0.03,-0.01,1.02,-0.06,-0.12,-4.09,929.49,30.95
5645377,-0.04,-0.01,1.03,0.12,-0.18,-4.09,929.51,30.95
5645415,-0.05,0.0,1.05,0.43,-0.92,-4.03,929.5,30.95
5645453,-0.05,-0.0,1.08,0.37,-1.28,-3.97,929.51,30.95
5645491,-0.05,-0.01,1.09,0.79,-1.34,-3.91,929.55,30.94
5645529,-0.06,-0.01,1.06,1.1,-1.4,-3.91,929.54,30.95
5645567,-0.04,-0.0,1.04,1.16,-2.14,-4.03,929.57,30.95
5645605,-0.04,-0.01,0.99,1.28,-1.53,-4.03,929.51,30.95
5645655,-0.04,-0.01,0.98,1.04,-2.08,-4.03,929.47,30.94
5645693,-0.06,-0.01,0.94,1.16,-1.83,-4.09,929.49,30.94
5645731,-0.05,-0.01,0.95,1.1,-2.44,-4.03,929.46,30.95
5645770,-0.04,-0.01,0.98,0.73,-2.01,-4.15,929.46,30.94
5645808,-0.05,-0.02,0.99,0.73,-2.56,-4.15,929.39,30.93
5645846,-0.06,-0.02,1.02,0.73,-2.26,-4.09,929.44,30.94
5645884,-0.05,-0.01,1.03,0.73,-2.2,-4.27,929.37,30.94
5645922,-0.05,0.0,1.05,0.79,-2.08,-4.33,929.4,30.93
5645961,-0.05,-0.0,1.03,0.67,-2.01,-4.03,929.37,30.94
5645999,-0.06,-0.0,1.05,0.92,-2.14,-4.33,929.41,30.95
5646048,-0.06,-0.01,1.01,0.85,-2.08,-4.27,929.37,30.94
5646087,-0.06,0.0,1.04,0.98,-2.44,-4.09,929.36,30.93
5646125,-0.06,-0.0,1.06,1.34,-2.32,-4.15,929.35,30.93
5646163,-0.07,-0.01,1.06,1.53,-2.62,-4.09,929.36,30.94
5646201,-0.06,-0.0,1.08,1.89,-2.2,-4.03,929.4,30.94
5646239,-0.05,-0.0,1.07,2.62,-2.01,-3.97,929.42,30.94
5646277,-0.06,0.0,1.07,3.05,-1.89,-3.97,929.42,30.94
5646315,-0.06,-0.0,1.04,3.85,-1.65,-3.97,929.38,30.94
5646353,-0.06,-0.01,1.02,4.21,-1.65,-3.91,929.38,30.94
5646429,-0.07,-0.02,0.96,4.82,-1.04,-3.97,929.37,30.92
5646467,-0.07,-0.02,0.94,5.31,-0.85,-3.85,929.36,30.93
5646505,-0.05,-0.02,0.92,5.37,-0.61,-3.85,929.34,30.93
5646765,-0.08,-0.05,0.68,4.88,-1.53,-3.36,929.32,30.84
5646803,-0.08,-0.04,0.69,4.64,-1.65,-3.11,929.36,30.86
5646841,-0.06,-0.05,0.63,4.03,-1.89,-3.05,929.29,30.87
5646879,-0.08,-0.04,0.66,3.66,-2.81,-2.87,929.28,30.89
5646917,-0.07,-0.05,0.64,3.36,-2.38,-2.87,929.3,30.89
5646955,-0.07,-0.05,0.66,3.05,-2.75,-2.87,929.28,30.89
5647005,-0.06,-0.04,0.66,2.56,-2.32,-2.5,929.36,30.89
5647043,-0.06,-0.05,0.67,2.44,-2.44,-2.62,929.34,30.9
5647081,-0.07,-0.05,0.68,1.95,-2.08,-2.5,929.27,30.9
5647120,-0.07,-0.04,0.71,1.83,-2.2,-2.5,929.22,30.91
5647158,-0.07,-0.05,0.71,1.53,-1.59,-2.44,929.31,30.91
5647196,-0.06,-0.04,0.72,1.59,-1.95,-2.38,929.32,30.91
5647234,-0.05,-0.04,0.73,1.4,-1.4,-2.38,929.35,30.91
5647272,-0.06,-0.04,0.73,1.28,-1.1,-2.26,929.4,30.93
5647310,-0.06,-0.03,0.8,1.46,-2.01,-2.14,929.34,30.91
5647348,-0.07,-0.04,0.79,1.59,-1.46,-2.08,929.29,30.91
5647398,-0.05,-0.03,0.86,1.22,-1.46,-2.08,929.33,30.91
5647436,-0.04,-0.03,0.86,1.34,-1.04,-2.08,929.35,30.92
5647475,-0.05,-0.04,0.86,1.22,-1.77,-1.95,929.37,30.92
5647513,-0.06,-0.03,0.9,1.22,-1.4,-2.14,929.43,30.92
5647551,-0.05,-0.03,0.89,1.28,-1.28,-2.01,929.4,30.93
5647589,-0.06,-0.02,0.91,1.4,-1.34,-2.01,929.4,30.94
5647627,-0.06,-0.02,0.93,1.65,-0.92,-1.95,929.38,30.92
5647665,-0.06,-0.02,0.97,1.77,-0.92,-2.01,929.42,30.92
5647703,-0.05,-0.01,1.0,1.89,0.0,-2.01,929.43,30.93
5647753,-0.06,-0.01,1.02,2.14,0.79,-1.95,929.43,30.92
5647791,-0.06,-0.01,1.05,2.44,1.53,-1.89,929.38,30.93
5647829,-0.06,-0.01,1.05,2.5,2.26,-2.01,929.42,30.94
5647868,-0.06,-0.01,1.06,2.5,2.44,-1.89,929.44,30.92
5647906,-0.06,-0.01,1.05,2.69,2.99,-1.83,929.49,30.94
5647944,-0.06,-0.01,1.05,2.87,3.23,-1.65,929.46,30.95
5647982,-0.05,-0.01,1.03,2.99,3.54,-1.77,929.41,30.93
5648020,-0.06,-0.01,1.03,3.11,3.54,-1.65,929.43,30.93
5648058,-0.07,-0.02,1.01,3.05,4.09,-1.46,929.47,30.94
5648096,-0.06,-0.01,1.01,3.23,3.85,-1.46,929.47,30.93
5648146,-0.06,-0.01,1.0,3.11,3.85,-0.98,929.42,30.92
5648184,-0.07,-0.02,0.99,2.93,3.97,-1.04,929.44,30.92
5648223,-0.06,-0.02,0.98,2.75,4.15,-0.92,929.45,30.93
5648261,-0.07,-0.01,1.0,2.62,3.66,-0.79,929.45,30.94
5648299,-0.06,-0.02,0.97,2.44,3.6,-0.61,929.46,30.94
5648337,-0.06,-0.01,1.0,2.08,3.3,-0.37,929.44,30.93
5648375,-0.05,-0.02,1.0,1.95,3.42,-0.43,929.48,30.94
5648413,-0.05,-0.02,0.99,1.59,3.42,-0.37,929.51,30.94
5648451,-0.06,-0.03,0.98,1.46,3.17,-0.12,929.44,30.94
5648501,-0.05,-0.02,0.98,1.46,3.48,-0.12,929.47,30.92
5648539,-0.06,-0.03,0.98,1.34,3.54,0.0,929.53,30.94
5648577,-0.05,-0.03,0.95,1.53,3.42,-0.06,929.52,30.94
5648616,-0.06,-0.03,0.96,1.59,3.85,0.12,929.5,30.94
5648654,-0.05,-0.03,0.97,1.53,3.72,0.0,929.54,30.96
5648692,-0.05,-0.03,1.0,1.53,3.85,0.31,929.51,30.94
5648730,-0.06,-0.03,0.98,1.53,4.21,0.37,929.52,30.94
5648768,-0.05,-0.03,1.0,1.34,3.11,0.43,929.56,30.94
5648806,-0.05,-0.03,1.0,1.28,3.48,0.61,929.52,30.94
5648844,-0.05,-0.03,0.96,1.34,3.48,0.67,929.61,30.96
5648894,-0.04,-0.03,0.97,1.16,3.72,0.55,929.59,30.93
5648932,-0.05,-0.04,0.93,0.98,3.48,0.55,929.59,30.95
5648970,-0.05,-0.03,0.97,0.98,3.54,0.67,929.63,30.95
5649009,-0.05,-0.04,0.95,1.04,4.21,0.73,929.57,30.94
5649047,-0.04,-0.03,0.99,1.28,4.03,0.67,929.58,30.95
5649085,-0.04,-0.04,0.98,0.98,4.52,0.67,929.59,30.94
5649123,-0.04,-0.03,1.0,0.79,4.15,0.73,929.59,30.95
5649161,-0.04,-0.03,1.01,1.04,4.82,0.61,929.56,30.95
5649199,-0.04,-0.03,1.01,0.73,4.82,0.79,929.63,30.95
5649249,-0.04,-0.03,1.03,0.79,4.94,0.85,929.59,30.94
5649287,-0.04,-0.04,1.03,0.67,4.7,0.79,929.65,30.95
5649325,-0.04,-0.04,1.05,0.98,4.27,0.79,929.57,30.94
5649363,-0.04,-0.04,1.02,0.98,4.33,0.92,929.63,30.94
5649401,-0.04,-0.03,1.01,1.04,4.46,0.79,929.62,30.95
5649440,-0.04,-0.04,0.99,0.98,4.33,0.73,929.65,30.94
5649478,-0.04,-0.04,0.98,0.85,3.6,0.73,929.65,30.95
5649516,-0.05,-0.04,0.97,0.79,4.21,0.79,929.66,30.93
5649554,-0.03,-0.04,0.99,0.61,3.97,0.98,929.65,30.94
5649592,-0.03,-0.04,1.0,0.37,3.97,0.79,929.71,30.95
5649754,-0.04,-0.03,1.03,0.18,3.6,0.79,929.64,30.87
5649792,-0.04,-0.04,1.01,0.18,3.3,0.73,929.66,30.89
5649830,-0.03,-0.04,1.03,0.06,3.23,0.73,929.61,30.9
5650094,-0.04,-0.03,1.07,-0.12,1.65,0.79,929.73,30.82
5650132,-0.03,-0.03,1.06,-0.12,2.01,0.73,929.68,30.83
5650170,-0.03,-0.03,1.06,0.06,1.89,0.67,929.71,30.86
5650208,-0.04,-0.03,1.08,0.49,1.65,0.55,929.73,30.85
5650247,-0.03,-0.04,1.05,0.85,1.4,0.55,929.73,30.87
5650285,-0.03,-0.03,1.05,0.98,1.53,0.37,929.74,30.87
5650323,-0.03,-0.03,1.04,1.28,2.08,0.43,929.69,30.88
5650373,-0.04,-0.04,1.03,1.59,2.08,0.31,929.76,30.88
5650411,-0.04,-0.04,1.03,1.59,2.62,0.24,929.78,30.89
5650449,-0.04,-0.04,1.02,1.71,2.56,0.31,929.71,30.88
5650487,-0.04,-0.03,1.03,1.65,2.99,0.18,929.73,30.9
5650525,-0.04,-0.03,1.02,1.95,3.54,0.18,929.8,30.9
5650563,-0.04,-0.03,1.05,1.83,3.91,0.24,929.71,30.89
5650601,-0.04,-0.04,1.03,1.89,4.21,0.18,929.71,30.9
5650639,-0.04,-0.04,1.04,2.38,4.7,0.0,929.68,30.9
5650677,-0.04,-0.03,1.02,2.08,4.76,0.06,929.77,30.91
5650727,-0.05,-0.03,1.02,2.32,5.07,0.06,929.77,30.89
5650765,-0.04,-0.04,1.01,2.38,5.31,0.18,929.72,30.92
5650804,-0.04,-0.04,1.01,2.14,5.0,0.06,929.73,30.89
5650842,-0.04,-0.04,1.01,2.32,5.13,0.37,929.7,30.92
5650880,-0.04,-0.04,1.0,2.38,5.07,0.37,929.74,30.92
5650918,-0.04,-0.03,1.01,2.44,4.82,0.43,929.75,30.93
5650956,-0.04,-0.04,0.97,2.38,5.31,0.55,929.8,30.91
5650994,-0.04,-0.04,0.96,2.32,5.13,0.55,929.75,30.92
5651032,-0.04,-0.04,0.95,2.01,5.19,0.49,929.77,30.93
5651070,-0.03,-0.04,0.96,1.77,4.7,0.61,929.72,30.94
5651120,-0.04,-0.05,0.97,1.71,5.31,0.67,929.76,30.92
5651158,-0.03,-0.04,0.98,1.59,4.82,0.92,929.72,30.92
5651197,-0.03,-0.04,0.98,1.4,4.76,0.79,929.83,30.92
5651235,-0.03,-0.04,0.97,1.34,4.46,0.98,929.77,30.93
5651273,-0.03,-0.04,0.99,1.4,5.0,0.85,929.8,30.93
5651311,-0.03,-0.03,1.0,1.16,5.13,0.98,929.8,30.94
5651349,-0.03,-0.03,1.02,1.04,4.94,0.98,929.78,30.93
5651387,-0.03,-0.04,1.04,1.04,4.7,1.04,929.82,30.94
5651425,-0.03,-0.04,1.05,1.16,4.58,0.98,929.77,30.93
5651463,-0.03,-0.04,1.05,1.1,4.76,0.98,929.8,30.94
5651513,-0.03,-0.03,1.05,1.53,4.33,0.98,929.76,30.92
5651551,-0.02,-0.03,1.04,1.4,4.58,1.16,929.81,30.93
5651589,-0.03,-0.03,1.02,1.59,4.39,0.85,929.8,30.93
5651628,-0.04,-0.03,1.04,1.71,4.64,0.92,929.85,30.94
5651666,-0.03,-0.03,1.02,1.59,5.19,0.92,929.79,30.94
5651704,-0.02,-0.03,1.03,1.53,4.82,0.79,929.78,30.92
5651742,-0.03,-0.03,1.02,1.53,4.7,0.92,929.84,30.92
5651780,-0.02,-0.04,1.01,1.53,4.33,0.67,929.83,30.94
5651818,-0.02,-0.03,1.0,1.4,4.52,0.67,929.79,30.94
5651868,-0.02,-0.03,1.01,1.59,3.91,0.73,929.86,30.92
5651906,-0.03,-0.04,0.97,1.53,4.21,0.61,929.83,30.93
5651944,-0.02,-0.03,1.01,1.65,3.42,0.73,929.79,30.92
5651982,-0.03,-0.04,1.02,1.77,3.85,0.79,929.82,30.92
5652020,-0.02,-0.05,0.97,1.77,3.72,0.67,929.87,30.94
5652059,-0.02,-0.04,1.02,2.01,3.17,0.55,929.84,30.94
5652097,-0.0,-0.05,0.96,1.83,3.97,0.49,929.84,30.93
5652135,-0.02,-0.03,0.99,1.95,3.05,0.37,929.86,30.94
5652173,-0.02,-0.04,0.94,2.2,4.27,0.24,929.84,30.94
5652211,-0.01,-0.04,0.95,1.95,2.99,0.31,929.86,30.94
5652261,-0.03,-0.06,0.9,1.65,3.54,0.12,929.85,30.93
5652299,-0.01,-0.04,0.93,1.53,3.05,0.0,929.84,30.92
5652337,-0.01,-0.04,0.93,1.71,4.09,-0.24,929.89,30.94
5652375,-0.04,-0.05,0.91,1.71,2.81,0.18,929.9,30.95
5652413,-0.03,-0.04,0.93,1.95,2.99,0.06,929.87,30.94
5652452,-0.04,-0.05,0.88,1.95,3.54,-0.24,929.85,30.94
5652490,-0.02,-0.04,0.92,1.59,3.23,-0.12,929.93,30.94
5652528,-0.02,-0.05,0.91,1.46,3.3,-0.12,929.87,30.94
5652566,-0.03,-0.04,0.94,1.28,3.05,-0.12,929.93,30.95
5652616,-0.03,-0.05,0.94,1.16,3.42,-0.12,929.86,30.92
5652654,-0.03,-0.04,0.97,1.04,3.3,-0.18,929.87,30.94
5652692,-0.03,-0.04,0.97,1.04,3.48,-0.12,929.87,30.91
5652730,-0.04,-0.04,0.96,1.04,3.91,-0.06,929.88,30.94
5652768,-0.02,-0.04,0.99,1.1,4.27,-0.18,929.89,30.93
5652806,-0.03,-0.04,0.98,0.85,4.21,-0.12,929.89,30.93
5652845,-0.04,-0.03,1.0,1.04,4.03,0.0,929.94,30.93
5652883,-0.03,-0.04,1.01,0.98,4.58,-0.12,929.88,30.94
5652921,-0.03,-0.04,1.02,0.98,4.09,-0.18,929.91,30.94
5652959,-0.03,-0.03,1.03,0.92,3.97,0.0,929.93,30.94
5653036,-0.03,-0.03,1.04,1.1,3.91,0.12,929.93,30.9
5653074,-0.02,-0.03,1.03,0.92,3.23,0.06,929.85,30.91
5653112,-0.03,-0.03,1.05,0.92,3.17,0.0,929.92,30.94
5653202,-0.02,-0.04,1.06,0.98,3.66,0.06,929.92,30.89
5653240,-0.02,-0.02,1.07,0.85,3.23,-0.06,929.95,30.9
5653278,-0.03,-0.02,1.08,1.1,3.05,0.0,929.92,30.91
5653316,-0.03,-0.02,1.08,1.16,3.11,0.06,929.89,30.91
5653354,-0.02,-0.03,1.1,1.1,3.42,-0.06,929.89,30.91
5653392,-0.03,-0.03,1.08,1.4,3.66,0.06,929.97,30.92
5653431,-0.03,-0.03,1.08,1.34,3.11,0.06,929.92,30.92
5653480,-0.03,-0.03,1.08,1.46,3.3,-0.12,929.88,30.91
5653519,-0.03,-0.02,1.11,1.46,3.05,0.0,929.84,30.91
5653557,-0.03,-0.03,1.09,1.28,3.3,0.0,929.9,30.91
5653595,-0.03,-0.02,1.11,1.4,2.87,-0.18,929.89,30.92
5653633,-0.02,-0.02,1.13,1.16,2.99,-0.12,929.9,30.92
5653671,-0.02,-0.03,1.12,1.22,3.11,-0.12,929.92,30.92
5653709,-0.02,-0.02,1.14,1.34,2.81,-0.12,929.9,30.94
5653747,-0.02,-0.02,1.13,1.4,2.2,-0.18,929.95,30.93
5653785,-0.03,-0.02,1.13,1.65,2.32,0.0,929.92,30.92
5653835,-0.03,-0.03,1.1,1.77,2.2,0.06,929.91,30.93
5653873,-0.03,-0.02,1.12,1.77,2.32,-0.06,929.95,30.94
5653911,-0.03,-0.03,1.11,1.71,2.2,0.0,929.9,30.93
5653949,-0.02,-0.03,1.08,1.46,1.95,0.0,929.98,30.93
5653988,-0.02,-0.02,1.08,1.59,2.08,-0.06,929.95,30.94
5654026,-0.03,-0.02,1.08,1.53,2.08,0.06,929.87,30.94
5654064,-0.02,-0.02,1.09,1.22,1.4,0.0,929.92,30.94
5654102,-0.02,-0.01,1.13,1.1,0.43,-0.06,929.88,30.93
5654140,-0.04,-0.02,1.04,1.34,1.53,0.12,929.93,30.94
5654178,-0.03,-0.03,1.07,1.22,0.98,0.06,929.9,30.94
5654228,-0.02,-0.04,1.01,1.22,2.87,-0.06,929.94,30.93
5654266,-0.03,-0.02,1.02,1.28,2.2,-0.18,929.93,30.93
5654304,-0.02,-0.03,1.0,1.28,4.21,-0.31,929.97,30.94
5654342,-0.02,-0.04,1.0,1.34,4.15,-0.49,929.92,30.93
5654381,-0.03,-0.03,1.05,1.46,4.33,-0.37,929.92,30.94
5654419,-0.03,-0.04,1.05,1.46,4.46,-0.37,929.92,30.94
5654457,-0.03,-0.02,1.1,1.46,4.58,-0.43,929.92,30.94
5654495,-0.02,-0.03,1.11,2.01,4.94,-0.37,929.92,30.94
5654533,-0.02,-0.03,1.08,1.77,5.31,-0.31,929.91,30.94
5654583,-0.04,-0.03,1.06,2.56,5.98,-0.49,929.93,30.92
5654621,-0.02,-0.04,1.01,2.87,6.84,-0.61,929.98,30.94
5654659,-0.03,-0.03,1.02,3.23,7.14,-0.61,929.97,30.93
5654697,-0.03,-0.04,1.0,4.15,7.51,-0.55,929.91,30.94
5654735,-0.02,-0.06,0.91,4.15,8.3,-0.61,929.94,30.94
5654774,-0.01,-0.05,0.95,4.27,7.81,-0.55,929.93,30.94
5654812,-0.02,-0.06,0.9,4.21,7.81,-0.49,929.9,30.93
5654850,-0.03,-0.05,0.86,3.91,8.06,-0.55,929.95,30.94
5654888,0.0,-0.05,0.92,3.97,9.09,-0.61,929.91,30.94
5654926,-0.0,-0.06,0.9,3.72,9.83,-0.49,929.84,30.94
5654976,-0.01,-0.06,0.92,3.48,10.01,-0.55,929.81,30.93
5655014,-0.01,-0.05,0.91,3.42,11.11,-0.61,929.83,30.93
5655052,-0.01,-0.06,0.91,3.48,11.23,-0.55,929.81,30.94
5655091,-0.01,-0.06,0.91,3.23,11.47,-0.67,929.8,30.93
5655129,-0.0,-0.06,0.89,2.93,12.21,-0.73,929.85,30.94
5655167,0.01,-0.05,0.89,2.56,12.88,-0.61,929.84,30.94
5655205,-0.0,-0.05,0.9,2.32,12.94,-0.67,929.81,30.95
5655243,-0.0,-0.06,0.89,1.89,13.06,-0.79,929.88,30.94
5655281,-0.01,-0.06,0.88,1.53,13.18,-0.61,929.78,30.94
5655331,0.0,-0.06,0.87,1.1,13.0,-0.61,929.86,30.94
5655369,0.0,-0.06,0.85,0.61,12.39,-0.73,929.85,30.94
5655407,0.0,-0.06,0.87,0.37,11.78,-0.85,929.82,30.94
5655446,0.0,-0.07,0.87,0.06,11.35,-0.67,929.84,30.95
5655484,0.0,-0.06,0.9,-0.37,10.31,-0.73,929.86,30.94
5655522,0.0,-0.05,0.93,-0.67,10.44,-0.92,929.82,30.95
5655560,0.0,-0.05,0.94,-0.98,9.46,-0.92,929.87,30.95
5655598,0.0,-0.05,0.96,-1.04,9.28,-0.92,929.87,30.95
5655636,0.02,-0.05,1.0,-1.22,8.85,-0.98,929.84,30.93
5655686,0.0,-0.04,1.06,-1.22,7.26,-0.67,929.78,30.93
5655724,0.0,-0.04,1.05,-1.34,6.71,-0.85,929.79,30.93
5655762,-0.0,-0.03,1.09,-1.1,6.04,-1.1,929.84,30.93
5655801,0.01,-0.04,1.07,-1.1,6.29,-1.16,929.79,30.93
5655839,0.0,-0.05,1.08,-1.16,5.92,-1.16,929.85,30.95
5655877,0.0,-0.05,1.04,-1.04,6.16,-1.4,929.79,30.92
5655915,-0.0,-0.04,1.01,-0.92,6.47,-1.46,929.87,30.93
5655953,0.0,-0.05,0.98,-0.92,7.39,-1.46,929.85,30.94
5655991,0.02,-0.06,0.99,-1.04,6.9,-1.83,929.86,30.94
5656029,0.01,-0.05,1.01,-1.22,6.53,-1.77,929.83,30.95
5656105,-0.01,-0.04,0.98,-1.28,6.71,-1.95,929.82,30.92
5656143,0.01,-0.05,1.02,-0.85,6.77,-1.95,929.82,30.93
5656181,0.03,-0.07,1.01,-0.98,6.84,-2.14,929.84,30.92
5656270,0.04,-0.05,1.02,-0.67,6.04,-2.38,929.82,30.9
5656309,0.02,-0.06,1.01,-0.24,4.76,-2.62,929.86,30.91
5656347,0.01,-0.06,0.98,-0.49,4.52,-2.69,929.85,30.91
5656385,-0.0,-0.05,0.97,-0.67,4.15,-2.75,929.87,30.92
5656423,0.01,-0.04,0.98,-0.67,4.7,-3.23,929.83,30.93
5656461,0.0,-0.04,0.94,-0.73,4.39,-3.3,929.9,30.94
5656511,-0.02,-0.06,0.96,-0.85,5.43,-3.17,929.86,30.91
5656549,-0.02,-0.05,0.96,-1.1,5.62,-3.48,929.88,30.92
5656587,-0.01,-0.03,0.99,-1.1,6.84,-3.72,929.89,30.92
5656625,-0.02,-0.03,1.0,-1.1,7.39,-3.66,929.92,30.94
5656664,-0.02,-0.04,1.02,-1.22,8.97,-3.85,929.89,30.94
5656702,-0.02,-0.04,1.03,-0.98,9.58,-3.97,929.88,30.93
5656740,-0.02,-0.04,1.01,-1.04,10.38,-3.91,929.86,30.92
5656778,-0.02,-0.03,1.04,-0.92,10.93,-3.85,929.84,30.93
5656816,-0.02,-0.02,1.07,-0.79,11.23,-3.91,929.85,30.94
5656854,-0.03,-0.02,1.09,-0.61,10.99,-3.72,929.82,30.93
5656904,-0.04,-0.03,1.14,0.12,11.35,-3.66,929.87,30.93
5656942,-0.01,-0.02,1.16,0.0,11.11,-3.66,929.81,30.93
5656981,-0.03,-0.0,1.18,0.24,11.47,-3.72,929.87,30.94
5657019,-0.02,-0.01,1.15,0.43,11.96,-3.6,929.86,30.94
5657057,-0.01,-0.0,1.19,0.37,11.72,-3.6,929.85,30.94
5657095,-0.02,-0.01,1.15,0.43,11.84,-3.42,929.82,30.94
5657133,-0.03,-0.0,1.18,0.55,10.8,-3.17,929.78,30.93
5657171,-0.02,-0.01,1.17,0.37,10.56,-3.05,929.83,30.93
5657209,-0.04,0.0,1.18,0.37,10.13,-3.17,929.81,30.93
5657259,-0.02,-0.0,1.21,0.55,9.95,-2.69,929.81,30.94
5657297,-0.0,-0.01,1.21,0.55,9.7,-2.87,929.77,30.94
5657336,-0.04,-0.01,1.21,0.43,8.3,-2.81,929.78,30.94
5657374,-0.02,-0.01,1.18,-0.12,9.83,-2.93,929.74,30.94
5657412,-0.0,0.0,1.23,-0.55,9.28,-2.99,929.68,30.94
5657450,-0.02,-0.01,1.2,-0.67,9.58,-3.05,929.76,30.94
5657488,-0.05,-0.01,1.15,-0.73,8.79,-2.81,929.73,30.95
5657526,-0.05,-0.02,1.14,-0.73,9.52,-2.81,929.82,30.96
5657564,-0.01,-0.04,1.1,-0.79,9.09,-3.05,929.8,30.94
5657614,0.0,-0.01,1.1,-0.98,7.93,-2.87,929.8,30.94
5657652,-0.01,-0.0,1.1,-0.98,6.29,-2.38,929.76,30.94
5657690,-0.04,0.01,1.16,-1.1,6.29,-2.2,929.71,30.93
5657729,-0.03,0.04,1.31,-1.34,5.0,-1.95,929.73,30.94
5657767,-0.03,0.04,1.47,-1.53,6.04,-1.83,929.7,30.94
5657805,-0.0,0.03,1.5,-2.08,7.2,-2.08,929.7,30.94
5657843,0.0,0.06,1.57,-2.38,7.2,-2.26,929.76,30.95
5657881,0.0,0.04,1.47,-2.62,8.73,-2.08,929.73,30.94
5657919,-0.01,0.04,1.47,-2.62,7.93,-2.14,929.73,30.94
5657957,-0.0,0.07,1.42,-2.26,9.52,-2.38,929.75,30.94
5658007,-0.01,0.03,1.31,-1.34,8.36,-2.2,929.7,30.94
5658045,0.01,0.01,1.28,-1.16,7.81,-2.56,929.71,30.93
5658083,0.01,0.03,1.3,-0.92,7.14,-2.44,929.71,30.94
5658121,0.01,0.01,1.3,-0.61,6.47,-2.44,929.66,30.94
5658160,0.01,-0.0,1.27,-0.92,6.23,-2.32,929.74,30.94
5658198,-0.0,0.01,1.26,-0.85,5.86,-2.44,929.73,30.95
5658236,-0.01,0.01,1.21,-0.67,5.62,-2.75,929.73,30.94
5658274,0.0,0.0,1.15,-0.98,4.52,-2.62,929.74,30.95
5658312,0.01,0.01,1.13,-0.98,4.27,-2.69,929.74,30.94
5658362,0.02,0.0,1.12,-1.22,3.11,-2.62,929.7,30.94
5658400,0.01,-0.0,1.15,-1.46,2.87,-2.93,929.75,30.94
5658438,-0.01,-0.0,1.16,-1.4,2.81,-2.93,929.64,30.94
5658476,-0.0,-0.01,1.18,-1.16,2.81,-3.11,929.68,30.94
5658514,0.01,0.01,1.17,-1.53,2.26,-3.48,929.66,30.94
5658553,0.01,0.01,1.13,-1.46,3.05,-3.6,929.65,30.94
5658591,0.02,0.0,1.12,-1.46,3.05,-3.72,929.65,30.94
5658629,0.01,0.0,1.14,-1.34,3.3,-3.91,929.7,30.94
5658667,0.0,-0.0,1.11,-1.16,3.42,-4.09,929.64,30.94
5658705,-0.0,0.01,1.14,-1.1,3.11,-4.27,929.61,30.94
5658755,0.01,0.0,1.14,-1.04,4.21,-4.58,929.63,30.95
5658793,0.01,0.0,1.15,-1.1,4.52,-4.82,929.62,30.94
5658831,0.01,0.01,1.17,-0.92,4.15,-5.07,929.6,30.94
5658869,0.01,0.0,1.13,-1.1,5.62,-5.07,929.62,30.95
5658907,-0.0,0.02,1.14,-1.22,6.1,-5.25,929.55,30.94
5658945,0.0,0.02,1.15,-1.16,6.59,-5.49,929.57,30.95
5658984,0.0,0.01,1.14,-0.92,6.65,-5.68,929.58,30.95
5659022,-0.01,0.02,1.16,-0.98,6.59,-5.55,929.53,30.94
5659060,0.0,0.01,1.16,-0.73,7.39,-5.68,929.53,30.94
5659098,0.0,0.0,1.16,-0.67,7.51,-6.1,929.55,30.95
5659174,-0.01,0.02,1.13,-0.31,7.02,-6.1,929.47,30.92
5659212,-0.01,0.01,1.17,-0.12,7.51,-6.1,929.52,30.93
5659251,0.01,0.0,1.11,-0.43,8.24,-6.04,929.52,30.94
5659341,-0.0,-0.01,1.04,-0.49,8.73,-6.16,929.49,30.91
5659379,-0.0,0.02,1.14,-0.18,7.51,-6.41,929.46,30.92
5659417,0.01,-0.0,1.05,-0.18,8.67,-6.29,929.36,30.93
5659456,0.01,0.01,1.1,-0.55,6.84,-6.47,929.46,30.93
5659494,0.0,0.01,1.12,-0.61,8.48,-6.29,929.41,30.92
5659532,0.01,-0.0,1.13,-1.16,7.2,-6.53,929.34,30.92
5659582,-0.01,0.02,1.21,-1.28,7.57,-6.71,929.37,30.93
5659620,-0.01,0.0,1.15,-1.34,6.84,-6.77,929.36,30.92
5659658,-0.0,0.0,1.22,-1.4,7.14,-6.77,929.43,30.93
5659696,0.01,0.01,1.15,-1.46,7.26,-6.9,929.38,30.94
5659734,-0.01,0.01,1.21,-1.46,6.47,-6.9,929.4,30.94
5659772,-0.02,-0.0,1.14,-1.22,6.96,-6.71,929.42,30.94
5659811,-0.01,0.0,1.15,-1.34,6.41,-7.02,929.31,30.92
5659849,-0.01,0.01,1.11,-1.34,6.53,-6.96,929.39,30.95
5659887,-0.02,0.01,1.11,-1.46,4.94,-6.71,929.38,30.94
5659925,-0.02,-0.02,1.09,-1.53,6.1,-6.77,929.37,30.94
5659975,-0.01,-0.01,1.09,-1.71,5.07,-6.96,929.31,30.93
5660013,-0.0,0.0,1.13,-1.83,5.31,-6.77,929.34,30.93
5660051,0.0,-0.02,1.09,-1.95,5.68,-7.02,929.31,30.95
5660089,0.0,-0.01,1.1,-2.14,5.92,-7.2,929.34,30.94
5660127,-0.02,-0.03,1.04,-2.44,6.65,-7.26,929.3,30.94
5660165,-0.0,-0.03,1.0,-2.69,5.98,-7.26,929.33,30.95
5660204,0.01,-0.01,1.0,-2.56,5.0,-7.57,929.33,30.95
5660242,-0.02,-0.02,1.0,-2.5,4.7,-7.51,929.29,30.94
5660280,-0.01,-0.03,0.98,-2.81,4.7,-7.39,929.28,30.94
5660330,0.03,-0.02,0.99,-3.23,4.7,-7.75,929.26,30.93
5660368,-0.0,-0.02,0.99,-3.91,4.58,-7.51,929.23,30.93
5660406,-0.02,-0.02,1.06,-4.27,4.15,-7.75,929.26,30.94
5660444,0.02,-0.03,1.02,-4.64,4.82,-8.3,929.2,30.94
5660482,0.01,0.01,1.12,-5.19,4.27,-8.48,929.21,30.95
5660521,0.01,0.0,1.08,-5.43,4.76,-8.42,929.14,30.94
5660559,-0.01,-0.0,1.1,-5.43,4.64,-8.97,929.16,30.94
5660597,-0.0,-0.0,1.15,-5.07,5.68,-9.22,929.21,30.94
5660635,-0.02,-0.0,1.13,-5.0,5.07,-9.22,929.2,30.94
5660685,-0.03,0.02,1.16,-4.52,6.41,-9.52,929.16,30.94
5660723,0.0,0.01,1.11,-4.27,6.71,-9.83,929.13,30.94
5660761,0.01,0.02,1.23,-4.09,5.62,-9.89,929.17,30.94
5660799,-0.01,0.01,1.16,-3.91,4.88,-10.01,929.14,30.95
5660837,-0.04,0.02,1.26,-3.66,5.49,-9.95,929.15,30.93
5660875,-0.01,0.0,1.24,-3.42,7.14,-10.25,929.15,30.94
5660914,-0.03,0.02,1.2,-3.3,5.25,-10.19,929.15,30.94
5660952,-0.02,0.0,1.16,-3.17,5.62,-10.19,929.17,30.96
5660990,-0.03,-0.01,1.08,-3.05,5.8,-10.31,929.16,30.94
5661028,-0.01,0.01,1.14,-2.75,5.31,-10.38,929.15,30.95
5661078,-0.02,-0.0,1.11,-2.2,5.49,-10.5,929.15,30.94
5661116,-0.04,-0.0,1.13,-2.26,6.96,-10.62,929.05,30.94
5661154,-0.02,-0.01,1.11,-2.08,8.12,-10.74,929.12,30.94
5661192,-0.05,-0.02,1.11,-2.08,6.96,-10.8,929.21,30.96
5661230,-0.01,-0.02,1.08,-2.5,6.9,-10.93,929.1,30.95
5661268,-0.03,-0.01,1.04,-2.81,7.14,-10.93,929.07,30.95
5661307,-0.03,0.0,1.07,-3.05,6.71,-10.44,929.11,30.96
5661345,-0.02,-0.02,1.04,-3.42,5.62,-10.44,929.01,30.95
5661383,-0.06,-0.01,1.07,-3.97,4.52,-10.25,928.99,30.95
5661433,-0.04,-0.01,1.1,-4.64,4.88,-9.83,929.02,30.95
5661471,-0.04,-0.0,1.17,-5.13,3.42,-9.52,928.99,30.95
5661509,-0.06,0.02,1.16,-5.31,2.99,-9.34,928.98,30.94
5661547,-0.06,0.03,1.24,-5.31,2.75,-9.16,928.97,30.94
5661586,-0.04,0.02,1.25,-5.43,3.05,-8.85,928.98,30.95
5661624,-0.07,0.01,1.28,-5.13,2.62,-8.79,929.06,30.97
5661662,-0.05,0.02,1.29,-5.49,3.36,-8.67,928.96,30.95
5661700,-0.04,0.04,1.31,-5.13,4.09,-8.54,928.96,30.95
5661738,-0.05,0.04,1.32,-4.94,4.33,-8.36,928.99,30.95
5661788,-0.05,0.03,1.33,-4.64,4.03,-8.0,928.94,30.93
5661826,-0.04,0.03,1.34,-4.7,4.94,-7.75,928.99,30.95
5661864,-0.04,0.04,1.32,-4.58,4.03,-7.57,928.99,30.95
5661903,-0.05,0.04,1.34,-4.15,4.52,-7.32,928.93,30.94
5661941,-0.03,0.03,1.32,-4.09,4.7,-7.2,928.94,30.95
5661979,-0.04,0.04,1.35,-4.03,4.76,-6.96,928.98,30.94
5662017,-0.04,0.04,1.31,-4.03,5.07,-6.84,928.99,30.95
5662055,-0.03,0.04,1.31,-4.03,5.55,-6.65,928.95,30.95
5662093,-0.03,0.03,1.3,-3.85,6.77,-6.59,928.97,30.95
5662131,-0.01,0.02,1.27,-3.72,6.65,-6.65,928.88,30.95
5662208,-0.04,0.02,1.22,-3.23,7.57,-6.23,928.95,30.92
5662246,-0.03,0.02,1.24,-3.05,7.51,-6.35,928.95,30.94
5662284,-0.03,0.01,1.2,-3.11,7.39,-6.23,928.92,30.94
5662373,-0.02,0.01,1.2,-2.93,5.74,-5.74,928.88,30.9
5662412,-0.03,0.0,1.17,-2.87,5.55,-5.68,928.88,30.92
5662450,-0.03,-0.0,1.16,-2.93,5.37,-5.55,928.95,30.94
5662488,-0.02,-0.0,1.14,-2.87,5.19,-5.68,928.9,30.93
5662526,-0.02,-0.0,1.11,-2.93,4.58,-5.49,928.85,30.92
5662564,-0.02,-0.01,1.07,-3.05,4.03,-5.37,928.91,30.94
5662614,-0.02,-0.02,1.05,-3.42,3.85,-5.43,928.88,30.93
5662652,-0.03,-0.02,1.07,-3.42,3.36,-5.31,928.84,30.93
5662690,-0.02,-0.03,1.04,-3.6,3.48,-5.31,928.87,30.94
5662728,-0.02,-0.03,1.04,-3.85,3.17,-5.25,928.88,30.94
5662767,-0.03,-0.02,1.03,-3.91,3.6,-5.19,928.86,30.93
5662805,-0.0,-0.03,1.01,-4.09,2.75,-5.19,928.8,30.92
5662843,-0.01,-0.01,1.04,-4.21,2.14,-5.25,928.79,30.93
5662881,-0.02,-0.02,1.02,-4.58,2.08,-5.0,928.83,30.94
5662919,-0.02,-0.02,1.08,-4.52,1.65,-4.94,928.77,30.93
5662957,-0.01,-0.02,1.09,-4.82,1.71,-5.13,928.79,30.95
5663007,-0.02,-0.01,1.13,-5.07,1.4,-5.07,928.75,30.92
5663045,-0.0,-0.01,1.15,-5.25,1.28,-5.07,928.82,30.94
5663084,-0.02,-0.01,1.16,-5.19,2.5,-5.19,928.87,30.96
5663122,-0.01,-0.01,1.13,-4.82,1.83,-5.25,928.81,30.94
5663160,-0.01,0.01,1.18,-4.64,1.71,-5.19,928.76,30.96
5663198,-0.0,-0.0,1.17,-4.76,1.83,-5.43,928.77,30.95
5663236,-0.01,0.0,1.2,-4.7,1.59,-5.62,928.79,30.95
5663274,0.0,-0.01,1.19,-4.52,2.62,-5.49,928.79,30.95
5663312,0.0,0.01,1.19,-4.58,1.89,-5.74,928.79,30.95
5663362,-0.02,0.0,1.15,-4.52,2.56,-5.86,928.72,30.94
5663400,-0.0,-0.01,1.17,-4.33,2.2,-5.68,928.73,30.95
5663438,-0.01,-0.0,1.18,-4.21,1.83,-5.8,928.73,30.95
5663477,-0.01,-0.01,1.15,-4.21,1.95,-5.74,928.73,30.94
5663515,-0.02,-0.0,1.16,-4.09,2.14,-6.16,928.71,30.95
5663553,-0.01,-0.0,1.18,-4.03,2.81,-6.1,928.76,30.95
5663591,-0.0,-0.01,1.19,-4.09,2.38,-6.16,928.74,30.95
5663629,-0.01,0.0,1.2,-3.85,2.44,-6.35,928.75,30.95
5663667,-0.0,0.01,1.2,-3.91,2.56,-6.35,928.76,30.95
5663717,-0.0,-0.01,1.19,-3.85,1.46,-6.35,928.76,30.95
5663755,-0.01,-0.0,1.14,-3.91,0.43,-6.29,928.75,30.95
5663793,-0.02,0.0,1.13,-3.72,0.18,-6.04,928.77,30.96
5663831,-0.01,-0.01,1.11,-3.66,0.49,-5.92,928.74,30.95
5663870,-0.01,0.01,1.11,-3.66,-0.55,-6.16,928.74,30.96
5663908,-0.02,-0.0,1.15,-3.48,-0.37,-6.04,928.72,30.95
5663946,-0.01,-0.01,1.18,-3.42,-0.31,-5.98,928.68,30.96
5663984,-0.0,0.01,1.23,-3.66,-0.37,-5.98,928.75,30.96
5664022,-0.02,0.01,1.24,-3.66,-0.31,-5.86,928.68,30.96
5664060,-0.0,0.0,1.18,-3.54,0.49,-5.92,928.75,30.97
5664110,-0.01,0.01,1.18,-3.72,0.85,-6.23,928.72,30.96
5664148,-0.01,0.0,1.16,-3.66,1.22,-5.98,928.67,30.95
5664186,0.0,0.01,1.14,-3.66,1.28,-6.41,928.65,30.96
5664224,-0.01,0.02,1.18,-3.48,2.2,-6.84,928.64,30.95
5664263,-0.01,0.0,1.16,-3.23,3.3,-6.77,928.68,30.96
5664301,-0.0,0.0,1.22,-2.99,3.3,-7.02,928.67,30.96
5664339,-0.01,0.0,1.21,-2.93,4.27,-7.32,928.69,30.95
5664377,-0.01,0.01,1.18,-2.81,4.76,-7.39,928.67,30.98
5664415,-0.01,0.02,1.19,-2.56,5.49,-7.45,928.67,30.96
5664465,0.0,0.01,1.14,-2.69,5.86,-7.51,928.74,30.96
5664503,0.0,0.01,1.16,-2.44,5.74,-7.69,928.68,30.96
5664541,-0.01,-0.01,1.11,-2.38,6.47,-7.63,928.67,30.96
5664579,-0.01,-0.01,1.14,-2.26,6.47,-7.75,928.65,30.96
5664617,-0.0,-0.01,1.1,-2.38,6.96,-7.81,928.66,30.96
5664656,-0.0,-0.0,1.1,-2.5,6.65,-7.81,928.65,30.96
5664694,-0.02,-0.02,1.08,-2.5,7.69,-7.81,928.67,30.96
5664732,0.0,-0.03,1.06,-2.62,7.57,-7.93,928.61,30.96
5664770,0.01,-0.01,1.07,-2.87,7.63,-8.12,928.6,30.97
5664808,-0.01,-0.01,1.03,-2.93,7.39,-7.93,928.66,30.97
5664858,0.01,-0.01,1.04,-2.99,6.71,-7.93,928.66,30.96
5664896,-0.0,-0.02,1.03,-2.99,6.23,-7.81,928.72,30.96
5664934,-0.02,-0.02,1.04,-3.11,5.68,-7.81,928.69,30.97
5664972,-0.01,-0.02,1.04,-2.99,5.55,-7.69,928.58,30.96
5665010,0.0,-0.01,1.02,-3.23,5.31,-7.93,928.69,30.96
5665049,0.0,-0.01,1.04,-3.6,5.37,-7.87,928.66,30.97
5665087,-0.02,-0.02,1.02,-3.78,5.49,-7.69,928.67,30.97
5665125,-0.01,-0.01,1.07,-4.21,5.0,-7.81,928.66,30.98
5665163,-0.02,-0.02,1.06,-4.15,5.74,-7.81,928.65,30.96
5665239,-0.01,-0.01,1.1,-4.27,5.49,-7.75,928.69,30.94
5665277,-0.01,-0.0,1.08,-4.39,5.0,-7.75,928.65,30.95
5665315,-0.01,0.01,1.12,-4.21,4.94,-7.63,928.6,30.95
5665404,-0.02,-0.01,1.1,-4.09,4.94,-7.75,928.65,30.93
5665443,-0.01,-0.0,1.12,-4.03,4.94,-7.63,928.61,30.93
5665481,-0.01,0.0,1.1,-4.03,4.82,-7.69,928.71,30.94
5665519,-0.01,0.0,1.14,-3.91,4.82,-7.45,928.63,30.94
5665557,-0.0,-0.0,1.13,-3.78,4.88,-7.63,928.64,30.95
5665595,-0.02,0.01,1.16,-3.6,4.82,-7.51,928.64,30.95
5665645,0.0,0.0,1.14,-3.3,4.15,-7.63,928.63,30.94
5665683,-0.01,0.01,1.16,-3.3,4.09,-7.57,928.63,30.95
5665721,-0.0,-0.01,1.13,-3.17,4.94,-7.39,928.57,30.95
5665759,-0.01,-0.0,1.14,-3.11,3.91,-7.63,928.68,30.97
5665797,-0.01,-0.01,1.12,-2.99,4.76,-7.57,928.62,30.96
5665836,-0.01,-0.01,1.1,-2.81,4.33,-7.57,928.62,30.96
5665874,-0.0,-0.0,1.15,-2.56,4.58,-7.63,928.62,30.95
5665912,-0.0,-0.02,1.09,-2.62,5.0,-7.81,928.63,30.96
5665950,-0.02,-0.0,1.11,-2.5,4.33,-7.87,928.68,30.96
5665988,-0.0,-0.02,1.07,-2.5,5.37,-7.93,928.68,30.96
5666038,0.0,-0.02,1.08,-2.62,4.09,-8.0,928.64,30.95
5666076,-0.01,-0.02,1.04,-2.5,4.82,-8.06,928.65,30.95
5666114,-0.01,-0.03,1.05,-2.56,4.33,-8.18,928.66,30.95
5666152,-0.01,-0.02,1.06,-2.69,4.39,-8.3,928.72,30.96
5666190,-0.01,-0.03,1.03,-2.69,4.58,-8.24,928.69,30.97
5666228,0.01,-0.03,1.02,-2.81,4.76,-8.24,928.7,30.97
5666267,0.01,-0.03,0.99,-2.69,4.76,-8.3,928.7,30.96
5666305,0.0,-0.03,0.94,-2.81,4.21,-8.3,928.63,30.96
5666343,-0.01,-0.04,0.92,-3.11,3.97,-8.18,928.63,30.96
5666393,0.02,-0.05,0.88,-3.85,4.03,-8.54,928.62,30.95
5666431,0.01,-0.04,0.89,-3.85,2.87,-8.3,928.64,30.96
5666469,-0.0,-0.05,0.86,-4.27,2.69,-8.42,928.61,30.95
5666507,0.01,-0.05,0.88,-4.21,3.3,-8.79,928.65,30.95
5666545,0.02,-0.05,0.9,-4.58,3.42,-8.97,928.58,30.95
5666583,0.02,-0.05,0.9,-4.82,3.23,-8.91,928.61,30.97
5666621,-0.0,-0.04,0.92,-5.13,3.36,-9.16,928.59,30.97
5666660,0.0,-0.04,0.98,-5.25,3.66,-9.16,928.62,30.96
5666698,0.02,-0.04,1.04,-5.49,3.42,-9.34,928.67,30.96
5666747,0.02,-0.03,1.06,-5.55,2.81,-9.28,928.7,30.96
5666786,0.01,-0.03,1.1,-5.37,3.11,-9.46,928.73,30.98
5666824,0.02,-0.04,1.05,-5.55,3.54,-9.77,928.67,30.97
5666862,0.01,-0.02,1.08,-5.55,3.11,-9.7,928.75,30.97
5666900,0.02,-0.03,1.03,-5.49,3.6,-9.89,928.76,30.96
5666938,-0.01,-0.02,1.06,-5.8,4.03,-10.01,928.72,30.95
5666976,0.01,-0.01,1.11,-5.68,3.54,-10.07,928.68,30.96
5667015,0.01,-0.02,1.12,-5.98,3.66,-10.19,928.75,30.97
5667053,0.01,-0.02,1.11,-6.16,4.03,-10.31,928.71,30.97
5667091,0.01,-0.0,1.17,-6.53,4.09,-10.62,928.71,30.96
5667141,0.0,-0.0,1.19,-6.41,3.48,-10.13,928.78,30.95
5667179,-0.0,0.0,1.24,-6.1,3.11,-10.62,928.77,30.97
5667217,-0.0,-0.0,1.23,-5.68,3.54,-10.62,928.77,30.96
5667255,0.0,-0.0,1.21,-5.74,3.05,-10.25,928.81,30.97
5667293,-0.0,0.01,1.23,-5.49,2.81,-10.31,928.79,30.98
5667331,-0.02,0.01,1.23,-5.0,3.05,-10.62,928.82,30.97
5667369,-0.02,-0.0,1.22,-4.7,3.42,-10.13,928.77,30.96
5667408,-0.02,-0.0,1.24,-4.7,2.99,-10.07,928.82,30.98
5667446,-0.03,-0.0,1.15,-4.76,3.54,-10.44,928.86,30.97
5667496,-0.02,0.01,1.2,-4.88,4.52,-9.95,928.82,30.96
5667534,-0.01,-0.0,1.2,-4.88,4.82,-10.13,928.82,30.96
5667572,-0.02,-0.0,1.24,-4.88,4.88,-9.89,928.89,30.99
5667610,-0.03,0.0,1.25,-4.94,5.31,-10.01,928.82,30.96
5667648,-0.03,0.01,1.26,-4.94,4.76,-9.64,928.89,30.98
5667686,-0.02,0.02,1.31,-5.0,4.33,-9.58,928.87,30.98
5667725,-0.03,0.02,1.29,-5.19,3.66,-9.46,928.83,30.98
5667763,-0.02,0.02,1.34,-5.19,3.23,-9.09,928.87,30.98
5667801,0.0,0.02,1.34,-5.43,3.78,-8.85,928.86,30.97
5667839,-0.02,0.03,1.36,-5.0,2.99,-8.73,928.89,30.99
5667889,-0.02,0.01,1.32,-5.07,3.23,-8.18,928.83,30.96
5667927,-0.03,0.02,1.34,-5.13,2.44,-8.36,928.87,30.96
5667965,-0.03,0.02,1.32,-5.19,3.23,-7.93,928.92,30.97
5668003,-0.03,0.01,1.3,-5.0,2.69,-7.87,928.94,30.98
5668042,-0.02,0.02,1.35,-4.64,3.3,-8.12,928.95,30.97
5668080,-0.02,0.01,1.31,-4.39,3.48,-8.0,928.99,30.99
5668118,-0.02,0.02,1.34,-4.39,3.11,-7.75,928.9,30.97
5668156,-0.04,0.01,1.3,-4.21,3.72,-7.63,928.99,30.97
5668194,-0.03,0.0,1.31,-4.46,3.3,-7.32,928.99,30.98
5668270,-0.03,0.03,1.3,-4.46,2.93,-6.96,928.91,30.94
5668308,-0.01,0.02,1.29,-4.64,2.93,-6.9,928.93,30.96
5668346,-0.03,0.02,1.32,-4.88,2.14,-6.59,928.91,30.96
5668436,-0.03,0.02,1.33,-5.55,2.56,-6.41,928.97,30.92
5668474,-0.04,0.02,1.34,-5.62,4.03,-6.53,928.99,30.95
5668512,-0.02,0.01,1.33,-5.0,4.88,-6.47,928.99,30.95
5668550,-0.0,0.02,1.36,-4.64,5.19,-6.53,929.01,30.95
5668588,-0.03,0.02,1.32,-4.21,6.59,-6.35,928.96,30.95
5668626,-0.02,-0.0,1.32,-4.03,6.71,-6.41,929.04,30.95
5668676,-0.01,-0.01,1.28,-3.91,7.39,-6.29,929.03,30.95
5668714,-0.02,-0.01,1.26,-4.09,6.9,-6.41,929.06,30.95
5668753,-0.01,-0.0,1.24,-3.78,7.14,-5.92,929.06,30.96
5668791,-0.03,-0.0,1.22,-4.09,6.84,-6.04,929.13,30.96
5668829,-0.01,-0.01,1.22,-3.91,7.2,-5.86,929.05,30.97
5668867,-0.02,-0.02,1.2,-4.33,6.71,-5.55,929.11,30.96
5668905,-0.02,-0.02,1.23,-4.46,5.98,-5.49,929.01,30.95
5668944,-0.03,-0.02,1.21,-4.58,5.68,-5.37,929.06,30.96
5668982,-0.01,-0.0,1.27,-4.76,5.13,-5.31,929.04,30.96
5669020,-0.01,-0.01,1.25,-5.0,5.13,-5.07,929.13,30.96
5669070,-0.01,-0.02,1.26,-4.88,4.21,-4.94,929.08,30.95
5669108,-0.01,-0.02,1.25,-5.13,4.64,-5.07,929.05,30.95
5669146,0.01,-0.02,1.27,-5.43,4.27,-4.82,929.07,30.95
5669184,-0.01,-0.03,1.26,-5.31,5.07,-4.82,929.1,30.96
5669222,-0.01,-0.03,1.25,-5.37,3.85,-4.94,929.1,30.96
5669260,-0.01,-0.02,1.26,-5.37,3.78,-4.94,929.06,30.95
5669299,0.0,-0.03,1.23,-5.37,3.11,-4.82,929.08,30.96
5669337,0.0,-0.02,1.28,-5.43,2.62,-4.76,929.1,30.98
5669375,-0.0,-0.03,1.24,-5.68,1.89,-4.82,929.08,30.95
5669425,-0.0,-0.02,1.27,-5.92,1.04,-4.7,929.06,30.96
5669463,-0.0,-0.02,1.27,-6.23,0.85,-4.64,929.05,30.96
5669501,-0.01,-0.01,1.32,-6.35,-0.18,-4.7,929.01,30.96
5669539,-0.0,-0.02,1.31,-6.47,0.12,-4.76,929.04,30.96
5669577,0.0,-0.01,1.34,-6.59,-0.61,-4.82,929.08,30.96
5669615,-0.0,-0.01,1.38,-6.47,-0.24,-4.88,929.08,30.97
5669653,0.01,-0.0,1.39,-6.47,-0.37,-4.82,929.1,30.97
5669692,-0.01,0.01,1.4,-6.29,0.12,-4.94,929.03,30.96
5669730,-0.01,0.01,1.44,-6.04,-0.12,-5.13,929.04,30.96
5669780,-0.01,-0.0,1.44,-5.8,0.24,-5.0,929.04,30.95
5669818,-0.01,0.01,1.47,-5.62,0.31,-5.07,929.08,30.95
5669856,-0.0,0.01,1.45,-5.0,1.83,-5.13,929.05,30.95
5669894,-0.0,0.0,1.43,-4.58,2.5,-5.31,929.12,30.97
5669932,-0.01,0.01,1.42,-4.33,3.42,-5.25,929.13,30.98
5669970,-0.01,0.0,1.4,-3.78,4.39,-5.19,929.07,30.96
5670008,-0.01,0.0,1.41,-3.6,4.03,-5.31,929.08,30.97
5670047,-0.02,0.01,1.4,-3.23,4.76,-5.25,929.06,30.95
5670085,-0.02,0.0,1.38,-3.3,4.03,-5.07,929.02,30.97
5670123,0.01,0.0,1.38,-3.17,3.78,-4.94,929.03,30.96
5670173,0.0,-0.01,1.34,-3.23,3.78,-4.7,929.06,30.95
5670211,0.01,-0.02,1.3,-3.42,4.39,-4.88,929.04,30.96
5670249,0.01,-0.01,1.29,-3.17,4.46,-4.7,929.1,30.95
5670287,0.02,-0.02,1.24,-3.36,4.33,-5.07,929.04,30.96
5670325,0.02,-0.01,1.21,-3.6,4.46,-4.82,928.97,30.95
5670363,0.02,-0.02,1.24,-3.48,4.58,-4.82,929.03,30.96
5670402,0.03,-0.03,1.26,-3.42,4.21,-5.0,928.94,30.95
5670440,0.02,-0.01,1.24,-3.48,2.75,-5.07,929.02,30.97
5670478,0.01,0.0,1.31,-3.11,3.05,-5.0,928.96,30.97
5670528,0.03,-0.02,1.28,-3.23,3.42,-5.19,929.04,30.96
5670566,0.01,-0.01,1.31,-3.36,2.81,-5.37,928.98,30.98
5670604,0.02,-0.02,1.28,-2.81,3.85,-5.43,928.96,30.96
5670642,0.04,-0.02,1.25,-2.75,5.13,-5.8,928.93,30.96
5670680,0.04,-0.02,1.22,-2.44,5.43,-5.74,928.94,30.95
5670718,0.02,-0.03,1.17,-2.14,5.55,-5.98,928.95,30.96
5670757,0.01,-0.03,1.2,-1.89,5.98,-6.16,928.93,30.96
5670795,0.02,-0.03,1.18,-2.2,7.08,-6.65,928.94,30.97
5670833,0.03,-0.02,1.22,-2.44,7.08,-6.53,928.9,30.97
5670871,0.03,-0.03,1.22,-2.69,7.69,-6.84,928.93,30.96
5670921,0.0,-0.01,1.31,-2.81,7.32,-7.14,928.91,30.95
5670959,0.04,-0.02,1.31,-2.99,7.87,-6.9,928.86,30.96
5670997,0.03,-0.01,1.31,-3.42,7.08,-7.26,928.91,30.97
5671035,0.01,-0.0,1.32,-3.6,7.69,-7.32,928.86,30.96
5671074,0.04,-0.01,1.33,-3.78,6.96,-7.26,928.92,30.98
5671112,0.03,-0.01,1.36,-4.09,6.59,-7.45,928.89,30.98
5671150,0.02,-0.02,1.31,-4.03,6.53,-7.45,928.86,30.96
5671188,0.02,-0.01,1.34,-4.39,6.77,-7.51,928.94,30.98
5671226,0.04,-0.01,1.34,-4.58,7.51,-7.51,928.93,30.98
5671302,0.0,-0.02,1.32,-4.76,7.2,-7.93,928.89,30.94
5671340,0.01,-0.02,1.37,-4.88,6.96,-8.18,928.84,30.95
5671378,0.03,-0.01,1.37,-5.07,7.2,-8.12,928.92,30.97
5671469,-0.01,-0.01,1.4,-5.19,8.36,-8.54,928.81,30.91
5671507,0.02,-0.02,1.4,-5.55,9.16,-8.73,928.87,30.94
5671545,0.01,-0.01,1.41,-5.68,9.52,-8.79,928.83,30.94
5671583,0.01,-0.01,1.38,-5.25,10.68,-9.16,928.8,30.95
5671622,0.01,0.0,1.4,-5.49,10.01,-9.22,928.82,30.95
5671660,0.0,-0.0,1.38,-5.55,10.44,-9.03,928.82,30.95
5671698,0.0,-0.01,1.38,-5.43,9.83,-8.97,928.83,30.95
5671748,0.02,-0.03,1.37,-5.92,8.79,-9.03,928.76,30.95
5671786,-0.01,0.0,1.36,-6.35,6.77,-8.85,928.83,30.96
5671824,0.02,-0.0,1.37,-6.53,6.29,-8.85,928.81,30.96
5671862,0.03,-0.01,1.36,-7.14,4.94,-8.67,928.78,30.95
5671901,0.0,-0.01,1.35,-7.26,4.7,-8.73,928.83,30.95
5671939,-0.0,-0.03,1.33,-7.45,3.6,-8.36,928.79,30.95
5671977,0.01,-0.01,1.34,-7.39,2.32,-8.48,928.8,30.96
5672015,-0.01,-0.0,1.33,-7.32,1.59,-8.54,928.81,30.97
5672053,0.0,-0.0,1.32,-7.2,1.34,-8.48,928.79,30.96
5672103,0.0,-0.03,1.32,-7.08,2.69,-8.91,928.9,30.95
5672141,-0.02,-0.01,1.35,-6.9,2.38,-8.91,928.81,30.95
5672179,-0.01,-0.02,1.34,-6.71,3.97,-9.03,928.77,30.95
5672217,0.01,-0.02,1.3,-6.59,4.39,-9.09,928.81,30.96
5672256,-0.01,-0.01,1.32,-6.35,3.6,-9.16,928.75,30.96
5672294,-0.01,-0.02,1.29,-6.47,3.85,-9.03,928.78,30.95
5672332,-0.01,-0.0,1.31,-6.41,3.85,-8.97,928.78,30.96
5672370,-0.01,-0.01,1.34,-6.41,3.97,-8.97,928.74,30.96
5672408,-0.02,-0.03,1.3,-6.35,3.11,-8.85,928.73,30.97
5672446,-0.03,-0.02,1.31,-6.71,2.99,-8.67,928.74,30.96
5672496,0.0,-0.02,1.27,-6.65,3.3,-8.79,928.76,30.95
5672534,-0.01,-0.01,1.21,-6.84,2.81,-8.91,928.72,30.96
5672572,-0.01,-0.02,1.19,-6.9,2.87,-8.61,928.71,30.97
5672611,-0.01,-0.03,1.19,-6.84,3.54,-8.91,928.65,30.96
5672649,-0.01,-0.02,1.2,-6.77,2.62,-8.79,928.67,30.97
5672687,-0.01,-0.03,1.19,-6.47,2.75,-8.79,928.69,30.97
5672725,-0.01,-0.03,1.19,-6.47,1.71,-8.91,928.62,30.96
5672763,-0.0,-0.03,1.21,-6.41,1.89,-8.79,928.71,30.98
5672801,-0.01,-0.04,1.16,-6.16,2.38,-8.61,928.67,30.96
5672851,-0.0,-0.02,1.2,-6.16,2.01,-8.67,928.63,30.95
5672889,-0.03,-0.02,1.21,-5.74,1.83,-8.91,928.69,30.96
5672927,-0.02,-0.03,1.24,-6.04,2.08,-8.67,928.66,30.96
5672965,-0.0,-0.02,1.26,-6.04,1.71,-8.85,928.64,30.96
5673004,-0.03,-0.02,1.27,-5.92,1.89,-8.73,928.65,30.96
5673042,-0.0,-0.03,1.23,-5.92,2.08,-8.79,928.71,30.95
5673080,-0.02,-0.01,1.26,-5.68,1.89,-8.91,928.68,30.95
5673118,-0.02,-0.03,1.21,-5.55,3.36,-8.73,928.65,30.96
5673156,-0.02,-0.03,1.16,-5.55,3.36,-8.79,928.63,30.96
5673206,-0.01,-0.03,1.15,-5.49,4.21,-8.73,928.59,30.95
5673244,-0.02,-0.03,1.13,-5.62,3.42,-8.79,928.59,30.95
5673282,-0.02,-0.02,1.2,-5.55,3.78,-8.91,928.62,30.95
5673321,-0.01,-0.04,1.18,-5.8,5.07,-8.79,928.56,30.96
5673359,-0.01,-0.03,1.19,-5.92,5.43,-8.97,928.56,30.95
5673397,-0.03,-0.02,1.2,-6.1,5.25,-9.09,928.55,30.96
5673435,-0.01,-0.02,1.18,-6.1,4.27,-8.85,928.59,30.96
5673473,-0.02,-0.02,1.2,-6.29,4.46,-8.91,928.64,30.96
5673511,-0.01,-0.03,1.16,-6.47,3.36,-8.61,928.58,30.98
5673550,-0.03,-0.02,1.21,-6.16,3.05,-8.42,928.53,30.96
5673599,-0.01,-0.04,1.14,-6.35,2.44,-8.06,928.58,30.95
5673638,-0.03,-0.03,1.12,-6.47,2.14,-8.3,928.59,30.96
5673676,-0.02,-0.04,1.1,-6.23,1.77,-7.93,928.59,30.97
5673714,-0.01,-0.05,1.06,-6.59,1.89,-7.87,928.53,30.96
5673752,-0.0,-0.03,1.02,-6.84,0.31,-7.87,928.5,30.95
5673790,-0.03,-0.03,1.02,-7.14,0.24,-7.75,928.55,30.96
5673828,0.01,-0.04,1.04,-7.69,0.55,-7.75,928.55,30.96
5673866,-0.02,-0.03,1.11,-7.87,1.1,-7.93,928.57,30.97
5673904,-0.03,-0.04,1.11,-8.06,1.16,-7.75,928.53,30.96
5673954,-0.03,-0.03,1.15,-8.0,2.14,-7.75,928.53,30.95
5673992,-0.02,-0.03,1.15,-7.87,1.95,-7.87,928.5,30.94
5674030,-0.0,-0.02,1.18,-7.93,2.08,-8.0,928.49,30.95
5674069,-0.02,-0.03,1.17,-7.57,3.05,-8.06,928.53,30.95
5674107,-0.01,-0.01,1.2,-7.69,3.23,-8.06,928.5,30.96
5674145,-0.0,-0.0,1.26,-7.26,3.17,-8.0,928.52,30.95
5674183,-0.02,-0.01,1.23,-7.26,4.52,-8.0,928.49,30.96
5674221,-0.04,-0.01,1.26,-6.96,4.64,-8.0,928.49,30.96
5674259,-0.02,-0.01,1.25,-6.71,4.21,-8.06,928.45,30.95
5674335,-0.02,0.01,1.22,-6.47,4.64,-7.63,928.49,30.94
5674373,-0.02,-0.01,1.18,-6.41,4.46,-7.57,928.48,30.93
5674411,-0.02,-0.0,1.24,-6.23,4.09,-7.26,928.48,30.93
5674501,-0.02,-0.0,1.27,-5.86,3.3,-7.2,928.46,30.92
5674539,0.01,0.01,1.32,-5.74,2.87,-7.02,928.49,30.92
5674577,-0.01,0.0,1.3,-5.37,3.11,-6.9,928.42,30.92
5674615,-0.02,0.02,1.28,-5.55,1.53,-6.65,928.46,30.94
5674653,-0.02,0.03,1.32,-5.37,1.83,-6.47,928.37,30.93
5674691,-0.0,0.02,1.3,-5.37,1.34,-6.41,928.39,30.93
5674730,0.01,0.02,1.36,-5.07,1.65,-6.29,928.42,30.93
5674779,-0.0,0.01,1.32,-4.82,0.98,-6.04,928.38,30.94
5674817,0.0,0.02,1.37,-4.64,0.55,-5.98,928.34,30.94
5674856,0.01,0.02,1.32,-4.15,0.55,-5.86,928.35,30.93
5674894,-0.01,0.02,1.34,-4.15,-0.24,-5.74,928.39,30.94
5674932,-0.0,0.01,1.31,-3.54,0.18,-5.74,928.37,30.93
5674970,0.0,0.03,1.35,-3.11,-0.18,-5.98,928.36,30.95
5675008,0.0,0.03,1.35,-2.93,0.73,-5.92,928.37,30.94
5675046,-0.0,0.02,1.36,-2.87,0.79,-6.04,928.28,30.94
5675084,0.0,0.02,1.37,-2.38,1.34,-6.16,928.34,30.96
5675134,0.0,0.02,1.38,-2.08,1.28,-6.41,928.31,30.94
5675172,0.0,0.04,1.37,-1.77,2.26,-6.41,928.31,30.94
5675211,0.02,0.03,1.39,-1.53,2.44,-6.77,928.33,30.94
5675249,-0.0,0.03,1.4,-1.46,2.75,-6.84,928.38,30.96
5675287,-0.0,0.01,1.38,-1.46,3.17,-6.9,928.33,30.95
5675325,0.01,0.02,1.36,-1.46,2.99,-6.9,928.33,30.94
5675363,-0.01,0.03,1.34,-1.16,3.23,-7.14,928.33,30.95
5675401,-0.0,0.02,1.31,-1.1,3.36,-7.14,928.31,30.95
5675439,0.0,0.0,1.3,-1.22,3.36,-6.96,928.33,30.95
5675477,0.0,0.01,1.27,-1.4,3.54,-7.08,928.31,30.96
5675527,-0.01,0.01,1.24,-1.1,3.6,-7.08,928.3,30.94
5675565,0.0,-0.0,1.24,-1.22,4.15,-7.14,928.28,30.94
5675603,0.01,-0.01,1.22,-1.4,3.78,-7.39,928.27,30.94
5675642,0.01,-0.01,1.21,-1.4,3.85,-7.08,928.31,30.95
5675680,0.0,-0.02,1.17,-1.46,4.21,-7.14,928.29,30.94
5675718,0.02,-0.02,1.15,-1.59,3.97,-7.32,928.33,30.95
5675756,0.01,-0.02,1.12,-1.53,3.3,-7.39,928.25,30.95
5675794,-0.0,-0.03,1.1,-1.53,2.75,-7.14,928.24,30.95
5675832,0.02,-0.03,1.07,-1.77,3.36,-7.45,928.23,30.94
5675882,0.0,-0.01,1.13,-2.2,2.93,-7.39,928.24,30.94
5675920,0.02,-0.03,1.14,-2.44,3.3,-7.39,928.21,30.95
5675958,0.0,-0.04,1.16,-2.81,2.75,-7.63,928.23,30.95
5675996,0.0,-0.03,1.21,-2.69,3.3,-7.75,928.23,30.96
5676035,0.03,-0.02,1.19,-2.75,2.75,-7.93,928.22,30.95
5676073,0.01,-0.01,1.19,-3.11,3.23,-7.87,928.18,30.95
5676111,0.03,-0.03,1.15,-3.3,4.15,-8.0,928.2,30.96
5676149,0.02,-0.03,1.14,-3.23,4.15,-8.42,928.24,30.96
5676187,0.01,-0.03,1.15,-3.36,4.58,-8.73,928.22,30.97
5676225,0.01,-0.04,1.12,-3.36,5.49,-8.91,928.19,30.96
5676275,0.01,-0.03,1.09,-3.36,6.29,-9.28,928.18,30.94
5676313,0.02,-0.04,1.07,-3.36,6.47,-9.34,928.16,30.95
5676351,0.01,-0.04,1.06,-3.66,7.2,-9.4,928.11,30.95
5676389,0.01,-0.04,1.04,-3.66,6.65,-9.58,928.13,30.95
5676428,0.02,-0.03,1.06,-4.03,6.96,-9.64,928.16,30.95
5676466,0.0,-0.04,1.06,-4.33,6.77,-9.7,928.17,30.95
5676504,-0.0,-0.04,1.09,-4.82,6.16,-9.89,928.17,30.96
5676542,0.01,-0.03,1.14,-4.94,6.16,-9.95,928.17,30.95
5676580,0.01,-0.04,1.12,-5.31,6.35,-10.01,928.15,30.96
5676630,0.0,-0.02,1.14,-5.43,5.98,-9.77,928.12,30.94
5676668,-0.01,-0.04,1.13,-5.25,6.16,-9.89,928.1,30.95
5676706,-0.0,-0.05,1.09,-5.55,5.8,-10.01,928.13,30.94
5676744,-0.0,-0.03,1.09,-5.68,5.0,-9.83,928.16,30.96
5676782,0.0,-0.04,1.06,-5.55,5.55,-9.83,928.14,30.96
5676821,0.0,-0.03,1.07,-6.1,5.07,-9.77,928.14,30.95
5676859,0.01,-0.03,1.11,-6.04,5.37,-9.77,928.1,30.95
5676897,0.0,-0.04,1.12,-5.86,5.49,-9.95,928.12,30.95
5676935,-0.02,-0.02,1.14,-5.92,5.37,-9.89,928.03,30.95
5676973,-0.0,-0.03,1.16,-5.92,6.1,-9.77,928.16,30.96
5677023,-0.0,-0.02,1.16,-5.98,5.49,-9.83,928.08,30.95
5677061,0.01,-0.02,1.17,-5.74,5.92,-9.83,928.1,30.95
5677099,0.02,-0.03,1.15,-5.74,6.35,-10.01,928.12,30.96
5677137,-0.0,-0.01,1.2,-5.55,6.1,-10.01,928.07,30.95
5677175,-0.01,-0.02,1.17,-5.31,7.2,-10.01,928.1,30.96
5677213,-0.01,-0.01,1.25,-5.55,6.71,-10.07,928.07,30.95
5677252,-0.0,-0.01,1.23,-5.13,7.57,-10.13,928.08,30.96
5677290,-0.0,-0.01,1.2,-5.07,7.08,-10.01,928.1,30.96
5677328,-0.01,-0.01,1.21,-5.31,7.32,-10.01,928.05,30.96
5677404,-0.01,-0.01,1.24,-5.25,6.96,-10.01,928.1,30.93
5677442,-0.01,-0.02,1.19,-5.31,7.26,-9.89,928.16,30.95
5677480,-0.01,-0.01,1.22,-5.37,7.02,-10.01,928.1,30.94
5677569,-0.0,-0.01,1.17,-5.31,7.51,-10.01,928.07,30.91
5677608,-0.01,-0.02,1.15,-5.55,7.69,-9.95,928.09,30.92
5677646,-0.0,-0.02,1.15,-5.68,7.14,-10.13,928.09,30.93
5677684,-0.02,-0.02,1.18,-5.68,7.39,-10.13,928.16,30.95
5677722,-0.02,-0.02,1.16,-5.68,7.02,-10.31,928.11,30.94
5677760,-0.0,-0.02,1.21,-5.68,7.2,-10.31,928.04,30.94
5677810,-0.01,-0.02,1.16,-5.8,6.77,-10.31,928.1,30.93
5677848,-0.0,-0.01,1.17,-5.92,5.62,-10.25,928.04,30.94
5677886,0.01,-0.02,1.16,-6.04,5.07,-10.25,928.07,30.94
5677924,0.01,-0.01,1.11,-6.35,3.72,-10.13,928.07,30.94
5677962,-0.03,-0.01,1.14,-6.47,3.91,-9.83,928.07,30.94
5678001,0.0,-0.02,1.12,-6.84,3.6,-9.89,928.02,30.95
5678039,-0.0,-0.01,1.2,-7.02,2.75,-10.19,928.06,30.95
5678077,-0.0,-0.01,1.17,-6.96,3.72,-10.01,928.04,30.95
5678115,-0.0,-0.01,1.18,-7.32,2.69,-9.95,928.08,30.96
5678165,0.01,-0.02,1.16,-7.26,3.42,-10.31,928.07,30.95
5678203,0.0,0.0,1.18,-7.39,2.75,-10.31,928.06,30.95
5678241,-0.01,-0.01,1.16,-7.26,3.42,-10.31,928.12,30.95
5678279,-0.0,-0.01,1.19,-7.08,2.69,-10.74,928.1,30.96
5678317,-0.01,-0.01,1.19,-7.14,3.17,-10.62,928.12,30.96
5678355,-0.0,-0.01,1.21,-7.14,2.56,-10.5,928.16,30.96
5678394,-0.01,-0.01,1.2,-7.08,2.38,-10.74,928.11,30.96
5678432,-0.01,-0.01,1.19,-7.2,2.26,-10.68,928.11,30.96
5678470,0.01,-0.01,1.21,-7.32,1.65,-10.56,928.12,30.96
5678520,-0.0,-0.01,1.2,-7.32,1.04,-10.68,928.17,30.94
5678558,-0.02,-0.0,1.21,-7.39,1.22,-10.62,928.12,30.96
5678596,-0.02,-0.0,1.23,-7.2,1.16,-10.68,928.14,30.95
5678634,-0.0,-0.0,1.29,-7.14,0.43,-10.56,928.19,30.96
5678672,-0.02,0.0,1.26,-7.08,0.73,-10.62,928.12,30.95
5678710,-0.03,0.01,1.26,-7.02,0.67,-10.38,928.18,30.95
5678749,-0.02,0.0,1.28,-6.77,0.98,-10.5,928.23,30.97
5678787,-0.02,0.0,1.25,-6.77,1.1,-10.25,928.22,30.96
5678825,-0.02,0.0,1.24,-6.53,1.83,-10.44,928.21,30.97
5678863,-0.02,-0.01,1.23,-6.29,2.93,-10.56,928.24,30.96
5678913,-0.03,0.01,1.23,-6.41,3.48,-10.38,928.19,30.95
5678951,-0.03,0.0,1.25,-6.1,3.78,-10.25,928.16,30.95
5678989,-0.03,-0.01,1.24,-6.23,3.6,-10.31,928.17,30.96
5679027,-0.04,0.0,1.27,-6.1,4.64,-10.31,928.18,30.96
5679066,-0.02,-0.02,1.22,-5.98,4.64,-10.19,928.25,30.96
5679104,-0.02,-0.01,1.23,-5.92,4.09,-10.13,928.24,30.97
5679142,-0.04,0.0,1.19,-5.62,4.52,-10.19,928.22,30.95
5679180,-0.04,-0.0,1.2,-5.49,4.03,-9.83,928.16,30.97
5679218,-0.02,-0.01,1.19,-5.74,3.91,-9.83,928.19,30.96
5679268,-0.05,0.01,1.23,-5.86,2.93,-9.4,928.17,30.95
5679306,-0.03,-0.0,1.26,-5.8,2.75,-9.16,928.22,30.96
5679344,-0.02,0.02,1.31,-5.86,2.01,-9.28,928.23,30.97
5679382,-0.04,0.03,1.35,-5.92,1.1,-8.91,928.18,30.96
5679420,-0.03,-0.0,1.4,-5.31,2.26,-8.54,928.21,30.97
5679459,-0.02,0.0,1.4,-5.43,2.44,-8.67,928.19,30.96
5679497,-0.03,0.04,1.43,-5.19,2.01,-8.42,928.22,30.96
5679535,-0.03,0.04,1.4,-5.19,2.5,-8.36,928.21,30.96
5679573,-0.03,0.03,1.44,-4.94,2.56,-8.48,928.21,30.98
5679623,-0.03,0.01,1.4,-4.76,3.36,-8.42,928.21,30.95
5679661,-0.03,0.02,1.44,-4.88,3.17,-8.36,928.24,30.96
5679699,-0.03,0.01,1.41,-4.39,3.85,-8.36,928.28,30.98
5679737,-0.04,0.02,1.42,-3.91,4.09,-8.36,928.21,30.95
5679775,-0.03,0.0,1.41,-4.03,4.7,-8.06,928.2,30.97
5679814,-0.02,0.01,1.37,-3.85,4.64,-8.3,928.21,30.96
5679852,-0.05,0.02,1.39,-3.42,4.33,-8.06,928.26,30.97
5679890,-0.03,-0.01,1.32,-3.42,5.31,-7.81,928.24,30.97
5679928,-0.04,0.01,1.33,-3.6,4.94,-7.93,928.25,30.96
5679966,-0.03,-0.01,1.31,-3.23,6.04,-7.75,928.24,30.98
5680016,-0.03,-0.0,1.29,-3.48,5.55,-7.57,928.31,30.96
5680054,-0.04,0.0,1.3,-3.48,4.94,-7.26,928.32,30.97
5680092,-0.04,-0.01,1.25,-3.72,5.0,-7.32,928.27,30.97
5680130,-0.04,-0.01,1.27,-3.66,5.13,-7.08,928.26,30.96
5680168,-0.01,-0.02,1.23,-3.91,3.78,-6.9,928.29,30.97
5680207,-0.04,-0.01,1.22,-3.97,3.11,-6.65,928.27,30.97
5680245,-0.05,-0.01,1.2,-4.15,3.36,-6.29,928.25,30.98
5680283,-0.02,-0.01,1.19,-4.39,2.75,-6.29,928.27,30.97
5680321,-0.03,-0.01,1.21,-4.64,2.32,-6.1,928.36,30.98
5680397,-0.02,-0.02,1.27,-4.76,2.93,-5.8,928.33,30.94
5680435,-0.04,-0.02,1.27,-4.82,2.75,-5.55,928.32,30.95
5680473,-0.03,-0.02,1.24,-5.0,1.46,-5.43,928.32,30.96
5680563,-0.03,-0.03,1.24,-4.7,2.62,-5.25,928.36,30.94
5680601,-0.03,-0.03,1.24,-4.64,3.36,-5.19,928.34,30.94
5680639,-0.03,-0.02,1.23,-4.76,2.62,-5.13,928.34,30.95
5680677,-0.03,-0.01,1.24,-4.58,2.87,-4.88,928.41,30.96
5680715,-0.03,-0.02,1.22,-4.82,2.69,-4.76,928.34,30.96
5680753,-0.02,-0.02,1.25,-4.88,2.08,-4.64,928.31,30.95
5680803,-0.03,-0.02,1.28,-4.88,2.14,-4.7,928.32,30.95
5680841,-0.02,-0.02,1.34,-4.64,1.77,-4.58,928.34,30.95
5680880,-0.02,-0.01,1.32,-4.82,2.32,-4.58,928.39,30.96
5680918,-0.03,-0.02,1.34,-4.52,1.65,-4.46,928.34,30.96
5680956,-0.02,-0.03,1.34,-4.39,2.99,-4.46,928.29,30.95
5680994,0.01,-0.03,1.26,-4.39,2.81,-4.33,928.31,30.96
5681032,-0.02,-0.01,1.27,-4.46,2.87,-4.39,928.33,30.96
5681070,-0.02,-0.02,1.22,-4.39,3.42,-4.21,928.38,30.98
5681108,-0.0,-0.02,1.3,-4.46,2.69,-4.09,928.33,30.98
5681147,-0.01,-0.05,1.26,-4.64,3.17,-4.09,928.32,30.96
5681196,-0.0,-0.04,1.27,-4.94,2.75,-4.39,928.31,30.96
5681234,0.0,-0.02,1.28,-4.76,2.93,-4.52,928.32,30.96
5681273,-0.0,-0.02,1.25,-4.94,2.5,-4.39,928.39,30.97
5681311,-0.02,-0.03,1.23,-4.76,2.69,-4.27,928.34,30.97
5681349,-0.02,-0.05,1.18,-4.64,3.11,-4.46,928.37,30.97
5681387,-0.03,-0.04,1.2,-5.13,1.53,-4.46,928.35,30.97
5681425,-0.01,-0.04,1.16,-5.49,2.32,-4.39,928.34,30.96
5681463,-0.01,-0.02,1.21,-5.55,1.65,-4.46,928.46,30.98
5681502,-0.02,-0.04,1.19,-5.68,1.95,-4.27,928.35,30.96
5681551,-0.02,-0.03,1.21,-5.86,0.73,-4.21,928.36,30.96
5681590,-0.02,-0.03,1.21,-5.74,1.4,-4.21,928.36,30.95
5681628,-0.02,-0.04,1.18,-5.8,0.98,-4.09,928.28,30.97
5681666,-0.01,-0.02,1.24,-5.55,1.95,-4.15,928.32,30.96
5681704,-0.02,-0.02,1.23,-5.19,1.95,-4.03,928.37,30.97
5681742,-0.01,-0.02,1.23,-5.43,1.16,-3.97,928.35,30.98
5681780,-0.02,-0.01,1.27,-5.49,1.22,-4.21,928.39,30.99
5681818,-0.02,-0.03,1.23,-5.68,2.56,-4.03,928.4,30.98
5681857,-0.02,-0.03,1.23,-5.74,2.26,-4.15,928.39,30.98
5681906,-0.03,-0.03,1.2,-5.43,3.17,-4.21,928.35,30.97
5681944,-0.01,-0.04,1.21,-5.07,3.23,-4.33,928.34,30.96
5681983,-0.02,-0.02,1.19,-5.13,3.42,-4.58,928.33,30.96
5682021,0.0,-0.01,1.27,-4.76,4.09,-4.46,928.4,30.98
5682059,-0.03,-0.05,1.21,-4.46,5.0,-4.52,928.33,30.98
5682097,-0.03,-0.03,1.28,-4.58,3.6,-4.46,928.29,30.99
5682135,-0.03,-0.03,1.29,-4.15,4.33,-4.39,928.4,30.99
5682173,-0.02,-0.03,1.28,-4.15,3.6,-4.39,928.35,30.99
5682211,-0.02,-0.01,1.3,-4.33,4.39,-4.39,928.35,30.98
5682249,-0.0,-0.02,1.29,-4.03,4.58,-4.52,928.39,31.0
5682299,-0.01,-0.04,1.27,-3.97,4.7,-4.33,928.41,30.98
5682337,-0.03,-0.03,1.27,-3.85,4.21,-4.39,928.36,30.98
5682376,-0.03,-0.04,1.25,-3.72,4.39,-4.33,928.31,30.98
5682414,-0.02,-0.05,1.21,-4.09,3.11,-4.15,928.38,30.98
5682452,-0.02,-0.05,1.19,-4.27,3.05,-4.39,928.36,30.99
5682490,-0.01,-0.06,1.16,-4.21,3.23,-4.21,928.32,30.99
5682528,-0.01,-0.06,1.14,-4.76,2.38,-4.15,928.35,30.99
5682566,-0.01,-0.05,1.12,-4.52,2.38,-4.15,928.37,30.99
5682604,-0.03,-0.07,1.1,-4.52,0.55,-3.78,928.4,30.98
5682654,-0.02,-0.05,1.02,-5.0,0.06,-4.09,928.31,30.96
5682692,-0.03,-0.05,1.06,-4.76,0.18,-4.03,928.34,30.98
5682730,0.01,-0.08,1.01,-4.94,1.28,-4.09,928.35,30.98
5682768,0.01,-0.07,1.09,-5.13,0.98,-4.46,928.26,30.97
5682807,-0.01,-0.08,1.06,-4.94,2.81,-4.27,928.31,30.98
5682845,0.01,-0.06,1.1,-5.49,2.44,-4.52,928.27,30.97
5682883,-0.03,-0.02,1.3,-5.43,2.62,-4.64,928.24,30.97
5682921,-0.01,-0.06,1.22,-5.98,4.64,-4.39,928.33,30.98
5682959,-0.0,-0.0,1.46,-6.16,1.34,-4.58,928.24,30.98
5683009,0.0,-0.05,1.44,-6.1,4.64,-4.64,928.26,30.95
5683047,0.03,-0.01,1.61,-6.59,1.46,-4.27,928.22,30.97
5683085,0.01,-0.01,1.58,-6.1,5.13,-4.27,928.23,30.98
5683123,0.02,0.0,1.62,-5.8,2.99,-4.58,928.26,30.97
5683161,0.03,0.01,1.68,-5.49,1.77,-4.15,928.19,30.95
5683200,-0.01,-0.01,1.58,-5.25,-0.12,-4.09,928.24,30.96
5683238,0.01,-0.02,1.59,-5.19,0.31,-4.33,928.16,30.97
5683276,0.0,-0.02,1.54,-4.88,0.79,-4.52,928.22,30.96
5683314,0.03,0.0,1.59,-4.33,-1.22,-4.21,928.19,30.97
5683352,0.01,-0.01,1.54,-3.97,-1.1,-4.46,928.19,30.97
5683428,0.01,-0.02,1.57,-3.36,-0.43,-4.52,928.16,30.94
5683466,0.0,-0.03,1.52,-3.42,-0.43,-4.94,928.19,30.95
5683504,-0.02,-0.01,1.52,-3.23,-0.31,-5.0,928.17,30.94
5683593,0.02,-0.02,1.49,-2.26,0.12,-5.07,928.18,30.92
5683632,0.01,-0.03,1.43,-2.01,0.43,-5.19,928.13,30.94
5683670,-0.01,-0.03,1.38,-1.46,0.55,-5.43,928.14,30.94
5683708,0.01,-0.05,1.32,-1.34,0.92,-5.43,928.15,30.95
5683746,0.03,-0.06,1.3,-1.22,0.49,-5.8,928.15,30.95
5683784,0.0,-0.05,1.24,-0.98,0.31,-5.8,928.13,30.95
5683834,0.01,-0.05,1.19,-0.73,0.49,-5.8,928.12,30.94
5683872,0.01,-0.05,1.15,-0.73,0.79,-6.1,928.14,30.95
5683910,0.0,-0.06,1.12,-0.49,1.46,-6.47,928.07,30.95
5683948,-0.0,-0.07,1.1,-0.55,2.14,-6.53,928.06,30.95
5683986,0.0,-0.06,1.11,-0.61,1.95,-6.47,928.06,30.96
5684024,-0.01,-0.05,1.09,-0.92,3.48,-6.77,928.01,30.96
5684063,-0.01,-0.05,1.11,-0.73,3.97,-7.14,927.99,30.95
5684101,0.01,-0.06,1.13,-1.22,3.91,-7.02,927.98,30.96
5684139,0.0,-0.07,1.11,-1.4,4.39,-7.02,927.95,30.95
5684177,-0.0,-0.06,1.11,-1.89,4.94,-7.2,927.96,30.96
5684227,-0.02,-0.05,1.1,-2.32,4.76,-7.26,928.06,30.96
5684265,-0.02,-0.05,1.17,-2.87,5.07,-7.39,928.0,30.96
5684303,-0.0,-0.05,1.2,-3.36,4.7,-7.39,927.97,30.97
5684341,-0.01,-0.05,1.28,-3.48,5.07,-7.26,927.93,30.96
5684379,-0.02,-0.05,1.28,-3.78,4.15,-7.08,927.98,30.95
5684417,-0.01,-0.04,1.34,-3.85,3.36,-6.77,927.95,30.97
5684456,0.0,-0.04,1.29,-3.78,2.87,-6.71,927.93,30.95
5684494,-0.01,-0.03,1.2,-3.6,1.04,-6.71,927.91,30.96
5684532,-0.03,-0.03,1.21,-3.72,0.37,-6.53,927.94,30.96
5684582,-0.02,-0.05,1.26,-3.11,2.01,-6.47,927.96,30.96
5684620,0.01,-0.03,1.31,-3.11,0.73,-6.41,927.91,30.97
5684658,-0.03,-0.04,1.37,-2.69,1.46,-6.29,927.93,30.96
5684696,-0.01,-0.06,1.31,-3.17,1.77,-6.23,927.87,30.96
5684734,-0.0,-0.02,1.4,-3.05,1.22,-6.23,927.85,30.96
5684772,0.0,-0.03,1.28,-2.69,2.5,-5.92,927.81,30.96
5684810,-0.01,-0.03,1.29,-2.81,1.04,-6.04,927.85,30.97
5684849,-0.02,-0.02,1.27,-2.08,0.98,-6.1,927.79,30.96
5684887,-0.02,-0.04,1.25,-1.65,1.34,-5.92,927.84,30.96
5684936,-0.02,-0.05,1.23,-1.59,1.22,-5.86,927.84,30.95
5684975,-0.01,-0.05,1.22,-1.71,1.22,-5.98,927.75,30.95
5685013,-0.01,-0.05,1.17,-2.01,1.22,-5.8,927.76,30.96
5685051,-0.02,-0.05,1.12,-2.32,0.79,-5.49,927.81,30.97
5685089,-0.03,-0.05,1.14,-2.44,-0.37,-5.49,927.75,30.97
5685127,-0.04,-0.06,1.07,-2.75,0.37,-5.62,927.78,30.96
5685166,0.0,-0.05,1.13,-2.56,0.18,-5.55,927.75,30.95
5685204,-0.02,-0.05,1.1,-2.56,1.59,-5.62,927.7,30.96
5685242,-0.04,-0.05,1.06,-2.38,1.83,-5.74,927.71,30.98
5685280,-0.05,-0.03,1.1,-2.62,1.95,-5.8,927.7,30.97
5685330,-0.04,-0.04,1.17,-1.89,2.2,-5.49,927.66,30.96
5685368,-0.03,-0.04,1.19,-1.77,0.73,-5.19,927.7,30.97
5685406,-0.05,-0.03,1.19,-1.59,2.08,-4.94,927.63,30.96
5685444,-0.03,-0.06,1.18,-1.34,2.01,-4.76,927.66,30.97
5685483,-0.03,-0.03,1.17,-1.65,0.18,-4.58,927.59,30.97
5685521,-0.03,-0.03,1.16,-1.53,0.55,-4.15,927.63,30.97
5685559,-0.03,-0.05,1.11,-1.59,0.79,-4.03,927.62,30.97
5685597,-0.03,-0.03,1.18,-1.59,-0.67,-3.91,927.57,30.96
5685635,-0.03,-0.04,1.11,-1.4,-0.85,-3.78,927.59,30.97
5685685,-0.04,-0.02,1.17,-1.46,-0.43,-3.6,927.48,30.95
5685723,-0.02,-0.02,1.26,-1.4,0.55,-3.48,927.45,30.96
5685761,-0.02,-0.03,1.24,-1.4,2.69,-3.48,927.44,30.97
5685799,-0.05,-0.02,1.23,-1.46,2.08,-3.36,927.39,30.96
5685837,-0.05,-0.02,1.28,-1.34,4.03,-3.42,927.42,30.97
5685876,-0.0,-0.03,1.25,-1.22,4.33,-3.42,927.48,30.97
5685914,-0.02,-0.01,1.32,-0.37,3.42,-3.48,927.45,30.97
5685952,-0.02,-0.04,1.22,-0.06,4.82,-3.11,927.38,30.97
5685990,-0.01,-0.02,1.24,-0.18,4.64,-3.3,927.37,30.98
5686040,-0.01,-0.04,1.15,0.43,6.47,-3.42,927.35,30.96
5686078,-0.0,-0.04,1.11,-0.06,5.98,-3.42,927.37,30.96
5686116,-0.0,-0.03,1.09,-0.18,7.14,-3.54,927.34,30.97
5686154,-0.03,-0.04,1.04,-0.18,8.48,-3.66,927.34,30.98
5686192,0.01,-0.05,1.0,-0.55,9.03,-4.09,927.33,30.97
5686230,0.01,-0.04,1.0,-0.55,8.91,-3.97,927.34,30.97
5686269,-0.01,-0.05,0.98,-0.73,9.7,-3.97,927.28,30.97
5686307,-0.0,-0.06,0.94,-1.16,9.4,-4.09,927.32,30.98
5686345,-0.0,-0.06,0.96,-1.22,8.36,-4.27,927.26,30.97
5686383,-0.01,-0.07,0.86,-1.4,8.91,-4.09,927.25,30.98
5686459,0.0,-0.06,0.77,-1.34,7.02,-4.39,927.19,30.94
5686497,-0.03,-0.06,0.77,-1.46,5.92,-4.21,927.14,30.96
5686535,-0.02,-0.07,0.76,-1.83,5.92,-4.03,927.1,30.95
5686624,-0.01,-0.06,0.81,-2.87,3.3,-4.15,927.15,30.94
5686663,0.03,-0.06,0.86,-3.54,2.93,-4.03,927.06,30.94
5686701,0.01,-0.07,0.94,-3.78,4.58,-4.21,927.09,30.95
5686739,-0.03,-0.06,0.94,-3.97,3.97,-4.09,927.11,30.96
5686777,0.0,-0.05,1.04,-3.97,2.44,-3.97,927.11,30.95
5686815,0.02,-0.05,1.05,-3.97,3.66,-4.09,927.1,30.96
5686865,0.01,-0.06,1.04,-3.91,2.69,-4.09,927.09,30.95
5686903,-0.01,-0.04,1.04,-3.05,2.14,-3.97,927.03,30.96
5686941,0.01,-0.05,1.04,-2.99,0.43,-4.09,927.01,30.95
5686979,0.01,-0.04,1.05,-2.99,0.92,-4.27,926.97,30.96
5687017,-0.01,-0.05,1.07,-2.75,2.01,-4.33,926.97,30.98
5687055,0.0,-0.07,1.07,-2.44,1.83,-4.46,926.94,30.97
5687094,0.0,-0.06,1.05,-2.69,2.38,-4.64,926.9,30.96
5687132,0.01,-0.04,1.06,-2.26,3.11,-4.64,926.93,30.98
5687170,0.03,-0.05,1.04,-2.44,3.42,-4.82,926.89,30.98
5687220,-0.01,-0.06,1.03,-2.62,3.6,-5.0,926.9,30.96
5687258,0.01,-0.06,1.07,-2.62,4.21,-5.37,926.91,30.97
5687296,0.01,-0.05,1.05,-2.56,6.16,-5.43,926.9,30.98
5687334,0.01,-0.03,1.09,-2.38,5.92,-5.43,926.9,30.97
5687372,0.02,-0.04,1.13,-2.14,6.35,-5.74,926.93,30.97
5687410,-0.01,-0.04,1.11,-1.83,5.98,-5.8,926.9,30.98
5687448,-0.0,-0.02,1.19,-1.53,5.31,-5.74,926.9,30.98
5687487,0.0,-0.05,1.19,-1.16,5.86,-5.8,926.86,30.98
5687525,-0.01,-0.03,1.19,-1.4,4.82,-5.74,926.82,30.97
5687563,-0.01,-0.03,1.17,-1.22,5.25,-5.68,926.78,30.98
5687613,-0.0,-0.04,1.16,-1.22,4.27,-5.55,926.82,30.97
5687651,-0.01,-0.05,1.11,-0.73,4.09,-5.8,926.82,30.97
5687689,-0.01,-0.04,1.05,-0.67,5.0,-5.55,926.82,30.98
5687727,0.0,-0.04,1.02,-0.43,5.31,-5.74,926.79,30.98
5687765,-0.01,-0.05,0.97,-0.43,5.49,-5.8,926.77,30.98
5687803,0.01,-0.05,0.97,-0.79,4.94,-5.8,926.74,30.99
5687841,0.01,-0.06,0.94,-1.04,5.25,-6.04,926.75,30.97
5687879,-0.01,-0.06,0.97,-1.28,4.82,-6.04,926.75,30.98
5687918,0.0,-0.06,0.98,-1.53,5.07,-6.16,926.74,30.98
5687967,-0.01,-0.05,1.0,-1.59,4.46,-6.1,926.72,30.98
5688005,0.0,-0.05,1.01,-1.65,3.97,-6.04,926.75,30.98
5688044,0.01,-0.04,1.02,-1.95,2.38,-6.1,926.71,30.97
5688082,-0.01,-0.02,1.07,-2.14,1.71,-5.8,926.66,30.98
5688120,0.02,-0.03,1.07,-2.38,1.53,-5.68,926.69,30.99
5688158,-0.02,-0.03,1.08,-2.75,0.37,-5.55,926.67,30.99
5688196,-0.0,-0.03,1.14,-3.05,0.67,-5.62,926.72,31.0
5688234,-0.01,-0.04,1.08,-3.23,0.79,-5.62,926.65,30.99
5688272,-0.01,-0.0,1.18,-3.11,-0.43,-5.31,926.63,30.97
5688310,0.02,-0.02,1.09,-2.99,-0.12,-5.62,926.62,30.98
5688360,0.0,0.0,1.2,-2.69,0.06,-5.49,926.6,30.98
5688398,0.01,-0.02,1.17,-2.44,1.04,-5.62,926.56,30.98
5688436,-0.0,0.0,1.25,-1.95,1.28,-5.8,926.62,30.98
5688475,-0.0,-0.01,1.23,-1.59,3.17,-5.92,926.64,30.99
5688513,0.01,0.0,1.28,-1.28,2.32,-6.04,926.54,30.98
5688551,-0.0,-0.01,1.24,-0.92,3.48,-6.23,926.64,30.99
5688589,0.01,-0.02,1.19,-0.67,3.85,-6.41,926.59,30.97
5688627,0.01,0.01,1.17,-0.24,4.88,-6.41,926.59,30.98
5688665,0.02,-0.01,1.13,0.24,4.64,-6.59,926.58,30.98
5688715,-0.01,-0.01,1.12,0.49,4.21,-6.35,926.55,30.98
5688753,-0.01,-0.02,1.13,0.85,4.39,-6.47,926.56,30.97
5688791,0.02,-0.02,1.15,0.61,3.6,-6.59,926.63,30.98
5688829,-0.02,0.01,1.18,0.92,3.78,-6.77,926.58,30.98
5688868,0.0,-0.01,1.18,0.98,5.25,-6.53,926.56,30.98
5688906,-0.0,-0.02,1.17,0.67,5.0,-6.9,926.53,30.98
5688944,-0.02,-0.01,1.15,0.92,5.49,-6.9,926.55,30.98
5688982,-0.02,-0.01,1.12,0.73,6.96,-6.84,926.52,30.99
5689020,-0.01,-0.02,1.0,1.04,8.18,-7.14,926.5,30.98
5689058,-0.01,-0.01,1.01,1.1,6.71,-7.14,926.53,30.98
5689108,-0.01,-0.05,0.99,1.28,7.81,-6.96,926.55,30.98
5689146,0.01,-0.04,0.98,1.16,7.93,-7.08,926.55,31.0
5689184,-0.01,-0.03,0.96,1.46,7.81,-7.14,926.52,30.98
5689222,-0.01,-0.04,0.92,1.28,6.84,-7.02,926.47,30.98
5689260,0.01,-0.05,0.89,0.61,6.71,-6.9,926.44,30.99
5689299,0.0,-0.05,0.89,0.49,6.1,-6.96,926.5,30.99
5689337,0.01,-0.06,0.86,0.49,5.49,-6.84,926.47,31.0
5689375,0.01,-0.04,0.8,-0.06,5.19,-6.84,926.39,31.0
5689413,-0.01,-0.03,0.82,-0.06,5.07,-7.08,926.38,30.99
5689489,-0.0,-0.06,0.84,-0.55,3.54,-6.77,926.36,30.95
5689527,0.01,-0.05,0.85,-0.43,4.03,-7.08,926.41,30.97
5689565,-0.0,-0.05,0.82,-0.73,3.54,-7.2,926.37,30.98
5689654,-0.0,-0.06,0.82,-0.98,3.11,-7.08,926.42,30.95
5689693,-0.01,-0.05,0.8,-1.22,3.54,-7.2,926.38,30.95
5689731,-0.0,-0.04,0.81,-1.16,3.36,-7.2,926.4,30.97
5689769,0.0,-0.05,0.82,-1.28,3.72,-7.2,926.36,30.95
5689807,-0.01,-0.05,0.83,-1.46,2.2,-7.26,926.39,30.98
5689845,-0.01,-0.05,0.87,-1.34,3.11,-7.14,926.36,30.97
5689895,-0.01,-0.04,0.88,-1.59,2.69,-7.26,926.36,30.95
5689933,-0.0,-0.04,0.92,-1.46,2.93,-7.26,926.35,30.97
5689971,0.0,-0.04,0.92,-1.71,2.08,-7.08,926.38,30.97
5690009,-0.02,-0.04,0.96,-1.89,2.69,-6.9,926.36,30.97
5690047,0.0,-0.04,0.9,-2.08,2.32,-7.02,926.36,30.97
5690086,0.0,-0.02,1.04,-1.89,1.77,-7.02,926.42,30.98
5690124,0.01,-0.05,0.96,-1.83,1.22,-6.84,926.33,30.97
5690162,-0.02,-0.03,1.02,-1.77,0.49,-6.84,926.41,30.99
5690200,-0.01,-0.03,1.0,-1.71,1.59,-6.71,926.39,30.98
5690238,-0.0,-0.03,1.03,-1.95,-0.31,-6.71,926.37,30.98
5690288,-0.02,-0.02,1.04,-1.71,0.24,-6.71,926.47,30.98
5690326,-0.01,-0.03,1.05,-1.71,0.67,-6.59,926.44,30.98
5690364,-0.01,-0.03,1.07,-1.71,1.83,-6.65,926.44,30.98
5690402,-0.02,-0.02,1.11,-1.4,0.98,-6.59,926.44,30.99
5690440,-0.01,-0.02,1.09,-1.22,2.14,-6.59,926.42,31.0
5690479,-0.02,-0.02,1.08,-1.28,2.2,-6.59,926.46,30.98
5690517,-0.02,-0.02,1.11,-1.22,2.44,-6.41,926.46,30.98
5690555,-0.02,-0.02,1.08,-1.04,2.69,-6.53,926.45,30.98
5690593,-0.0,-0.0,1.13,-0.92,2.69,-6.53,926.45,30.98
5690643,-0.02,-0.01,1.07,-0.67,3.17,-6.35,926.38,30.96
5690681,-0.03,-0.01,1.12,-0.61,2.69,-6.23,926.44,30.97
5690719,-0.03,-0.03,1.09,-0.31,3.72,-6.29,926.42,30.98
5690757,-0.02,-0.02,1.14,-0.49,2.62,-6.16,926.44,30.99
5690795,-0.01,-0.01,1.12,-0.24,2.81,-5.92,926.45,30.98
5690833,-0.02,-0.01,1.1,0.12,1.89,-5.8,926.42,31.0
5690872,-0.01,-0.02,1.12,0.12,1.71,-5.8,926.44,30.99
5690910,-0.0,-0.03,1.07,0.12,0.67,-5.55,926.44,30.98
5690948,-0.02,-0.02,1.06,0.06,0.18,-5.43,926.39,30.99
5690998,-0.02,-0.02,1.02,0.24,-0.31,-5.43,926.38,30.96
5691036,-0.02,-0.03,1.04,0.31,-0.55,-5.55,926.4,30.98
5691074,-0.02,-0.03,1.03,0.37,-0.67,-5.37,926.4,30.99
5691112,-0.01,-0.03,1.09,0.73,-0.92,-5.37,926.41,30.99
5691150,-0.01,-0.03,1.04,0.67,-0.43,-5.31,926.37,30.98
5691188,-0.03,-0.03,1.13,0.67,-1.46,-5.31,926.38,30.99
5691226,-0.03,-0.02,1.1,0.98,-0.85,-5.19,926.43,30.99
5691265,-0.03,-0.02,1.12,0.79,-1.83,-5.0,926.39,30.99
5691303,0.0,-0.02,1.12,1.22,-1.16,-5.07,926.41,31.0
5691341,-0.02,-0.03,1.08,1.04,-2.01,-5.0,926.42,31.0
5691391,-0.03,-0.03,1.12,0.92,-1.89,-4.7,926.37,30.98
5691429,-0.02,-0.03,1.1,0.79,-2.44,-4.82,926.38,30.98
5691467,-0.03,-0.02,1.17,0.92,-2.93,-4.7,926.43,30.99
5691505,-0.01,-0.02,1.13,0.92,-2.87,-4.58,926.42,30.99
5691543,-0.0,-0.01,1.17,1.22,-3.3,-4.64,926.44,31.0
5691581,-0.0,-0.03,1.14,1.65,-2.2,-4.82,926.41,30.99
5691619,0.0,-0.02,1.12,1.89,-2.38,-4.82,926.43,30.98
5691658,-0.0,-0.03,1.09,2.26,-1.1,-5.07,926.39,31.0
5691696,-0.01,-0.05,1.07,2.38,-0.43,-5.07,926.38,31.0
5691746,0.01,-0.04,1.04,2.69,-0.12,-5.31,926.47,30.98
5691784,-0.02,-0.06,1.01,2.81,-0.12,-5.62,926.46,30.98
5691822,-0.01,-0.06,0.97,2.87,1.34,-5.68,926.39,30.98
5691860,0.02,-0.05,0.91,2.75,1.83,-5.74,926.5,30.98
5691898,0.01,-0.04,0.93,2.93,2.32,-6.04,926.49,31.0
5691936,-0.01,-0.06,0.86,2.75,2.99,-6.04,926.44,30.99
5691974,-0.02,-0.06,0.86,2.26,2.75,-6.1,926.41,30.98
5692012,-0.01,-0.07,0.89,2.14,3.6,-6.16,926.38,30.98
5692051,-0.01,-0.07,0.85,1.53,2.62,-6.29,926.4,30.99
5692089,-0.02,-0.06,0.87,1.1,3.05,-6.29,926.43,30.99
5692138,0.0,-0.07,0.86,0.55,2.62,-6.23,926.38,30.98
5692177,-0.01,-0.06,0.88,0.12,1.34,-6.1,926.43,30.99
5692215,-0.03,-0.07,0.87,-0.31,1.4,-5.74,926.4,30.99
5692253,-0.01,-0.06,0.87,-0.79,0.18,-5.74,926.42,30.99
5692291,0.01,-0.04,0.99,-0.98,-0.31,-5.8,926.47,31.0
5692329,-0.01,-0.07,0.96,-1.04,-0.37,-5.68,926.53,30.98
5692367,-0.02,-0.06,1.07,-0.92,-0.85,-5.68,926.54,31.0
5692405,0.0,-0.06,1.03,-0.61,0.43,-5.86,926.51,30.99
5692443,-0.01,-0.05,1.09,-0.37,0.67,-5.8,926.59,31.0
5692520,0.01,-0.04,1.07,0.31,0.61,-6.1,926.56,30.97
5692559,-0.01,-0.06,1.04,0.37,2.01,-6.29,926.57,30.97
5692597,-0.0,-0.05,1.03,0.31,1.28,-6.29,926.64,30.99
5692686,-0.02,-0.05,1.0,0.43,1.59,-6.59,926.67,30.96
5692724,-0.03,-0.05,1.03,0.18,1.65,-6.53,926.65,30.96
5692762,-0.01,-0.06,1.0,0.18,1.16,-6.71,926.64,30.98
5692800,-0.01,-0.06,0.98,0.12,0.79,-6.71,926.65,30.97
5692838,-0.01,-0.05,0.95,0.06,0.55,-6.77,926.68,30.98
5692877,-0.02,-0.06,0.95,-0.06,-0.24,-6.71,926.67,30.96
5692926,-0.04,-0.06,0.91,-0.37,-0.98,-6.47,926.63,30.96
5692964,-0.03,-0.07,0.92,-0.43,-1.59,-6.71,926.63,30.98
5693003,-0.02,-0.07,0.94,-0.61,-1.28,-6.65,926.67,30.98
5693041,-0.03,-0.06,0.97,-0.55,-1.16,-6.35,926.69,30.99
5693079,-0.03,-0.07,0.97,-0.43,-1.59,-6.53,926.63,30.98
5693117,-0.03,-0.07,0.95,-0.73,-2.32,-6.47,926.76,30.99
5693155,-0.03,-0.06,0.93,-0.92,-1.65,-6.47,926.69,30.99
5693193,-0.03,-0.06,0.99,-0.92,-2.26,-6.47,926.7,30.99
5693231,-0.04,-0.06,1.01,-0.43,-2.32,-6.41,926.74,31.0
5693270,-0.03,-0.06,1.03,-0.73,-3.3,-6.16,926.76,30.97
5693319,-0.04,-0.05,1.06,-0.37,-2.81,-6.1,926.71,30.98
5693357,-0.03,-0.05,1.08,-0.24,-2.75,-6.04,926.74,30.98
5693396,-0.05,-0.05,1.11,-0.12,-2.87,-5.92,926.79,30.99
5693434,-0.03,-0.06,1.1,-0.06,-3.3,-5.8,926.81,31.0
5693472,-0.04,-0.05,1.12,0.0,-3.11,-5.55,926.82,30.98
5693510,-0.05,-0.04,1.11,0.18,-3.48,-5.49,926.83,30.99
5693548,-0.05,-0.05,1.11,0.37,-3.6,-5.43,926.85,31.0
5693586,-0.03,-0.05,1.15,0.12,-3.6,-5.49,926.85,31.0
5693624,-0.04,-0.05,1.18,0.43,-3.11,-5.37,926.86,30.99
5693674,-0.05,-0.05,1.2,0.79,-2.38,-5.37,926.86,30.98
5693712,-0.06,-0.05,1.2,1.16,-1.53,-5.43,926.93,30.99
5693750,-0.05,-0.06,1.19,1.46,-1.16,-5.37,926.94,30.99
5693788,-0.06,-0.05,1.16,1.77,0.37,-5.49,926.94,30.98
5693827,-0.06,-0.05,1.12,2.14,1.28,-5.49,926.92,30.98
5693865,-0.05,-0.06,1.08,2.32,2.44,-5.49,926.95,30.99
5693903,-0.06,-0.06,1.06,2.44,3.3,-5.43,926.94,31.0
5693941,-0.05,-0.06,1.01,2.56,5.0,-5.43,926.95,30.98
5693979,-0.06,-0.07,0.91,2.69,5.8,-5.31,926.98,30.99
5694029,-0.07,-0.06,0.92,2.87,5.92,-5.13,926.99,30.98
5694067,-0.08,-0.08,0.76,2.69,5.13,-4.94,926.99,30.98
5694105,-0.08,-0.07,0.8,2.81,5.0,-4.52,926.98,30.98
5694143,-0.04,-0.08,0.69,2.08,3.78,-4.52,926.94,30.99
5694181,-0.05,-0.05,0.78,1.46,1.34,-4.27,926.92,30.99
5694219,-0.08,-0.08,0.71,0.79,2.5,-3.85,926.94,30.99
5694258,-0.07,-0.08,0.8,0.06,-0.06,-3.54,926.95,30.98
5694296,-0.06,-0.08,0.88,-0.43,0.49,-3.48,926.98,31.0
5694334,-0.08,-0.07,0.86,-0.92,-0.24,-3.36,926.97,30.98
5694372,-0.08,-0.04,0.95,-0.67,-0.49,-2.99,927.01,30.99
5694422,-0.06,-0.08,0.92,-1.04,-0.06,-2.81,927.0,30.98
5694460,-0.07,-0.07,0.97,-0.98,-1.22,-2.5,927.03,30.98
5694498,-0.08,-0.05,0.95,-0.85,0.24,-2.26,927.06,30.99
5694536,-0.08,-0.07,1.0,-0.24,-0.12,-2.26,927.11,31.0
5694574,-0.05,-0.06,0.98,-0.49,-1.22,-2.08,927.09,30.98
5694612,-0.06,-0.06,1.02,0.24,-0.92,-1.77,927.13,31.01
5694650,-0.06,-0.08,0.98,0.73,1.04,-1.59,927.13,30.99
5694688,-0.06,-0.07,0.95,1.1,1.16,-1.65,927.18,30.99
5694727,-0.07,-0.06,0.98,1.46,1.46,-1.22,927.18,31.0
5694776,-0.06,-0.07,0.86,1.95,1.59,-0.98,927.18,30.99
5694814,-0.06,-0.06,0.9,2.32,2.14,-1.04,927.17,30.98
5694853,-0.05,-0.08,0.84,2.69,2.38,-0.92,927.25,31.0
5694891,-0.06,-0.07,0.86,2.99,1.46,-0.61,927.29,30.98
5694929,-0.05,-0.07,0.82,3.17,2.75,-0.55,927.25,30.99
5694967,-0.05,-0.07,0.85,3.36,2.38,-0.49,927.3,31.0
5695005,-0.06,-0.07,0.87,3.36,2.5,-0.37,927.31,30.99
5695043,-0.07,-0.07,0.86,3.23,2.2,-0.24,927.28,30.99
5695081,-0.06,-0.06,0.9,3.48,2.5,-0.24,927.29,31.0
5695131,-0.05,-0.08,0.86,3.36,2.2,0.0,927.35,30.98
5695169,-0.03,-0.07,0.87,3.05,2.01,0.18,927.37,30.99
5695207,-0.04,-0.07,0.85,2.87,1.65,0.18,927.35,31.0
5695245,-0.06,-0.07,0.89,2.93,0.98,0.37,927.33,30.99
5695284,-0.04,-0.07,0.92,2.87,0.85,0.49,927.38,31.0
5695322,-0.05,-0.07,0.9,2.56,0.55,0.55,927.41,30.98
5695360,-0.04,-0.07,0.89,2.32,-0.55,0.79,927.42,30.99
5695398,-0.03,-0.07,0.9,2.56,-1.04,0.85,927.4,30.99
5695436,-0.05,-0.07,0.87,2.69,-1.4,1.1,927.46,30.99
5695474,-0.04,-0.07,0.88,2.44,-0.67,1.28,927.51,30.99
5695550,-0.06,-0.07,0.93,2.44,0.43,1.22,927.37,30.95
5695588,-0.04,-0.09,0.89,2.2,0.55,1.34,927.47,30.98
5695626,-0.03,-0.06,0.97,1.77,0.18,1.34,927.56,30.97
5695716,-0.03,-0.07,0.96,2.26,2.32,1.59,927.61,30.95
5695754,-0.02,-0.08,0.9,2.44,2.75,1.46,927.57,30.95
5695792,-0.04,-0.08,0.93,2.26,2.2,1.65,927.58,30.98
5695830,-0.03,-0.07,0.94,2.2,3.05,1.46,927.62,30.96
5695868,-0.02,-0.08,0.96,2.14,2.56,1.53,927.58,30.96
5695906,-0.01,-0.08,0.94,2.2,2.38,1.4,927.66,30.97
5695944,-0.03,-0.08,0.95,2.01,1.71,1.46,927.65,30.96
5695994,-0.03,-0.07,0.93,2.01,2.69,1.59,927.73,30.96
5696032,-0.04,-0.08,0.96,2.2,1.95,1.4,927.69,30.98
5696070,-0.04,-0.08,0.91,2.2,2.38,1.46,927.73,30.98
5696108,-0.02,-0.08,0.93,2.08,2.32,1.28,927.71,30.96
5696146,-0.02,-0.08,0.97,2.26,3.72,1.28,927.78,30.98
5696185,-0.02,-0.08,0.97,2.32,3.6,1.16,927.79,30.99
5696223,-0.03,-0.07,0.99,2.26,3.23,1.1,927.78,30.98
5696261,-0.02,-0.08,0.98,2.2,4.64,1.1,927.77,30.98
5696299,-0.02,-0.08,1.0,1.77,4.46,0.98,927.8,30.99
5696349,-0.02,-0.07,1.02,1.65,4.46,0.79,927.87,30.98
5696387,-0.03,-0.07,1.06,1.65,4.03,0.98,927.86,30.98
5696425,-0.02,-0.09,1.05,1.46,4.58,0.79,927.92,31.0
5696463,-0.02,-0.08,1.07,1.22,4.27,0.73,927.84,30.98
5696501,-0.03,-0.07,1.07,1.46,4.76,0.79,927.91,30.98
5696539,-0.02,-0.07,1.04,1.34,5.19,0.73,927.94,30.98
5696577,-0.03,-0.07,1.11,1.53,5.62,0.49,927.92,30.97
5696616,-0.02,-0.08,1.07,1.65,5.68,0.55,927.97,30.98
5696654,-0.01,-0.07,1.07,1.4,5.68,0.55,928.0,30.98
5696692,-0.02,-0.08,1.03,1.53,6.71,0.49,927.98,31.0
5696742,-0.04,-0.08,1.01,1.28,5.68,0.43,927.99,30.98
5696780,-0.02,-0.08,1.02,1.28,5.19,0.49,928.02,30.99
5696818,-0.0,-0.08,1.02,1.04,4.52,0.31,928.0,30.98
5696856,-0.0,-0.08,1.02,1.1,3.54,0.43,928.05,30.98
5696894,-0.02,-0.07,1.01,1.16,2.56,0.37,928.05,30.99
5696932,-0.03,-0.08,1.01,1.16,1.59,0.31,928.07,30.99
5696970,-0.02,-0.08,1.04,1.1,1.4,0.31,928.13,31.0
5697008,-0.02,-0.08,1.01,1.16,1.89,0.31,928.13,31.0
5697046,-0.02,-0.08,1.02,1.4,1.22,0.18,928.08,30.99
5697084,-0.03,-0.09,0.98,1.1,1.77,0.31,928.15,30.98
5697134,-0.02,-0.07,1.03,0.85,1.83,-0.06,928.13,30.98
5697172,-0.03,-0.08,1.0,1.22,2.69,0.0,928.2,30.99
5697210,-0.02,-0.08,1.02,1.1,2.38,-0.06,928.18,30.99
5697249,-0.02,-0.08,1.02,1.46,2.81,-0.24,928.17,30.98
5697287,-0.03,-0.07,1.05,1.65,2.26,-0.12,928.18,30.99
5697325,-0.02,-0.08,1.06,1.59,1.4,0.06,928.28,30.98
5697363,-0.02,-0.07,1.03,1.71,1.95,-0.18,928.26,31.0
5697401,-0.02,-0.08,1.08,2.01,1.46,0.0,928.24,30.99
5697439,-0.0,-0.08,1.11,1.89,1.34,0.0,928.29,30.98
5697489,-0.03,-0.07,1.14,1.83,0.55,0.0,928.3,30.98
