timestamp,acc_x,acc_y,acc_z,rot_x,rot_y,rot_z,qfe,temp
2828559,-0.03,-0.1,1.02,1.4,3.05,-0.37,936.38,33.02
2828597,-0.05,-0.11,0.93,1.16,3.11,-0.37,936.36,33.01
2828635,-0.03,-0.09,0.95,1.22,2.69,-0.37,936.39,33.02
2828673,-0.04,-0.09,0.92,1.28,3.85,-0.37,936.3,33.01
2828711,-0.03,-0.1,0.9,1.16,3.23,-0.24,936.31,33.02
2828749,-0.04,-0.1,0.92,1.4,2.69,-0.31,936.35,33.04
2828799,-0.03,-0.1,0.84,1.16,3.6,-0.31,936.34,33.02
2828837,-0.04,-0.09,0.84,1.1,2.5,-0.24,936.33,33.03
2828875,-0.04,-0.1,0.82,0.92,3.48,-0.18,936.34,33.04
2828913,-0.04,-0.09,0.89,0.85,2.38,-0.18,936.3,33.04
2828951,-0.03,-0.1,0.91,0.49,2.81,-0.18,936.28,33.04
2828989,-0.06,-0.1,0.95,0.12,2.38,-0.12,936.29,33.03
2829027,-0.06,-0.09,1.01,0.98,4.21,-0.24,936.29,33.03
2829065,-0.03,-0.11,1.0,0.92,5.62,-0.18,936.33,33.04
2829103,-0.04,-0.09,0.97,1.53,4.88,-0.06,936.25,33.04
2829141,-0.04,-0.09,0.96,1.53,6.04,-0.12,936.35,33.05
2829191,-0.04,-0.1,0.91,1.77,5.74,-0.24,936.3,33.04
2829229,-0.06,-0.09,0.92,2.14,5.31,0.06,936.33,33.06
2829267,-0.05,-0.09,0.9,1.77,5.37,0.12,936.3,33.06
2829305,-0.05,-0.09,0.91,1.95,4.52,0.06,936.25,33.05
2829343,-0.04,-0.09,0.93,1.95,3.91,0.31,936.29,33.05
2829381,-0.05,-0.09,0.93,1.89,3.48,0.49,936.29,33.05
2829419,-0.05,-0.1,0.94,1.95,3.48,0.55,936.3,33.06
2829457,-0.05,-0.09,0.95,1.77,3.3,0.61,936.21,33.06
2829495,-0.04,-0.09,0.96,1.65,2.99,0.73,936.23,33.04
2829545,-0.05,-0.09,0.97,1.34,3.36,0.98,936.24,33.03
2829583,-0.06,-0.09,1.02,1.77,3.42,0.79,936.23,33.04
2829621,-0.07,-0.09,1.02,1.65,4.64,0.98,936.22,33.05
2829659,-0.04,-0.09,1.08,1.77,4.33,1.1,936.3,33.07
2829697,-0.05,-0.09,1.05,1.53,5.49,1.16,936.26,33.06
2829735,-0.07,-0.09,1.08,1.95,5.13,1.1,936.21,33.06
2829773,-0.07,-0.09,1.08,1.89,5.37,1.16,936.23,33.05
2829811,-0.05,-0.08,1.06,1.71,6.1,1.4,936.24,33.07
2829850,-0.07,-0.08,1.09,2.2,5.74,1.65,936.19,33.05
2829888,-0.05,-0.1,1.05,2.08,6.04,1.59,936.23,33.07
2829937,-0.06,-0.09,1.01,2.26,5.19,1.77,936.28,33.06
2829975,-0.05,-0.09,0.98,1.95,4.88,2.14,936.23,33.07
2830014,-0.04,-0.09,0.95,2.08,4.15,1.83,936.19,33.05
2830052,-0.04,-0.09,0.93,2.2,3.23,2.01,936.24,33.06
2830090,-0.04,-0.09,0.93,2.26,2.44,2.14,936.25,33.07
2830128,-0.04,-0.1,0.89,1.89,2.01,2.32,936.21,33.06
2830166,-0.07,-0.1,0.89,2.32,1.77,2.32,936.21,33.06
2830204,-0.06,-0.1,0.92,2.5,2.56,2.38,936.2,33.05
2830242,-0.04,-0.1,0.93,2.38,3.3,2.32,936.15,33.07
2830280,-0.06,-0.08,0.93,2.38,3.36,2.26,936.18,33.06
2830330,-0.05,-0.1,0.94,1.77,4.7,2.56,936.16,33.05
2830368,-0.05,-0.09,0.97,1.89,3.66,2.5,936.19,33.06
2830406,-0.06,-0.08,0.98,1.65,4.03,2.44,936.12,33.06
2830444,-0.06,-0.09,0.98,1.28,4.15,2.75,936.14,33.05
2830482,-0.05,-0.09,1.02,1.65,3.72,2.69,936.12,33.05
2830520,-0.05,-0.1,1.03,1.89,3.23,2.56,936.14,33.05
2830558,-0.05,-0.08,1.05,2.08,3.6,2.87,936.08,33.05
2830596,-0.05,-0.09,1.06,1.89,4.52,2.99,936.14,33.06
2830635,-0.05,-0.09,1.09,1.83,4.7,2.87,936.14,33.06
2830684,-0.05,-0.09,1.12,2.14,4.94,2.93,936.13,33.05
2830722,-0.03,-0.1,1.12,2.01,5.19,2.87,936.17,33.06
2830761,-0.04,-0.08,1.17,2.2,4.46,2.87,936.15,33.05
2830799,-0.05,-0.09,1.14,2.32,5.19,3.11,936.15,33.05
2830837,-0.05,-0.08,1.17,2.69,4.27,2.87,936.17,33.06
2830875,-0.05,-0.09,1.17,2.56,5.19,3.05,936.16,33.06
2830913,-0.03,-0.09,1.11,2.87,4.39,2.81,936.15,33.05
2830951,-0.04,-0.08,1.12,3.05,3.66,2.87,936.13,33.06
2830989,-0.01,-0.1,1.02,2.56,5.0,2.99,936.09,33.05
2831027,-0.01,-0.09,0.95,2.38,3.72,2.62,936.13,33.06
2831077,-0.04,-0.09,0.98,2.32,2.99,3.11,936.05,33.04
2831115,-0.03,-0.1,0.95,1.65,3.36,2.87,936.1,33.07
2831153,-0.02,-0.09,1.04,1.4,2.56,2.69,936.06,33.05
2831191,-0.0,-0.11,1.08,1.16,3.36,2.62,936.09,33.06
2831229,-0.01,-0.1,1.09,0.49,3.48,2.5,936.07,33.06
2831267,-0.01,-0.09,1.08,0.73,3.48,2.32,936.08,33.06
2831305,-0.01,-0.08,1.11,1.1,2.99,2.08,936.11,33.05
2831343,-0.02,-0.1,1.02,0.79,3.78,2.14,936.06,33.06
2831381,-0.0,-0.09,1.02,1.59,1.53,1.77,936.07,33.06
2831420,-0.02,-0.09,0.99,1.71,2.69,1.53,936.04,33.06
2831495,-0.0,-0.09,0.96,1.4,0.61,1.28,936.04,33.04
2831533,-0.01,-0.11,0.83,0.67,2.56,1.04,936.1,33.04
2831572,-0.02,-0.09,0.86,1.46,0.55,0.85,936.0,33.04
2831661,-0.02,-0.09,0.79,1.16,1.95,0.43,936.0,33.02
2831699,-0.03,-0.1,0.81,1.1,2.38,0.31,936.0,33.03
2831737,-0.02,-0.1,0.81,0.85,2.44,0.24,936.01,33.04
2831775,-0.01,-0.09,0.85,0.79,2.26,0.18,936.03,33.04
2831813,-0.03,-0.1,0.83,0.67,3.42,0.06,935.99,33.05
2831851,-0.03,-0.1,0.86,1.22,3.54,-0.12,936.04,33.04
2831901,-0.03,-0.1,0.88,0.98,4.46,-0.18,935.96,33.05
2831939,-0.01,-0.1,0.87,0.85,4.52,-0.18,935.98,33.03
2831977,-0.03,-0.08,0.91,0.67,3.97,-0.43,935.97,33.05
2832015,-0.02,-0.08,0.97,0.61,3.54,-0.31,935.99,33.05
2832053,-0.03,-0.1,1.02,0.31,2.69,-0.18,935.99,33.05
2832091,-0.05,-0.09,1.08,0.67,2.38,-0.43,935.98,33.06
2832129,-0.03,-0.09,1.12,0.67,3.54,-0.31,935.98,33.06
2832167,-0.03,-0.08,1.18,1.34,2.69,-0.43,936.01,33.06
2832205,-0.03,-0.08,1.22,1.46,3.36,-0.31,935.99,33.05
2832244,-0.04,-0.08,1.22,2.01,3.54,-0.37,936.01,33.05
2832293,-0.06,-0.08,1.18,2.32,3.36,-0.37,935.94,33.04
2832331,-0.05,-0.08,1.21,2.69,2.01,-0.24,935.98,33.06
2832369,-0.04,-0.08,1.17,2.93,1.22,-0.24,935.97,33.06
2832408,-0.03,-0.09,1.15,2.69,1.46,-0.12,935.96,33.07
2832446,-0.04,-0.08,1.14,2.93,1.65,-0.18,935.95,33.05
2832484,-0.05,-0.08,1.1,2.87,1.95,-0.24,935.95,33.06
2832522,-0.04,-0.08,1.12,2.69,1.34,0.0,935.91,33.05
2832560,-0.05,-0.09,1.09,2.32,2.14,0.0,935.93,33.06
2832598,-0.06,-0.08,1.13,2.69,1.22,-0.18,935.92,33.06
2832648,-0.05,-0.09,1.08,2.26,2.93,-0.12,935.86,33.05
2832686,-0.04,-0.07,1.12,2.81,1.4,-0.12,935.95,33.06
2832724,-0.07,-0.08,1.05,2.5,3.11,-0.06,935.89,33.06
2832762,-0.06,-0.09,1.01,2.69,3.11,0.0,935.88,33.05
2832800,-0.04,-0.09,1.03,3.17,3.23,-0.06,935.84,33.07
2832838,-0.07,-0.09,0.95,2.81,4.58,-0.18,935.81,33.05
2832876,-0.04,-0.07,0.94,2.93,3.78,0.06,935.87,33.06
2832914,-0.05,-0.09,0.92,2.69,5.31,-0.06,935.82,33.06
2832952,-0.05,-0.09,0.91,2.38,4.76,0.31,935.79,33.05
2832990,-0.05,-0.09,0.95,2.01,4.21,0.31,935.74,33.06
2833040,-0.06,-0.08,0.93,1.22,3.91,0.49,935.8,33.05
2833078,-0.06,-0.09,0.98,1.22,4.03,0.85,935.85,33.05
2833116,-0.05,-0.1,0.97,0.73,4.46,0.92,935.8,33.05
2833154,-0.06,-0.08,1.04,1.1,3.36,0.85,935.79,33.06
2833192,-0.04,-0.08,1.04,0.98,4.39,1.16,935.79,33.07
2833230,-0.05,-0.08,1.06,1.04,4.33,1.04,935.79,33.06
2833268,-0.05,-0.08,1.13,1.65,3.17,1.28,935.8,33.07
2833306,-0.05,-0.09,1.13,1.1,4.15,1.4,935.78,33.06
2833344,-0.06,-0.08,1.14,1.71,4.64,1.34,935.79,33.06
2833382,-0.06,-0.08,1.13,2.08,4.94,1.53,935.78,33.07
2833432,-0.06,-0.08,1.14,2.26,3.97,1.71,935.77,33.05
2833470,-0.05,-0.08,1.13,2.62,4.76,1.83,935.82,33.05
2833508,-0.04,-0.08,1.13,2.62,3.36,1.77,935.74,33.07
2833546,-0.05,-0.08,1.11,2.87,2.93,2.08,935.75,33.07
2833584,-0.04,-0.08,1.1,2.81,2.81,2.2,935.7,33.06
2833622,-0.03,-0.09,1.02,2.93,2.93,2.08,935.69,33.06
2833660,-0.05,-0.08,1.02,2.99,2.08,2.26,935.76,33.05
2833698,-0.05,-0.09,0.93,2.93,3.11,2.38,935.69,33.06
2833736,-0.04,-0.08,0.96,3.3,2.2,2.2,935.66,33.07
2833786,-0.04,-0.1,0.89,2.93,3.6,2.38,935.64,33.04
2833824,-0.05,-0.08,0.86,3.23,2.56,2.32,935.64,33.06
2833862,-0.04,-0.08,0.86,3.17,3.05,2.5,935.62,33.07
2833900,-0.04,-0.09,0.8,2.56,2.69,2.75,935.64,33.06
2833938,-0.05,-0.08,0.82,2.69,1.59,2.62,935.59,33.04
2833976,-0.07,-0.08,0.8,2.14,2.38,2.93,935.69,33.07
2834015,-0.05,-0.09,0.79,1.77,2.69,2.99,935.54,33.05
2834053,-0.04,-0.07,0.85,1.53,1.77,3.05,935.54,33.06
2834091,-0.03,-0.09,0.84,0.98,3.42,3.17,935.61,33.08
2834129,-0.04,-0.09,0.84,0.79,4.03,3.17,935.57,33.06
2834179,-0.05,-0.08,0.89,0.85,4.64,3.3,935.61,33.06
2834217,-0.06,-0.08,0.91,0.67,4.27,3.36,935.59,33.05
2834255,-0.05,-0.07,0.91,0.73,4.58,3.3,935.57,33.07
2834293,-0.04,-0.08,0.95,1.16,4.52,3.23,935.61,33.06
2834331,-0.04,-0.08,0.94,1.04,5.49,3.42,935.53,33.06
2834369,-0.04,-0.07,1.0,1.65,4.15,3.54,935.57,33.07
2834407,-0.04,-0.09,1.02,1.77,4.94,3.54,935.55,33.07
2834445,-0.04,-0.08,0.98,1.53,4.88,3.72,935.58,33.06
2834484,-0.05,-0.07,1.03,2.56,3.48,3.54,935.58,33.05
2834522,-0.04,-0.09,0.93,1.77,4.39,3.72,935.56,33.06
2834597,-0.03,-0.09,0.92,2.56,3.6,3.91,935.48,33.03
2834636,-0.02,-0.09,0.88,2.44,3.66,3.91,935.49,33.05
2834674,-0.04,-0.08,0.88,2.87,2.62,3.97,935.47,33.04
2834763,-0.02,-0.09,0.9,2.5,4.03,3.85,935.46,33.01
2834801,-0.04,-0.09,0.96,2.75,3.11,4.03,935.49,33.05
2834839,-0.04,-0.09,0.93,2.14,5.13,3.97,935.49,33.05
2834877,-0.04,-0.08,0.91,2.2,5.62,4.03,935.46,33.04
2834915,-0.03,-0.09,1.0,2.56,6.53,3.91,935.44,33.03
2834953,-0.01,-0.09,0.91,2.01,6.41,3.85,935.49,33.04
2835003,-0.04,-0.09,0.97,2.69,5.92,3.97,935.47,33.04
2835041,-0.02,-0.09,0.97,1.95,6.96,3.91,935.45,33.03
2835079,-0.03,-0.08,1.06,2.44,6.1,3.72,935.47,33.03
2835117,-0.03,-0.09,1.01,2.32,6.71,3.97,935.41,33.04
2835155,-0.02,-0.08,1.06,2.44,6.84,3.6,935.48,33.05
2835193,-0.02,-0.09,1.08,2.26,8.54,3.36,935.43,33.03
2835231,0.0,-0.08,1.11,2.32,7.39,3.54,935.44,33.06
2835269,-0.03,-0.08,1.12,2.44,8.18,3.54,935.4,33.05
2835308,-0.01,-0.07,1.12,2.08,8.24,3.6,935.41,33.05
2835346,-0.02,-0.07,1.18,2.44,8.36,3.42,935.44,33.06
2835395,-0.02,-0.07,1.18,2.87,4.58,3.42,935.42,33.05
2835433,-0.01,-0.08,1.15,2.5,6.16,3.54,935.41,33.04
2835472,0.02,-0.1,1.12,2.87,4.82,3.48,935.31,33.04
2835510,0.0,-0.09,1.1,2.69,3.6,3.48,935.39,33.07
2835548,-0.01,-0.08,1.03,2.75,1.83,3.3,935.38,33.07
2835586,-0.02,-0.08,1.01,2.44,0.92,3.42,935.4,33.05
2835624,-0.0,-0.09,0.97,2.01,0.06,3.23,935.37,33.06
2835662,0.0,-0.08,1.02,2.26,-0.85,2.87,935.31,33.05
2835700,0.01,-0.09,1.02,1.28,-0.73,2.99,935.29,33.05
2835738,-0.0,-0.08,1.07,1.28,-1.16,2.69,935.35,33.06
2835788,-0.02,-0.09,1.07,1.46,-0.12,2.38,935.25,33.05
2835826,0.01,-0.09,1.1,1.71,-0.31,2.2,935.29,33.05
2835864,-0.01,-0.09,1.09,2.08,0.24,1.95,935.35,33.05
2835902,-0.01,-0.09,1.04,2.14,0.85,1.95,935.29,33.05
2835940,0.02,-0.08,1.01,2.2,0.55,1.4,935.26,33.05
2835978,0.01,-0.08,0.99,2.2,-0.24,1.4,935.26,33.05
2836016,-0.01,-0.09,0.99,1.83,0.37,1.22,935.17,33.06
2836054,-0.01,-0.09,1.04,2.01,0.31,1.04,935.29,33.06
2836092,-0.01,-0.09,1.01,1.77,0.61,0.85,935.28,33.07
2836142,-0.02,-0.09,1.03,2.32,-0.98,0.73,935.22,33.05
2836180,-0.0,-0.1,0.95,1.77,0.55,0.55,935.24,33.05
2836218,0.01,-0.07,1.02,2.08,-0.43,0.24,935.22,33.06
2836256,-0.01,-0.08,1.0,1.71,-0.12,0.18,935.17,33.05
2836294,-0.02,-0.08,0.94,1.16,0.0,0.06,935.21,33.07
2836332,-0.01,-0.07,1.01,1.1,-0.73,-0.06,935.18,33.06
2836370,-0.02,-0.09,1.01,0.49,1.04,-0.12,935.14,33.05
2836408,0.01,-0.08,1.04,0.49,-0.06,-0.31,935.22,33.07
2836446,-0.02,-0.07,1.11,0.61,0.61,-0.43,935.14,33.07
2836484,-0.02,-0.08,1.05,0.37,1.77,-0.24,935.19,33.07
2836534,-0.01,-0.07,1.13,1.16,1.28,-0.43,935.13,33.05
2836572,-0.03,-0.09,1.03,0.92,2.62,-0.61,935.21,33.04
2836610,-0.04,-0.07,1.06,1.77,1.83,-0.49,935.18,33.07
2836648,0.0,-0.09,1.05,1.83,3.3,-0.67,935.17,33.07
2836686,-0.01,-0.08,1.03,2.14,3.05,-0.67,935.12,33.06
2836724,-0.01,-0.07,1.04,2.62,2.44,-0.49,935.14,33.06
2836762,-0.03,-0.09,0.99,2.62,3.42,-0.79,935.15,33.07
2836800,-0.03,-0.09,0.99,2.75,4.15,-0.79,935.11,33.06
2836838,-0.04,-0.08,0.98,2.56,4.76,-0.79,935.1,33.07
2836888,-0.02,-0.07,0.96,2.81,4.76,-0.98,935.09,33.06
2836926,-0.02,-0.07,0.98,2.75,5.68,-1.04,935.03,33.04
2836964,-0.03,-0.07,1.01,3.11,5.68,-0.98,935.07,33.06
2837002,-0.03,-0.07,1.07,3.17,5.13,-0.73,935.02,33.06
2837040,-0.04,-0.08,1.05,3.17,5.19,-0.73,935.04,33.05
2837078,-0.06,-0.06,1.11,3.97,4.64,-0.79,935.07,33.07
2837116,-0.05,-0.07,1.1,3.91,5.8,-0.67,935.05,33.05
2837154,-0.04,-0.07,1.09,4.21,5.07,-0.61,934.98,33.05
2837192,-0.05,-0.07,1.05,4.64,6.16,-0.55,935.03,33.06
2837230,-0.04,-0.08,0.98,4.58,6.9,-0.49,935.05,33.07
2837280,-0.06,-0.08,0.93,5.13,7.45,-0.37,935.01,33.06
2837318,-0.07,-0.08,0.83,5.19,7.32,-0.31,934.94,33.05
2837356,-0.06,-0.07,0.8,5.0,7.08,-0.24,934.91,33.07
2837394,-0.05,-0.07,0.77,4.46,7.26,-0.12,934.95,33.07
2837432,-0.06,-0.07,0.79,3.91,5.8,0.18,934.89,33.07
2837470,-0.04,-0.09,0.76,2.93,6.04,0.49,934.83,33.06
2837508,-0.06,-0.08,0.77,2.5,5.07,0.37,934.87,33.05
2837546,-0.06,-0.08,0.85,2.5,4.21,0.79,934.85,33.05
2837584,-0.06,-0.09,0.82,1.83,4.15,1.1,934.88,33.05
2837660,-0.05,-0.07,0.81,1.89,2.81,1.34,934.87,33.02
2837698,-0.03,-0.09,0.8,0.85,4.27,1.46,934.85,33.04
2837736,-0.04,-0.08,0.83,0.98,3.54,1.83,934.86,33.05
2837899,-0.04,-0.08,0.91,1.46,3.91,2.08,934.86,32.99
2837937,-0.07,-0.08,0.92,1.59,3.72,2.2,934.81,33.0
2837976,-0.05,-0.09,0.92,1.4,3.72,2.38,934.83,33.01
2838014,-0.05,-0.08,0.98,1.77,3.54,2.44,934.83,33.02
2838052,-0.06,-0.09,0.95,1.59,4.27,2.62,934.81,33.02
2838090,-0.05,-0.08,0.97,1.83,3.78,2.69,934.8,33.02
2838128,-0.04,-0.08,0.99,1.89,4.03,2.87,934.82,33.04
2838178,-0.03,-0.08,1.0,2.2,3.78,2.81,934.75,33.01
2838216,-0.04,-0.08,1.0,2.08,3.85,2.99,934.84,33.03
2838254,-0.03,-0.08,1.03,2.44,3.48,3.11,934.77,33.02
2838292,-0.04,-0.09,0.98,2.14,2.81,3.17,934.77,33.02
2838330,-0.04,-0.07,0.97,2.38,2.2,3.23,934.79,33.02
2838368,-0.04,-0.08,0.94,2.01,2.56,3.11,934.74,33.01
2838406,-0.02,-0.08,0.92,2.08,2.08,3.23,934.73,33.02
2838444,-0.06,-0.08,0.94,2.08,1.83,3.23,934.72,33.02
2838482,-0.06,-0.09,0.9,1.89,3.66,3.23,934.68,33.03
2838520,-0.02,-0.07,0.95,2.44,3.48,2.87,934.69,33.02
2838570,-0.06,-0.08,0.94,2.32,4.33,3.11,934.7,33.03
2838608,-0.04,-0.08,0.95,2.56,4.7,3.05,934.67,33.03
2838646,-0.03,-0.07,0.98,2.75,4.76,2.93,934.65,33.01
2838684,-0.07,-0.08,1.0,3.11,4.64,3.17,934.64,33.02
2838722,-0.06,-0.08,0.95,2.81,4.15,3.42,934.63,33.01
2838760,-0.04,-0.08,1.02,3.11,4.52,3.05,934.71,33.02
2838798,-0.05,-0.07,0.96,2.62,4.39,3.54,934.71,33.03
2838837,-0.03,-0.08,0.95,3.05,2.81,3.78,934.63,33.02
2838875,-0.05,-0.08,0.94,2.87,2.75,3.48,934.65,33.03
2838924,-0.04,-0.08,0.94,2.99,2.69,3.97,934.67,33.01
2838962,-0.03,-0.09,0.96,3.11,2.2,3.72,934.68,33.03
2839001,-0.06,-0.09,0.93,3.05,2.62,3.6,934.62,33.03
2839039,-0.04,-0.08,0.91,3.17,2.5,3.97,934.62,33.03
2839077,-0.02,-0.08,0.9,3.17,2.99,3.78,934.6,33.02
2839115,-0.04,-0.08,0.87,2.81,2.75,3.85,934.65,33.03
2839153,-0.04,-0.08,0.86,2.69,2.87,3.85,934.6,33.03
2839191,-0.03,-0.09,0.85,2.38,3.66,3.72,934.59,33.04
2839229,-0.03,-0.08,0.87,1.89,3.54,3.66,934.57,33.03
2839267,-0.04,-0.08,0.9,1.77,3.54,3.78,934.55,33.02
2839317,-0.03,-0.08,0.89,1.34,4.33,3.78,934.63,33.02
2839355,-0.04,-0.09,0.91,1.22,4.7,3.66,934.56,33.02
2839393,-0.02,-0.09,0.89,0.98,6.04,3.72,934.59,33.03
2839431,-0.03,-0.08,0.93,0.61,5.13,3.78,934.51,33.03
2839469,-0.03,-0.09,0.92,0.18,6.47,3.36,934.57,33.02
2839507,-0.04,-0.08,0.97,0.43,6.23,3.6,934.52,33.03
2839546,-0.02,-0.09,0.99,0.0,8.06,3.6,934.6,33.03
2839584,-0.04,-0.07,1.01,0.24,8.12,3.54,934.57,33.04
2839622,-0.04,-0.08,1.04,0.31,8.54,3.66,934.58,33.04
2839660,-0.02,-0.09,1.04,-0.12,8.24,3.54,934.55,33.03
2839709,-0.03,-0.08,1.09,0.0,8.12,3.72,934.52,33.03
2839748,-0.02,-0.07,1.12,-0.06,6.96,3.66,934.54,33.03
2839786,-0.04,-0.07,1.11,-0.31,7.14,3.72,934.58,33.03
2839824,-0.04,-0.08,1.15,-0.06,6.59,3.97,934.56,33.04
2839862,-0.01,-0.09,1.16,-0.18,6.65,3.97,934.59,33.05
2839900,-0.03,-0.08,1.15,-0.12,6.71,3.85,934.52,33.04
2839938,-0.01,-0.08,1.11,0.18,6.65,3.66,934.53,33.04
2839976,-0.01,-0.08,1.07,0.12,6.65,3.85,934.52,33.05
2840014,-0.03,-0.08,1.06,-0.37,5.49,3.91,934.52,33.04
2840064,-0.01,-0.09,1.04,-1.46,4.82,3.72,934.45,33.02
2840102,-0.03,-0.08,1.08,-2.01,4.7,3.48,934.47,33.03
2840140,-0.02,-0.07,1.13,-2.93,4.33,3.48,934.49,33.03
2840178,0.0,-0.07,1.21,-2.75,3.97,3.72,934.38,33.03
2840216,-0.01,-0.08,1.2,-3.6,4.64,3.48,934.43,33.03
2840255,-0.02,-0.06,1.28,-3.23,3.17,3.6,934.48,33.05
2840293,-0.01,-0.07,1.26,-3.54,4.39,3.48,934.5,33.04
2840331,-0.01,-0.07,1.27,-3.54,3.36,3.6,934.47,33.03
2840369,-0.02,-0.07,1.28,-3.17,3.72,3.42,934.47,33.03
2840407,-0.0,-0.07,1.26,-3.05,4.03,3.11,934.47,33.03
2840457,-0.01,-0.06,1.26,-2.32,3.42,3.05,934.41,33.03
2840495,-0.02,-0.06,1.25,-1.71,3.3,2.93,934.45,33.03
2840533,-0.0,-0.07,1.27,-1.22,3.54,2.69,934.46,33.03
2840571,-0.0,-0.07,1.26,-0.92,3.42,2.81,934.45,33.03
2840609,-0.01,-0.06,1.25,-0.24,3.11,2.5,934.41,33.03
2840647,-0.0,-0.07,1.24,0.12,2.87,2.32,934.44,33.04
2840685,0.0,-0.07,1.23,0.61,3.42,2.32,934.4,33.03
2840723,-0.0,-0.07,1.22,0.73,3.11,2.08,934.32,33.04
2840761,0.01,-0.07,1.2,1.04,3.48,1.95,934.34,33.04
2840837,-0.01,-0.06,1.2,1.4,4.64,1.53,934.32,33.01
2840875,0.01,-0.07,1.19,1.34,4.52,1.28,934.29,33.02
2840913,0.0,-0.07,1.18,1.65,4.76,0.92,934.22,33.03
2841002,-0.0,-0.07,1.14,2.32,6.84,0.37,934.28,33.0
2841040,0.01,-0.08,1.18,2.32,6.65,0.18,934.3,33.01
2841078,-0.01,-0.08,1.16,2.56,7.14,0.12,934.27,33.02
2841117,-0.01,-0.06,1.21,2.87,6.35,0.0,934.19,33.02
2841155,0.01,-0.07,1.19,2.87,6.71,0.0,934.25,33.03
2841193,0.01,-0.06,1.17,3.3,5.25,-0.18,934.15,33.02
2841231,0.0,-0.07,1.12,3.23,5.43,-0.18,934.21,33.02
2841280,0.0,-0.07,1.05,3.17,5.37,-0.31,934.22,33.03
2841318,-0.01,-0.07,1.0,2.93,5.62,-0.37,934.15,33.04
2841357,-0.0,-0.08,0.95,2.81,5.98,-0.55,934.08,33.03
2841395,-0.01,-0.08,0.92,2.62,6.41,-0.79,934.12,33.02
2841433,-0.01,-0.08,0.93,2.75,6.9,-0.98,934.1,33.04
2841471,-0.0,-0.08,0.94,2.81,7.14,-0.98,934.08,33.02
2841509,-0.03,-0.08,0.97,2.93,7.45,-1.1,934.1,33.03
2841547,-0.03,-0.08,0.95,2.75,8.48,-1.28,934.07,33.04
2841585,-0.03,-0.07,1.0,2.99,8.36,-1.46,934.04,33.04
2841635,-0.03,-0.07,0.96,2.44,9.28,-1.34,934.07,33.02
2841673,-0.03,-0.06,1.0,2.69,7.87,-1.53,933.96,33.03
2841711,-0.02,-0.07,0.98,2.56,8.85,-1.59,934.03,33.04
2841749,-0.03,-0.06,1.05,2.87,6.77,-1.28,933.92,33.03
2841787,-0.04,-0.07,1.07,2.81,6.71,-1.16,933.95,33.03
2841825,-0.05,-0.07,1.1,2.87,5.19,-1.16,933.84,33.03
2841863,-0.04,-0.07,1.13,3.42,4.21,-1.16,933.88,33.04
2841901,-0.03,-0.06,1.06,3.17,3.3,-0.92,933.89,33.03
2841939,-0.05,-0.05,1.07,4.09,1.34,-0.79,933.89,33.04
2841977,-0.06,-0.07,0.95,3.72,2.32,-0.67,933.84,33.04
2842027,-0.05,-0.06,0.97,4.21,-0.06,-0.55,933.73,33.02
2842065,-0.04,-0.07,0.91,3.91,0.31,-0.61,933.84,33.03
2842103,-0.05,-0.07,0.9,4.33,-0.43,-0.49,933.77,33.03
2842141,-0.04,-0.08,0.87,4.09,0.79,-0.43,933.74,33.04
2842179,-0.04,-0.08,0.82,3.97,0.49,-0.43,933.71,33.03
2842217,-0.05,-0.07,0.84,3.91,0.24,-0.37,933.78,33.03
2842255,-0.05,-0.08,0.78,2.99,0.49,-0.43,933.72,33.03
2842293,-0.06,-0.07,0.81,3.05,0.24,-0.18,933.69,33.04
2842332,-0.04,-0.09,0.78,2.2,1.77,-0.12,933.7,33.03
2842381,-0.06,-0.07,0.83,2.2,1.16,0.12,933.69,33.03
2842419,-0.07,-0.07,0.83,1.77,2.81,0.18,933.66,33.03
2842457,-0.04,-0.07,0.85,1.71,3.11,0.37,933.65,33.03
2842495,-0.05,-0.07,0.87,1.4,3.72,0.43,933.62,33.03
2842533,-0.06,-0.07,0.88,1.65,4.39,0.61,933.63,33.03
2842571,-0.05,-0.07,0.92,1.16,4.27,0.92,933.67,33.03
2842609,-0.05,-0.07,0.91,1.59,5.07,1.04,933.62,33.03
2842647,-0.04,-0.07,0.93,1.59,4.58,0.92,933.61,33.04
2842686,-0.05,-0.08,0.93,1.77,5.37,1.16,933.6,33.04
2842724,-0.04,-0.08,0.93,2.01,5.49,1.28,933.6,33.05
2842773,-0.05,-0.06,0.94,2.5,5.31,1.28,933.62,33.02
2842811,-0.04,-0.07,0.94,2.87,5.37,1.53,933.56,33.04
2842849,-0.04,-0.07,0.94,3.11,5.07,1.4,933.58,33.04
2842888,-0.04,-0.07,0.91,3.36,4.64,1.59,933.55,33.04
2842926,-0.04,-0.07,0.88,3.66,4.39,1.95,933.54,33.04
2842964,-0.04,-0.07,0.83,3.11,4.09,1.89,933.51,33.04
2843002,-0.05,-0.07,0.82,2.99,2.81,1.95,933.48,33.04
2843040,-0.04,-0.07,0.79,2.69,2.69,2.32,933.43,33.04
2843078,-0.05,-0.07,0.79,2.56,2.62,2.26,933.51,33.04
2843116,-0.03,-0.07,0.82,2.44,2.44,2.38,933.48,33.02
2843166,-0.03,-0.07,0.82,2.26,2.32,2.38,933.45,33.03
2843204,-0.05,-0.07,0.84,2.56,2.5,2.32,933.41,33.05
2843242,-0.04,-0.07,0.85,2.69,2.87,2.44,933.37,33.04
2843280,-0.03,-0.07,0.86,2.38,2.69,2.5,933.41,33.03
2843318,-0.03,-0.07,0.87,2.38,2.69,2.38,933.46,33.04
2843356,-0.04,-0.06,0.89,2.44,2.99,2.32,933.44,33.04
2843394,-0.02,-0.07,0.94,2.75,2.93,2.38,933.39,33.03
2843432,-0.02,-0.07,0.93,2.44,2.99,2.44,933.34,33.03
2843471,-0.04,-0.06,0.96,2.87,2.44,2.44,933.44,33.03
2843520,-0.03,-0.07,0.93,2.75,3.23,2.26,933.37,33.03
2843558,-0.03,-0.06,0.95,2.81,2.56,2.2,933.42,33.02
2843597,-0.03,-0.07,0.95,2.87,2.81,2.32,933.33,33.03
2843635,-0.02,-0.07,0.94,2.87,3.3,2.01,933.34,33.04
2843673,-0.02,-0.05,1.0,3.05,3.3,2.14,933.32,33.03
2843711,-0.02,-0.07,0.97,2.62,4.7,2.38,933.37,33.04
2843749,-0.01,-0.06,0.97,2.69,3.36,2.2,933.3,33.04
2843787,-0.04,-0.06,0.99,2.93,3.85,1.89,933.29,33.03
2843825,-0.02,-0.07,0.95,2.75,4.52,2.26,933.29,33.05
2843863,-0.02,-0.06,1.0,3.23,3.72,2.01,933.29,33.03
2843939,-0.01,-0.06,0.98,3.23,2.99,2.26,933.3,33.01
2843977,-0.02,-0.06,1.01,3.23,2.56,2.14,933.3,33.03
2844015,-0.02,-0.07,1.01,3.48,2.26,2.2,933.26,33.02
2844104,-0.02,-0.07,0.93,3.54,0.61,1.95,933.27,32.99
2844143,-0.03,-0.07,0.88,3.6,1.34,2.08,933.26,33.01
2844181,-0.01,-0.07,0.86,3.66,0.85,1.77,933.25,33.02
2844219,-0.02,-0.06,0.83,3.78,0.98,1.71,933.25,33.02
2844257,-0.03,-0.08,0.77,3.72,1.71,1.77,933.23,33.03
2844295,-0.03,-0.07,0.81,3.66,1.4,1.71,933.22,33.03
2844333,-0.01,-0.07,0.81,3.3,1.83,1.77,933.18,33.03
2844383,-0.03,-0.08,0.8,3.05,1.34,1.59,933.22,33.02
2844421,-0.02,-0.07,0.81,2.81,2.56,1.65,933.22,33.02
2844459,0.03,-0.08,0.81,2.75,2.44,1.4,933.21,33.04
2844497,-0.02,-0.07,0.81,2.87,2.44,1.28,933.2,33.03
2844535,-0.02,-0.07,0.78,2.56,3.05,1.53,933.18,33.04
2844573,-0.03,-0.07,0.83,2.75,4.03,0.98,933.13,33.03
2844611,-0.02,-0.07,0.82,2.5,3.97,1.16,933.08,33.04
2844649,-0.01,-0.06,0.89,2.69,3.85,1.28,933.14,33.04
2844688,-0.02,-0.07,0.88,2.56,5.74,1.04,933.12,33.04
2844737,-0.02,-0.06,0.92,3.23,6.77,1.16,933.06,33.02
2844775,-0.02,-0.07,0.88,3.36,8.54,1.16,933.04,33.03
2844814,0.0,-0.07,0.92,3.23,8.79,1.1,933.05,33.03
2844852,-0.01,-0.07,0.9,3.48,10.93,1.16,933.01,33.04
2844890,-0.0,-0.06,0.89,3.85,10.56,0.98,933.0,33.04
2844928,-0.01,-0.07,0.9,3.91,11.35,0.92,933.01,33.04
2844966,0.0,-0.07,0.89,4.15,11.35,0.98,933.04,33.05
2845004,-0.0,-0.07,0.92,4.64,11.23,0.92,932.97,33.04
2845042,-0.01,-0.08,0.86,4.58,11.35,0.85,932.98,33.04
2845080,-0.01,-0.06,0.88,5.31,10.68,0.79,932.95,33.03
2845130,-0.01,-0.07,0.82,5.62,11.11,0.73,932.95,33.03
2845168,-0.0,-0.07,0.83,5.8,10.86,0.67,932.99,33.03
2845206,-0.01,-0.07,0.79,5.92,11.41,0.73,932.96,33.04
2845244,-0.02,-0.07,0.79,6.04,11.11,0.79,932.94,33.04
2845282,-0.02,-0.07,0.82,6.23,11.78,0.61,932.96,33.04
2845321,-0.02,-0.07,0.76,6.16,11.96,0.79,932.99,33.05
2845359,-0.02,-0.07,0.77,6.77,11.29,0.61,933.04,33.04
2845397,-0.01,-0.08,0.74,6.47,12.02,0.67,932.94,33.04
2845435,-0.01,-0.06,0.77,7.08,11.05,0.79,932.99,33.03
2845485,-0.02,-0.08,0.73,6.84,11.47,0.92,932.95,33.03
2845523,-0.02,-0.07,0.75,6.96,11.17,1.04,932.96,33.04
2845561,-0.01,-0.07,0.75,6.65,10.99,1.04,932.96,33.04
2845599,-0.0,-0.07,0.76,6.47,10.5,1.16,932.91,33.05
2845637,-0.03,-0.06,0.74,6.23,9.64,1.1,933.0,33.03
2845675,-0.02,-0.07,0.78,6.29,10.62,1.4,932.98,33.04
2845713,0.02,-0.09,0.83,6.04,10.99,1.22,933.02,33.04
2845751,-0.01,-0.07,0.83,5.86,9.83,0.98,932.93,33.03
2845789,-0.02,-0.07,0.81,5.74,9.4,1.22,933.01,33.05
2845827,-0.0,-0.08,0.76,5.37,9.95,1.1,933.05,33.05
2845877,-0.01,-0.07,0.74,4.82,8.48,0.92,933.06,33.03
2845915,-0.02,-0.09,0.71,4.21,8.67,0.92,933.03,33.04
2845953,-0.01,-0.08,0.72,3.66,7.81,0.67,933.04,33.04
2845991,0.0,-0.08,0.72,2.99,8.54,0.85,933.05,33.04
2846029,-0.0,-0.08,0.75,2.75,8.18,0.73,933.07,33.04
2846067,-0.01,-0.08,0.75,2.38,8.18,0.55,933.04,33.04
2846106,-0.01,-0.08,0.77,1.95,8.67,0.37,933.04,33.04
2846144,-0.01,-0.08,0.8,1.83,8.91,0.37,933.07,33.04
2846182,-0.01,-0.07,0.82,1.59,9.22,0.24,933.07,33.04
2846220,0.0,-0.08,0.84,1.53,9.34,0.18,933.08,33.04
2846270,-0.01,-0.08,0.86,1.1,9.89,0.24,933.01,33.04
2846308,-0.01,-0.07,0.92,0.98,9.89,0.24,933.07,33.04
2846346,-0.01,-0.08,0.91,-0.06,10.93,0.12,933.06,33.05
2846384,0.01,-0.07,0.94,-0.43,10.01,-0.12,933.03,33.03
2846422,0.02,-0.07,0.98,-1.34,10.5,0.0,933.03,33.04
2846460,0.0,-0.08,1.0,-1.83,10.25,0.0,933.06,33.05
2846498,0.01,-0.07,1.05,-2.44,9.03,-0.18,933.11,33.05
2846536,0.0,-0.05,1.12,-2.5,7.69,-0.24,933.1,33.04
2846574,0.01,-0.07,1.14,-2.93,8.42,-0.18,933.11,33.04
2846624,0.03,-0.06,1.22,-2.2,8.06,-0.61,933.15,33.02
2846662,0.02,-0.07,1.19,-2.5,8.36,-0.73,933.13,33.03
2846700,0.01,-0.06,1.17,-2.2,7.63,-0.92,933.16,33.02
2846738,0.02,-0.04,1.19,-1.83,8.61,-1.22,933.17,33.04
2846776,0.03,-0.06,1.19,-1.89,10.13,-1.46,933.09,33.04
2846814,0.03,-0.06,1.25,-1.22,8.79,-1.77,933.17,33.05
2846852,0.01,-0.07,1.26,-1.28,9.03,-2.08,933.15,33.04
2846890,0.01,-0.06,1.25,-1.77,8.61,-2.26,933.08,33.03
2846929,0.0,-0.05,1.27,-1.59,9.09,-2.38,933.15,33.04
2846967,0.02,-0.06,1.24,-1.46,9.58,-2.69,933.17,33.03
2847042,-0.01,-0.06,1.2,-0.85,9.09,-3.05,933.19,33.02
2847080,0.05,-0.05,1.24,0.06,8.61,-3.23,933.16,33.01
2847118,0.02,-0.05,1.25,0.37,7.45,-3.36,933.21,33.02
2847208,0.01,-0.07,1.18,0.98,6.77,-3.72,933.17,33.0
2847246,-0.0,-0.07,1.17,1.28,5.55,-3.78,933.19,33.01
2847284,0.01,-0.06,1.14,0.92,5.62,-3.78,933.21,33.02
2847322,-0.02,-0.05,1.08,1.1,5.0,-4.03,933.25,33.02
2847360,0.0,-0.06,1.09,1.04,4.7,-4.21,933.22,33.01
2847398,0.02,-0.06,1.1,1.1,4.33,-4.27,933.18,33.02
2847448,-0.01,-0.07,1.09,1.53,3.85,-4.46,933.26,33.03
2847486,-0.0,-0.07,1.02,1.16,5.13,-4.7,933.21,33.02
2847524,-0.02,-0.05,1.06,1.4,3.97,-4.88,933.19,33.02
2847562,-0.01,-0.07,1.03,1.04,5.31,-4.94,933.15,33.02
2847600,0.01,-0.07,1.02,0.55,5.07,-5.13,933.21,33.04
2847638,-0.02,-0.05,1.02,0.67,5.37,-5.37,933.21,33.03
2847676,0.02,-0.06,1.0,0.67,5.74,-5.49,933.18,33.04
2847714,-0.03,-0.06,1.01,0.98,4.88,-5.62,933.2,33.03
2847753,-0.06,-0.06,1.01,1.22,5.19,-5.49,933.2,33.04
2847791,-0.03,-0.07,1.01,1.59,5.55,-5.62,933.13,33.04
2847840,-0.03,-0.06,0.99,1.89,3.97,-5.62,933.14,33.02
2847879,-0.05,-0.06,1.01,2.75,2.81,-5.49,933.09,33.04
2847917,-0.03,-0.07,0.95,2.56,4.09,-5.55,933.14,33.03
2847955,-0.02,-0.06,0.97,2.5,1.65,-5.43,933.05,33.03
2847993,-0.06,-0.06,0.95,2.56,2.01,-5.37,933.04,33.03
2848031,-0.06,-0.07,0.89,2.14,2.14,-5.25,933.1,33.03
2848069,-0.07,-0.05,0.94,2.69,1.16,-5.19,933.16,33.04
2848107,-0.05,-0.07,0.88,1.77,2.01,-4.88,933.0,33.03
2848145,-0.07,-0.07,0.86,2.01,0.92,-4.88,933.05,33.03
2848195,-0.07,-0.07,0.81,0.67,1.95,-4.64,933.04,33.03
2848233,-0.06,-0.05,0.87,-0.06,1.28,-4.21,933.08,33.04
2848271,-0.05,-0.07,0.87,-0.98,3.36,-4.46,933.07,33.02
2848309,-0.07,-0.05,0.89,-1.4,3.11,-4.27,933.05,33.03
2848347,-0.08,-0.05,0.98,-1.53,2.93,-3.85,933.14,33.04
2848385,-0.03,-0.08,0.95,-2.62,3.42,-3.66,933.13,33.03
2848424,-0.06,-0.05,0.98,-2.44,2.38,-3.54,933.21,33.05
2848462,-0.07,-0.05,0.93,-2.32,2.87,-3.36,933.2,33.03
2848500,-0.07,-0.07,0.92,-2.2,2.75,-3.23,933.18,33.04
2848538,-0.04,-0.06,0.83,-2.26,3.3,-3.3,933.2,33.03
2848588,-0.07,-0.05,0.86,-1.34,3.48,-3.05,933.23,33.02
2848626,-0.05,-0.07,0.83,-2.01,5.74,-2.75,933.25,33.03
2848664,-0.06,-0.04,0.98,-0.61,5.43,-2.93,933.29,33.04
2848702,-0.06,-0.07,0.97,-1.28,9.4,-2.62,933.29,33.04
2848740,-0.06,-0.05,1.08,0.0,9.64,-2.87,933.34,33.03
2848778,-0.06,-0.05,1.12,0.18,12.45,-2.69,933.33,33.05
2848816,-0.03,-0.07,1.08,0.12,13.24,-2.5,933.31,33.03
2848854,-0.05,-0.03,1.14,0.55,11.9,-2.26,933.33,33.02
2848893,-0.05,-0.06,1.03,0.55,12.94,-1.89,933.35,33.03
2848942,-0.06,-0.02,1.14,1.83,7.81,-1.65,933.3,33.03
2848980,-0.04,-0.06,1.03,0.92,9.03,-1.1,933.35,33.03
2849018,-0.03,-0.04,1.12,2.08,2.87,-0.92,933.32,33.03
2849057,-0.03,-0.05,1.1,1.95,3.91,-0.61,933.25,33.04
2849095,-0.02,-0.04,1.07,2.2,0.0,-0.55,933.29,33.03
2849133,-0.04,-0.04,1.12,2.5,-1.53,-0.43,933.27,33.04
2849171,-0.02,-0.06,1.04,2.2,-2.62,-0.55,933.36,33.04
2849209,-0.03,-0.05,1.12,2.81,-3.78,-0.49,933.31,33.03
2849247,-0.0,-0.06,1.06,3.11,-2.75,-0.67,933.33,33.03
2849297,-0.01,-0.04,1.09,3.54,-3.97,-0.92,933.31,33.02
2849335,-0.04,-0.07,1.06,4.09,-2.38,-1.16,933.36,33.03
2849373,-0.02,-0.07,1.0,4.03,-2.56,-1.22,933.39,33.03
2849411,-0.03,-0.05,1.04,3.97,-2.56,-1.59,933.35,33.03
2849449,-0.03,-0.07,0.97,3.3,-0.67,-1.77,933.38,33.04
2849487,-0.03,-0.06,0.97,2.81,-0.55,-1.83,933.44,33.03
2849525,-0.03,-0.07,0.98,2.56,0.98,-1.71,933.43,33.03
2849563,-0.02,-0.07,0.96,1.77,2.26,-1.95,933.42,33.04
2849601,-0.04,-0.06,0.99,1.95,2.69,-1.95,933.43,33.04
2849639,-0.02,-0.07,0.97,1.46,3.91,-1.89,933.44,33.05
2849689,-0.02,-0.07,0.96,1.4,3.78,-2.2,933.4,33.03
2849727,-0.03,-0.07,0.95,1.16,4.64,-1.95,933.44,33.02
2849765,-0.02,-0.07,0.95,0.92,5.13,-2.08,933.46,33.04
2849803,-0.02,-0.07,0.96,0.61,4.94,-2.32,933.5,33.03
2849841,-0.03,-0.07,1.0,1.04,5.25,-2.2,933.48,33.04
2849880,-0.02,-0.08,0.98,0.79,5.92,-2.2,933.45,33.04
2849918,-0.02,-0.07,1.04,1.04,5.92,-2.38,933.53,33.04
2849956,-0.03,-0.08,1.03,1.28,6.29,-2.26,933.49,33.05
2849994,-0.02,-0.07,1.0,1.04,7.45,-2.38,933.46,33.04
2850069,-0.02,-0.07,0.96,1.46,9.16,-2.2,933.55,33.02
2850108,-0.02,-0.07,0.92,1.59,9.03,-2.5,933.54,33.03
2850146,-0.02,-0.07,0.9,1.65,9.4,-2.56,933.58,33.04
2850235,-0.03,-0.08,0.88,0.79,8.85,-2.32,933.54,33.0
2850273,-0.01,-0.08,0.9,0.24,8.48,-2.5,933.6,33.0
2850311,0.0,-0.08,0.93,0.18,8.06,-2.44,933.59,33.01
2850349,-0.0,-0.07,0.9,-0.24,7.32,-2.38,933.53,33.01
2850387,-0.01,-0.07,0.9,-0.37,6.04,-2.5,933.53,33.01
2850425,0.0,-0.07,0.88,-0.73,6.04,-2.62,933.58,33.01
2850463,-0.01,-0.07,0.93,-0.55,4.58,-2.87,933.57,33.03
2850513,0.0,-0.07,0.92,-0.98,3.66,-2.75,933.62,33.02
2850551,-0.01,-0.07,0.97,-0.67,2.62,-2.93,933.55,33.02
2850589,-0.01,-0.08,0.96,-0.67,3.3,-3.11,933.59,33.02
2850627,-0.01,-0.07,1.0,-0.55,2.56,-3.05,933.57,33.02
2850665,-0.02,-0.08,0.99,-0.18,3.17,-3.36,933.58,33.02
2850703,-0.02,-0.07,1.0,-0.24,3.42,-3.42,933.57,33.02
2850741,-0.01,-0.06,1.05,0.06,4.33,-3.78,933.66,33.04
2850779,-0.01,-0.07,1.03,0.06,5.19,-3.66,933.64,33.03
2850818,-0.02,-0.06,1.08,0.73,5.0,-3.72,933.68,33.02
2850867,-0.02,-0.06,1.04,0.73,6.53,-3.72,933.58,33.02
2850905,-0.01,-0.06,1.07,0.79,6.47,-3.91,933.64,33.03
2850944,-0.01,-0.07,1.07,0.73,7.69,-3.85,933.72,33.02
2850982,-0.01,-0.07,1.06,1.04,7.51,-3.85,933.66,33.02
2851020,0.0,-0.07,1.07,1.22,8.24,-3.91,933.72,33.03
2851058,0.0,-0.07,1.06,1.1,8.36,-4.09,933.63,33.03
2851096,-0.01,-0.07,1.04,1.1,8.48,-4.09,933.71,33.03
2851134,-0.01,-0.07,1.04,1.22,8.24,-4.15,933.71,33.02
2851172,-0.0,-0.07,1.03,1.46,8.67,-4.33,933.69,33.04
2851222,-0.02,-0.07,1.02,1.59,7.87,-4.33,933.73,33.03
2851260,-0.02,-0.07,1.0,1.46,8.06,-4.27,933.76,33.03
2851298,-0.0,-0.07,0.98,1.22,7.69,-4.33,933.69,33.03
2851336,-0.01,-0.07,0.99,1.22,7.2,-4.33,933.68,33.03
2851374,-0.01,-0.07,0.98,0.55,6.96,-4.33,933.69,33.03
2851412,-0.02,-0.07,1.01,0.06,6.59,-4.52,933.73,33.03
2851450,-0.01,-0.07,1.01,-0.49,7.14,-4.52,933.72,33.03
2851488,-0.01,-0.06,1.08,-0.73,6.65,-4.46,933.74,33.04
2851526,-0.01,-0.07,1.11,-0.98,7.14,-4.58,933.8,33.05
2851564,-0.02,-0.06,1.14,-1.28,7.32,-4.94,933.76,33.02
2851614,-0.01,-0.06,1.14,-1.34,7.81,-4.76,933.8,33.02
2851652,-0.0,-0.06,1.15,-1.28,6.65,-5.0,933.8,33.03
2851690,-0.02,-0.06,1.15,-1.28,6.23,-5.19,933.78,33.03
2851728,-0.02,-0.07,1.15,-1.28,5.49,-5.19,933.77,33.03
2851766,-0.01,-0.06,1.12,-1.34,4.82,-5.19,933.86,33.04
2851804,-0.03,-0.05,1.15,-1.1,4.09,-5.37,933.72,33.02
2851843,-0.03,-0.06,1.13,-1.34,5.19,-5.55,933.81,33.03
2851881,-0.01,-0.06,1.16,-1.34,4.21,-5.68,933.73,33.01
2851919,-0.03,-0.05,1.19,-1.53,5.0,-5.74,933.75,33.03
2851968,-0.02,-0.05,1.18,-1.59,6.41,-5.8,933.78,33.02
2852006,-0.03,-0.04,1.2,-1.65,4.82,-5.92,933.8,33.03
2852045,-0.05,-0.05,1.15,-2.14,4.76,-5.92,933.76,33.03
2852083,-0.05,-0.05,1.14,-2.32,5.13,-6.04,933.73,33.02
2852121,-0.04,-0.05,1.18,-1.71,3.17,-6.04,933.74,33.03
2852159,-0.05,-0.05,1.13,-2.08,3.23,-5.68,933.79,33.03
2852197,-0.05,-0.05,1.19,-1.59,2.32,-5.8,933.81,33.04
2852235,-0.03,-0.06,1.22,-1.46,2.81,-5.62,933.82,33.02
2852273,-0.05,-0.05,1.2,-1.53,2.44,-5.49,933.74,33.02
2852323,-0.06,-0.04,1.2,-1.28,1.22,-5.31,933.71,33.0
2852361,-0.04,-0.05,1.15,-1.59,1.89,-5.43,933.73,33.03
2852399,-0.05,-0.05,1.1,-1.65,1.59,-5.25,933.83,33.02
2852437,-0.05,-0.05,1.08,-1.22,0.79,-5.07,933.8,33.03
2852475,-0.05,-0.06,1.03,-1.4,1.28,-5.07,933.84,33.03
2852513,-0.05,-0.05,1.06,-1.04,-0.31,-5.0,933.79,33.03
2852551,-0.06,-0.05,1.03,-1.4,0.24,-4.82,933.77,33.02
2852589,-0.06,-0.06,1.0,-1.04,-0.55,-4.94,933.86,33.03
2852627,-0.06,-0.06,1.0,-1.16,-0.85,-4.76,933.81,33.02
2852666,-0.06,-0.06,1.0,-1.16,-0.98,-4.64,933.78,33.02
2852715,-0.06,-0.06,1.03,-1.04,-1.28,-4.7,933.82,33.01
2852753,-0.08,-0.05,1.02,-1.04,-0.85,-4.7,933.81,33.02
2852792,-0.06,-0.06,1.05,-0.79,-1.22,-4.58,933.78,33.02
2852830,-0.06,-0.06,1.04,-0.92,-0.92,-4.46,933.84,33.04
2852868,-0.07,-0.05,1.05,-0.79,-1.4,-4.39,933.82,33.02
2852906,-0.07,-0.06,1.07,-0.85,-1.22,-4.15,933.79,33.03
2852944,-0.07,-0.06,1.07,-0.79,-1.4,-4.15,933.83,33.03
2852982,-0.08,-0.05,1.11,-0.61,-1.34,-4.03,933.72,33.02
2853020,-0.08,-0.06,1.09,-0.73,-0.79,-3.78,933.77,33.02
2853096,-0.08,-0.05,1.09,-0.61,-0.98,-3.66,933.81,32.99
2853134,-0.08,-0.05,1.09,-0.24,-0.85,-3.6,933.88,33.01
2853172,-0.08,-0.05,1.09,-0.55,-0.67,-3.54,933.89,33.02
2853261,-0.09,-0.05,1.13,-0.24,0.43,-3.23,933.87,32.97
2853300,-0.09,-0.05,1.13,0.12,1.65,-3.11,933.9,32.99
2853338,-0.08,-0.05,1.14,0.24,1.89,-2.87,933.9,32.99
2853376,-0.08,-0.06,1.12,0.43,2.99,-2.81,933.92,32.99
2853414,-0.06,-0.05,1.11,0.79,2.75,-2.56,933.96,33.01
2853452,-0.07,-0.06,1.09,1.16,3.54,-2.44,933.91,33.01
2853502,-0.06,-0.05,1.09,1.59,2.5,-2.14,934.0,33.0
2853540,-0.08,-0.06,1.08,2.08,2.32,-1.89,933.95,33.0
2853578,-0.06,-0.06,1.05,1.77,2.62,-1.83,933.93,33.0
2853616,-0.06,-0.06,1.04,2.08,1.77,-1.71,933.91,33.01
2853654,-0.06,-0.06,1.01,2.01,1.46,-1.53,934.0,33.02
2853692,-0.05,-0.06,0.99,2.08,1.34,-1.65,933.94,33.02
2853730,-0.05,-0.07,0.95,1.95,1.1,-1.4,933.99,33.02
2853768,-0.05,-0.07,0.94,1.83,0.61,-1.4,933.95,33.02
2853806,-0.06,-0.07,0.91,1.4,0.43,-1.28,933.97,33.01
2853844,-0.05,-0.07,0.91,1.34,-0.37,-1.1,933.95,33.01
2853894,-0.05,-0.08,0.9,0.98,-0.31,-1.22,934.0,33.0
2853932,-0.04,-0.07,0.89,0.85,-0.61,-1.1,934.02,33.01
2853970,-0.04,-0.07,0.86,0.43,-0.98,-1.04,934.06,33.0
2854008,-0.05,-0.07,0.86,0.24,-1.22,-0.85,933.99,33.01
2854046,-0.05,-0.07,0.86,0.12,-1.04,-0.85,934.02,33.01
2854084,-0.04,-0.08,0.86,-0.06,-0.43,-0.92,934.05,33.0
2854122,-0.04,-0.07,0.91,0.0,-0.55,-0.92,934.14,33.02
2854160,-0.05,-0.08,0.93,-0.24,0.92,-0.73,934.17,33.02
2854198,-0.04,-0.07,0.94,-0.43,1.65,-0.67,934.19,33.02
2854248,-0.03,-0.08,0.95,0.12,3.42,-0.73,934.18,33.01
2854286,-0.04,-0.08,0.94,0.31,3.48,-0.61,934.17,33.01
2854324,-0.05,-0.07,0.92,0.67,4.82,-0.67,934.22,33.0
2854362,-0.04,-0.07,0.95,0.67,5.0,-0.55,934.16,33.02
2854400,-0.03,-0.07,0.98,0.92,5.43,-0.55,934.18,33.01
2854438,-0.03,-0.08,0.97,0.79,7.02,-0.43,934.16,33.02
2854476,-0.04,-0.08,1.03,1.28,6.04,-0.49,934.27,33.02
2854514,-0.03,-0.07,1.06,1.28,5.62,-0.43,934.25,33.03
2854552,-0.04,-0.06,1.08,1.16,4.33,-0.43,934.27,33.03
2854602,-0.03,-0.07,1.1,1.22,4.76,-0.37,934.15,33.01
2854640,-0.03,-0.08,1.1,1.22,4.33,-0.37,934.21,33.01
2854678,-0.04,-0.07,1.07,1.34,4.39,-0.49,934.25,33.03
2854716,-0.02,-0.06,1.04,0.79,4.64,-0.37,934.24,33.01
2854754,-0.03,-0.08,1.08,1.59,3.6,-0.49,934.31,33.02
2854792,-0.02,-0.09,0.98,0.49,4.7,-0.31,934.26,33.02
2854830,-0.03,-0.07,1.1,1.59,3.23,-0.43,934.29,33.02
2854869,-0.02,-0.08,1.05,1.4,4.76,-0.49,934.26,33.03
2854907,-0.02,-0.06,1.01,1.34,3.54,-0.49,934.25,33.01
2854945,-0.04,-0.07,1.03,1.77,4.15,-0.43,934.24,33.03
2854994,-0.02,-0.07,1.07,1.4,4.39,-0.43,934.19,33.01
2855033,-0.07,-0.06,1.11,1.65,5.19,-0.55,934.25,33.02
2855071,-0.06,-0.06,1.09,1.46,7.26,-0.43,934.27,33.02
2855109,-0.03,-0.05,1.12,1.22,10.56,-0.67,934.21,33.01
2855147,-0.03,-0.06,1.12,1.59,12.15,-0.61,934.23,33.02
2855185,-0.06,-0.07,1.12,1.95,12.7,-0.61,934.2,33.02
2855223,-0.06,-0.05,1.18,2.69,14.16,-0.61,934.26,33.02
2855261,-0.01,-0.05,1.23,2.44,16.54,-0.61,934.26,33.03
2855299,-0.01,-0.05,1.2,3.23,15.81,-0.43,934.24,33.0
2855349,-0.04,-0.08,1.15,3.72,17.09,-0.43,934.25,33.0
2855387,-0.0,-0.08,1.11,4.27,17.82,-0.55,934.26,33.02
2855425,0.0,-0.05,1.15,4.82,17.09,-0.43,934.26,33.02
2855463,-0.01,-0.06,1.1,4.64,16.66,-0.37,934.27,33.03
2855501,-0.02,-0.05,1.09,4.88,14.77,-0.37,934.34,33.02
2855540,-0.0,-0.08,1.11,4.82,14.71,-0.31,934.28,33.02
2855578,0.0,-0.07,1.08,4.46,13.24,-0.31,934.35,33.02
2855616,-0.01,-0.08,1.04,4.82,12.63,-0.31,934.38,33.03
2855654,-0.0,-0.07,0.99,4.7,10.93,-0.37,934.34,33.03
2855692,0.02,-0.07,0.95,4.39,9.03,-0.43,934.37,33.02
2855742,0.02,-0.09,0.78,3.6,6.41,-0.79,934.36,33.01
2855780,0.02,-0.07,0.83,3.42,3.05,-0.79,934.31,33.02
2855818,0.05,-0.09,0.79,2.93,1.89,-0.85,934.25,33.02
2855856,0.03,-0.07,0.82,2.38,-0.73,-1.22,934.24,33.01
2855894,0.01,-0.06,0.89,2.38,-2.5,-1.34,934.29,33.01
2855932,-0.02,-0.1,0.91,2.2,-3.66,-1.22,934.38,33.03
2855971,-0.01,-0.09,0.88,1.77,-5.92,-1.53,934.33,33.02
2856009,-0.02,-0.08,0.92,1.65,-5.19,-1.65,934.36,33.02
2856047,0.0,-0.08,0.85,1.1,-4.03,-1.95,934.41,33.02
2856122,-0.02,-0.08,0.86,0.79,-2.93,-2.01,934.41,32.99
2856161,-0.02,-0.08,0.88,0.98,-1.04,-2.01,934.42,33.0
2856199,-0.01,-0.07,0.93,0.85,-0.24,-2.38,934.36,32.99
2856288,-0.01,-0.08,0.97,0.55,2.08,-2.32,934.41,32.96
2856326,0.0,-0.08,0.99,1.04,2.62,-2.81,934.42,32.98
2856364,-0.01,-0.08,0.95,0.98,3.17,-2.62,934.48,33.0
2856402,-0.01,-0.07,0.91,0.73,3.54,-2.81,934.44,33.0
2856440,-0.0,-0.07,0.91,0.79,4.7,-2.93,934.45,32.99
2856478,-0.0,-0.07,0.87,0.55,5.19,-3.11,934.48,33.0
2856516,-0.0,-0.07,0.91,0.43,4.88,-3.11,934.42,33.0
2856566,0.0,-0.08,0.93,0.06,6.53,-3.54,934.43,32.98
2856604,-0.01,-0.07,0.99,-0.12,6.35,-3.66,934.46,33.0
2856642,-0.02,-0.08,0.97,-0.61,8.24,-3.6,934.47,33.01
2856680,0.0,-0.07,1.01,-0.67,7.02,-3.78,934.47,33.0
2856719,-0.02,-0.07,1.01,-1.1,7.93,-3.78,934.44,33.0
2856757,-0.02,-0.06,1.02,-1.16,7.81,-3.78,934.41,33.01
2856795,-0.01,-0.07,1.1,-0.98,8.36,-3.97,934.49,33.01
2856833,0.0,-0.08,1.08,-1.22,9.22,-3.97,934.51,33.0
2856871,-0.03,-0.05,1.16,-0.92,8.18,-3.85,934.55,33.01
2856921,-0.03,-0.06,1.14,-0.98,10.07,-3.54,934.56,33.01
2856959,-0.01,-0.06,1.2,-0.43,10.01,-3.78,934.56,33.01
2856997,-0.02,-0.06,1.14,-0.43,10.74,-3.54,934.56,33.01
2857035,-0.01,-0.06,1.14,-0.24,9.28,-3.3,934.53,33.0
2857073,-0.01,-0.05,1.14,0.0,9.64,-3.42,934.55,33.02
2857111,-0.02,-0.06,1.1,-0.06,10.19,-3.3,934.57,33.02
2857149,-0.02,-0.06,1.15,0.18,9.4,-2.99,934.54,33.01
2857187,-0.03,-0.07,1.14,-0.06,10.01,-2.93,934.61,33.02
2857225,-0.02,-0.07,1.15,0.37,9.7,-2.99,934.58,33.0
2857275,-0.0,-0.06,1.11,0.18,10.99,-2.87,934.66,33.02
2857313,-0.02,-0.06,1.12,0.31,9.7,-2.81,934.59,33.01
2857351,-0.02,-0.08,1.04,0.0,10.56,-2.75,934.58,33.02
2857389,-0.01,-0.07,1.07,-0.12,9.4,-2.75,934.56,33.02
2857427,-0.02,-0.07,1.06,-0.43,9.28,-2.38,934.59,33.03
2857466,0.0,-0.06,1.07,-0.85,9.28,-2.5,934.59,33.02
2857504,-0.0,-0.06,1.09,-1.28,9.28,-2.5,934.61,33.02
2857542,-0.01,-0.07,1.12,-1.46,9.64,-2.38,934.66,33.02
2857580,-0.02,-0.07,1.14,-1.34,8.54,-2.32,934.62,33.02
2857618,-0.0,-0.06,1.18,-1.53,8.18,-2.44,934.58,33.01
2857668,-0.01,-0.06,1.15,-1.65,8.06,-2.38,934.67,33.0
2857706,-0.01,-0.06,1.16,-1.65,7.57,-2.44,934.69,33.02
2857744,0.0,-0.06,1.19,-1.46,7.39,-2.38,934.64,33.0
2857782,0.01,-0.06,1.2,-1.53,6.65,-2.5,934.66,33.02
2857820,-0.01,-0.07,1.19,-1.34,5.74,-2.69,934.69,33.01
2857858,-0.01,-0.06,1.19,-1.4,5.49,-2.69,934.73,33.03
2857896,0.01,-0.06,1.17,-1.16,5.13,-3.05,934.7,33.03
2857934,-0.01,-0.06,1.15,-1.28,4.39,-2.81,934.64,33.02
2857972,0.0,-0.06,1.13,-1.53,3.6,-3.23,934.69,33.02
2858022,-0.03,-0.07,1.12,-1.89,3.48,-3.36,934.71,33.0
2858060,-0.0,-0.07,1.13,-2.14,3.3,-3.36,934.71,33.02
2858098,0.0,-0.07,1.15,-2.44,3.3,-3.54,934.75,33.02
2858136,-0.02,-0.07,1.11,-2.62,3.48,-3.54,934.66,33.01
2858174,-0.0,-0.06,1.14,-2.99,3.11,-3.72,934.7,33.01
2858212,0.0,-0.07,1.13,-3.36,4.21,-3.91,934.76,33.01
2858250,-0.01,-0.06,1.14,-3.54,4.58,-4.03,934.75,33.03
2858289,-0.0,-0.06,1.16,-3.48,4.7,-4.09,934.68,33.03
2858327,-0.01,-0.06,1.18,-3.85,5.25,-4.33,934.75,33.02
2858376,-0.01,-0.05,1.2,-3.91,5.55,-4.7,934.7,33.01
2858414,-0.0,-0.07,1.21,-4.09,5.31,-4.64,934.74,33.02
2858453,-0.01,-0.06,1.19,-4.39,5.19,-4.7,934.71,33.02
2858491,-0.02,-0.06,1.21,-4.09,4.64,-4.64,934.73,33.03
2858529,-0.01,-0.06,1.18,-4.52,4.21,-4.82,934.74,33.02
2858567,-0.01,-0.05,1.2,-4.21,3.23,-4.94,934.69,33.02
2858605,-0.02,-0.05,1.22,-4.03,3.48,-4.76,934.68,33.02
2858643,-0.01,-0.07,1.2,-3.91,2.93,-4.7,934.82,33.05
2858681,-0.02,-0.06,1.21,-3.42,2.44,-4.76,934.76,33.03
2858719,-0.04,-0.06,1.19,-3.3,2.01,-4.82,934.78,33.02
2858769,-0.03,-0.06,1.14,-2.56,2.32,-4.94,934.83,33.02
2858807,-0.01,-0.06,1.11,-2.62,2.26,-5.0,934.77,33.02
2858845,-0.04,-0.06,1.05,-2.26,2.26,-5.0,934.82,33.03
2858883,-0.03,-0.07,1.04,-1.89,3.11,-5.0,934.84,33.03
2858921,-0.03,-0.06,1.07,-1.53,4.09,-5.19,934.86,33.03
2858959,-0.04,-0.06,1.07,-0.92,4.76,-5.13,934.77,33.03
2858998,-0.05,-0.07,1.03,-0.24,5.92,-5.07,934.79,33.02
2859036,-0.05,-0.06,1.03,0.0,6.84,-5.25,934.73,33.02
2859074,-0.04,-0.06,1.06,0.24,7.75,-5.0,934.8,33.02
2859151,-0.03,-0.05,1.09,0.85,8.79,-4.94,934.81,33.0
2859189,-0.02,-0.06,1.09,1.22,10.01,-5.0,934.83,33.01
2859227,-0.04,-0.06,1.09,2.01,10.07,-4.76,934.73,33.0
2859317,-0.03,-0.06,1.1,2.75,10.68,-4.64,934.76,32.96
2859355,-0.04,-0.06,1.06,2.56,11.72,-4.46,934.76,32.99
2859393,-0.02,-0.05,1.06,2.5,10.93,-4.33,934.74,32.98
2859431,-0.02,-0.05,1.06,2.08,11.29,-4.09,934.78,33.01
2859469,-0.03,-0.07,1.02,1.53,10.74,-3.97,934.72,33.0
2859507,-0.03,-0.06,1.06,0.98,9.77,-4.03,934.75,33.0
2859557,-0.01,-0.06,1.04,0.18,9.34,-3.91,934.81,33.01
2859595,-0.04,-0.06,1.07,0.0,8.67,-3.91,934.74,32.99
2859633,-0.03,-0.06,1.05,-0.79,8.18,-3.66,934.78,33.02
2859671,-0.01,-0.05,1.11,-0.98,7.26,-3.78,934.72,33.01
2859709,-0.03,-0.06,1.09,-1.4,7.14,-3.78,934.73,33.0
2859747,-0.02,-0.06,1.12,-1.59,6.41,-3.72,934.82,33.01
2859785,-0.03,-0.06,1.09,-1.89,7.14,-3.66,934.78,33.02
2859823,-0.03,-0.06,1.11,-1.95,6.16,-3.85,934.8,33.01
2859861,-0.03,-0.07,1.08,-2.08,6.53,-3.97,934.74,33.02
2859900,-0.03,-0.06,1.09,-2.01,5.62,-3.91,934.75,33.0
2859949,-0.03,-0.07,1.12,-1.71,6.65,-3.72,934.83,33.01
2859987,-0.01,-0.05,1.15,-1.28,5.31,-3.97,934.81,33.0
2860026,-0.03,-0.05,1.2,-0.61,5.55,-3.85,934.77,33.01
2860064,-0.0,-0.07,1.1,-0.85,6.41,-4.15,934.89,33.02
2860102,-0.02,-0.05,1.16,-0.37,4.76,-4.03,934.8,33.01
2860140,-0.02,-0.06,1.14,-0.31,5.43,-4.03,934.85,33.02
2860178,-0.02,-0.05,1.14,0.18,4.58,-4.33,934.84,33.01
2860216,-0.03,-0.05,1.14,0.49,5.49,-4.27,934.81,33.02
2860254,-0.03,-0.05,1.15,1.04,5.07,-4.27,934.87,33.02
2860304,-0.01,-0.06,1.15,1.53,6.23,-4.39,934.83,33.01
2860342,-0.01,-0.06,1.13,2.14,5.86,-4.52,934.84,33.02
2860380,-0.02,-0.06,1.12,2.2,6.1,-4.46,934.78,33.0
2860418,-0.02,-0.06,1.05,2.26,5.55,-4.52,934.79,33.01
2860456,-0.01,-0.05,1.07,2.32,5.07,-4.64,934.77,33.02
2860494,-0.02,-0.07,1.01,1.65,5.86,-4.58,934.79,33.01
2860532,-0.02,-0.06,1.05,1.53,4.7,-4.58,934.83,33.02
2860570,-0.03,-0.07,1.02,1.04,5.49,-4.64,934.85,33.01
2860608,-0.01,-0.06,1.02,-0.06,4.64,-4.58,934.78,33.02
2860647,-0.01,-0.06,1.03,-0.37,5.13,-4.64,934.81,33.02
2860696,-0.01,-0.06,1.01,-1.28,4.7,-4.7,934.85,33.0
2860734,-0.01,-0.06,1.04,-1.65,5.31,-4.88,934.85,33.02
2860772,-0.01,-0.06,1.02,-2.01,4.76,-4.76,934.79,33.02
2860811,-0.01,-0.06,1.06,-2.44,4.82,-5.07,934.82,33.02
2860849,-0.01,-0.06,1.05,-2.99,4.76,-5.0,934.82,33.01
2860887,-0.02,-0.06,1.09,-3.05,3.91,-5.07,934.82,33.01
2860925,-0.02,-0.06,1.09,-3.42,5.0,-5.13,934.84,33.03
2860963,-0.01,-0.06,1.11,-3.42,4.76,-5.37,934.85,33.02
2861001,-0.02,-0.05,1.14,-3.05,5.13,-5.49,934.88,33.02
2861051,-0.02,-0.05,1.15,-2.69,5.07,-5.68,934.84,33.01
2861089,-0.02,-0.05,1.16,-2.32,5.8,-5.68,934.83,33.01
2861127,-0.02,-0.05,1.15,-2.2,5.74,-5.8,934.87,33.02
2861165,-0.03,-0.05,1.15,-1.53,5.8,-6.1,934.81,33.0
2861203,-0.01,-0.05,1.15,-1.46,6.23,-5.98,934.82,33.01
2861241,-0.01,-0.05,1.15,-1.16,5.8,-6.04,934.85,33.02
2861279,-0.02,-0.05,1.14,-1.1,5.98,-6.16,934.88,33.02
2861317,-0.03,-0.06,1.1,-1.04,5.86,-6.04,934.8,33.01
2861356,-0.02,-0.05,1.12,-1.16,5.25,-6.29,934.81,33.02
2861405,-0.03,-0.06,1.08,-1.65,5.31,-6.29,934.78,33.01
2861443,-0.03,-0.05,1.1,-1.89,5.07,-6.53,934.86,33.02
2861482,-0.02,-0.05,1.12,-2.01,5.86,-6.65,934.84,33.02
2861520,-0.03,-0.05,1.13,-2.38,5.43,-6.59,934.83,33.02
2861558,-0.04,-0.05,1.14,-2.5,5.74,-6.59,934.79,33.02
2861596,-0.04,-0.05,1.12,-2.5,6.16,-6.59,934.86,33.02
2861634,-0.03,-0.04,1.15,-2.69,5.98,-6.65,934.85,33.03
2861672,-0.04,-0.05,1.13,-2.62,5.92,-6.71,934.89,33.02
2861710,-0.04,-0.04,1.15,-2.56,5.37,-6.77,934.86,33.03
2861760,-0.04,-0.04,1.16,-2.5,5.62,-6.59,934.86,33.01
2861798,-0.05,-0.04,1.19,-2.32,5.25,-6.41,934.83,33.02
2861836,-0.04,-0.04,1.19,-2.2,5.55,-6.53,934.86,33.0
2861874,-0.05,-0.04,1.21,-1.53,5.13,-6.53,934.89,33.01
2861912,-0.05,-0.04,1.19,-1.16,5.68,-6.41,934.83,33.01
2861950,-0.04,-0.04,1.18,-0.79,5.31,-6.53,934.83,33.02
2861989,-0.04,-0.04,1.15,-0.31,5.55,-6.16,934.85,33.01
2862027,-0.04,-0.04,1.1,0.0,5.43,-5.92,934.83,33.01
2862065,-0.04,-0.05,1.12,0.06,5.07,-6.16,934.81,33.03
2862103,-0.05,-0.05,1.07,-0.12,5.13,-6.04,934.76,33.01
2862178,-0.04,-0.05,1.05,-0.24,4.7,-5.92,934.82,32.99
2862217,-0.04,-0.05,1.06,-0.61,4.33,-5.92,934.87,33.02
2862255,-0.05,-0.05,1.04,-0.85,4.46,-5.74,934.8,33.01
2862344,-0.04,-0.05,1.07,-1.1,4.39,-5.62,934.86,32.98
2862382,-0.04,-0.05,1.06,-1.4,5.13,-5.55,934.93,32.99
2862420,-0.05,-0.04,1.09,-1.1,5.43,-5.62,934.96,33.0
2862458,-0.04,-0.05,1.11,-1.16,6.35,-5.49,934.95,33.0
2862497,-0.05,-0.05,1.1,-1.04,6.96,-5.37,934.96,33.0
2862535,-0.04,-0.05,1.12,-1.22,7.2,-5.43,934.91,33.0
2862584,-0.04,-0.05,1.12,-1.28,8.0,-5.25,934.88,32.99
2862623,-0.04,-0.05,1.12,-1.04,8.42,-5.13,934.94,33.0
2862661,-0.04,-0.04,1.12,-0.92,8.12,-5.0,934.93,33.0
2862699,-0.03,-0.05,1.12,-0.67,8.48,-4.88,934.96,33.01
2862737,-0.03,-0.05,1.1,-0.92,8.61,-4.7,934.93,33.01
2862775,-0.05,-0.05,1.11,-0.92,8.06,-4.64,934.93,32.99
2862813,-0.03,-0.05,1.1,-0.98,7.93,-4.64,934.93,33.0
2862851,-0.03,-0.05,1.1,-1.22,7.08,-4.64,934.97,33.01
2862889,-0.03,-0.05,1.08,-1.34,7.02,-4.7,934.97,33.01
2862939,-0.03,-0.05,1.08,-1.46,6.77,-4.58,934.96,33.0
2862977,-0.03,-0.06,1.08,-1.59,7.02,-4.39,934.91,33.0
2863015,-0.03,-0.05,1.1,-1.59,6.77,-4.39,935.01,33.01
2863054,-0.05,-0.05,1.09,-1.89,6.84,-4.46,934.95,33.01
2863092,-0.04,-0.04,1.11,-1.89,5.98,-4.33,934.94,33.0
2863130,-0.04,-0.05,1.13,-2.2,6.16,-4.33,935.02,33.0
2863168,-0.04,-0.05,1.12,-2.38,5.74,-4.03,935.04,33.01
2863206,-0.04,-0.04,1.15,-2.62,5.31,-3.78,935.0,33.01
2863244,-0.04,-0.04,1.15,-2.69,5.13,-3.72,935.06,33.01
2863282,-0.04,-0.04,1.15,-2.81,4.7,-3.78,934.96,33.01
2863332,-0.04,-0.05,1.15,-3.05,4.46,-3.54,935.02,33.0
2863370,-0.04,-0.05,1.17,-2.81,3.91,-3.42,935.01,33.01
2863408,-0.04,-0.04,1.15,-2.93,3.66,-3.23,935.04,33.02
2863446,-0.03,-0.04,1.17,-3.11,3.42,-3.17,935.04,33.01
2863484,-0.05,-0.05,1.16,-3.17,3.36,-3.17,935.01,33.0
2863522,-0.04,-0.05,1.14,-3.11,3.23,-3.05,935.08,33.0
2863560,-0.03,-0.04,1.18,-2.93,2.62,-2.99,935.08,33.03
2863598,-0.04,-0.05,1.16,-3.17,3.54,-2.87,935.07,33.02
2863637,-0.03,-0.04,1.18,-2.81,2.5,-2.62,935.15,33.02
2863686,-0.04,-0.04,1.17,-2.93,3.05,-2.75,935.12,33.01
2863724,-0.02,-0.04,1.19,-2.87,2.75,-2.56,935.09,33.01
2863763,-0.02,-0.04,1.21,-2.56,2.69,-2.56,935.07,33.01
2863801,-0.02,-0.05,1.2,-2.44,2.5,-2.62,935.12,33.01
2863839,-0.02,-0.04,1.21,-2.14,2.5,-2.69,935.1,33.0
2863877,-0.02,-0.04,1.21,-2.32,2.56,-2.62,935.15,33.0
2863915,-0.02,-0.05,1.18,-2.38,2.44,-2.62,935.14,33.01
2863953,-0.03,-0.04,1.19,-2.01,2.01,-2.44,935.08,33.0
2863991,-0.01,-0.05,1.16,-2.08,2.56,-2.87,935.18,33.01
2864041,-0.01,-0.05,1.19,-1.77,2.14,-2.93,935.14,32.98
2864079,-0.01,-0.05,1.14,-2.08,2.62,-3.05,935.18,33.01
2864117,-0.01,-0.05,1.14,-2.08,2.75,-3.23,935.17,33.0
2864155,-0.0,-0.05,1.11,-1.95,3.72,-3.42,935.2,33.0
2864193,-0.01,-0.05,1.1,-2.14,3.91,-3.6,935.2,33.0
2864231,-0.01,-0.05,1.08,-2.01,4.15,-3.72,935.25,33.02
2864270,-0.01,-0.05,1.07,-2.2,4.58,-3.91,935.22,33.0
2864308,-0.0,-0.06,1.07,-2.08,4.58,-4.03,935.18,33.01
2864346,-0.01,-0.05,1.07,-2.2,4.58,-4.21,935.17,33.01
2864384,-0.02,-0.06,1.07,-2.26,4.39,-4.21,935.21,33.0
2864434,-0.01,-0.05,1.08,-2.14,4.58,-4.39,935.2,32.99
2864472,-0.01,-0.05,1.09,-2.14,4.15,-4.39,935.23,33.01
2864510,-0.02,-0.05,1.11,-2.08,3.6,-4.52,935.28,33.0
2864548,-0.01,-0.05,1.1,-2.08,3.97,-4.52,935.22,33.0
2864586,-0.0,-0.05,1.1,-2.32,3.36,-4.64,935.24,33.0
2864624,-0.02,-0.05,1.11,-2.32,2.81,-4.7,935.24,33.0
2864662,-0.02,-0.06,1.09,-2.26,2.99,-4.52,935.24,33.0
2864700,-0.01,-0.05,1.1,-1.65,2.87,-4.88,935.28,33.0
2864739,-0.02,-0.06,1.07,-1.83,2.99,-4.94,935.23,33.0
2864788,-0.02,-0.05,1.09,-1.46,2.14,-5.0,935.26,33.0
2864826,-0.03,-0.05,1.07,-1.59,2.69,-4.94,935.28,32.99
2864865,-0.02,-0.05,1.11,-1.4,2.38,-5.07,935.3,33.0
2864903,-0.02,-0.06,1.08,-1.83,2.93,-5.07,935.26,33.0
2864941,-0.02,-0.05,1.13,-1.46,2.69,-5.07,935.37,33.0
2864979,-0.01,-0.06,1.1,-1.77,4.46,-5.31,935.28,33.0
2865017,-0.02,-0.04,1.17,-1.46,3.42,-5.43,935.29,33.01
2865055,-0.03,-0.06,1.15,-1.4,6.1,-5.49,935.3,33.0
2865093,-0.01,-0.05,1.11,-1.77,5.74,-5.62,935.37,33.0
2865169,-0.01,-0.06,1.08,-1.77,7.75,-5.68,935.36,32.98
2865207,-0.02,-0.05,1.14,-1.4,6.41,-5.8,935.3,32.98
2865245,-0.01,-0.06,1.15,-1.46,7.93,-5.92,935.28,33.0
2865334,-0.01,-0.04,1.19,-1.89,7.26,-5.92,935.32,32.96
2865372,-0.0,-0.04,1.2,-2.08,6.9,-5.86,935.35,32.97
2865410,-0.0,-0.04,1.24,-2.08,5.92,-6.04,935.33,32.97
2865449,0.01,-0.05,1.25,-2.56,5.55,-6.1,935.32,32.98
2865487,-0.0,-0.05,1.24,-2.38,4.15,-6.23,935.32,32.98
2865525,0.01,-0.05,1.24,-2.32,3.91,-6.16,935.37,32.99
2865563,0.01,-0.05,1.2,-2.26,2.87,-6.53,935.32,32.98
2865613,-0.01,-0.04,1.18,-2.08,1.89,-6.59,935.35,32.98
2865651,-0.01,-0.05,1.12,-2.14,2.26,-6.77,935.38,32.98
2865689,-0.0,-0.05,1.14,-1.83,0.67,-6.9,935.39,32.99
2865727,-0.0,-0.05,1.09,-2.14,0.73,-7.02,935.43,33.0
2865765,0.0,-0.05,1.12,-2.2,-0.31,-7.14,935.38,32.99
2865803,-0.02,-0.06,1.11,-2.08,0.43,-7.14,935.41,32.99
2865841,0.0,-0.06,1.07,-2.44,0.18,-7.2,935.43,33.0
2865879,-0.02,-0.05,1.07,-2.08,-0.61,-7.57,935.42,32.99
2865917,-0.01,-0.06,1.02,-2.81,-0.55,-7.81,935.44,33.0
2865967,-0.01,-0.05,1.04,-2.62,-0.79,-7.75,935.51,32.99
2866005,-0.01,-0.07,1.02,-3.05,-0.55,-7.87,935.48,33.01
2866043,-0.01,-0.07,1.04,-3.3,-0.49,-8.12,935.5,32.99
2866081,-0.01,-0.06,1.01,-3.11,0.67,-8.3,935.48,33.01
2866119,-0.02,-0.06,1.02,-3.3,1.28,-8.61,935.49,33.0
2866157,-0.03,-0.05,1.07,-3.42,0.79,-8.67,935.53,33.0
2866195,-0.04,-0.06,1.06,-3.66,2.32,-8.73,935.55,33.01
2866233,-0.03,-0.07,1.05,-3.72,2.93,-9.03,935.52,33.0
2866271,-0.01,-0.04,1.12,-4.03,2.69,-9.09,935.47,33.01
2866321,-0.06,-0.04,1.15,-4.27,3.85,-8.97,935.55,32.99
2866359,-0.02,-0.02,1.23,-4.52,3.48,-8.97,935.53,32.99
2866397,-0.04,-0.03,1.34,-4.27,3.91,-8.97,935.58,33.02
2866435,-0.02,-0.03,1.32,-4.33,4.09,-9.22,935.53,33.0
2866473,-0.03,-0.01,1.41,-3.66,3.6,-9.03,935.6,33.0
2866511,-0.01,-0.03,1.38,-3.97,5.37,-9.22,935.59,33.0
2866549,-0.04,-0.0,1.39,-3.23,3.48,-9.22,935.59,33.0
2866587,-0.06,-0.01,1.42,-2.38,5.0,-8.97,935.61,33.01
2866626,-0.04,-0.02,1.34,-2.87,6.16,-9.03,935.62,33.01
2866675,-0.06,-0.0,1.46,-1.53,5.13,-9.28,935.62,32.99
2866713,-0.03,-0.02,1.39,-2.14,6.04,-9.4,935.62,33.0
2866751,-0.02,-0.02,1.39,-1.71,6.29,-9.28,935.63,33.01
2866790,-0.04,-0.02,1.31,-1.28,6.84,-9.22,935.61,33.01
2866828,-0.04,-0.02,1.31,-0.79,7.2,-9.28,935.62,33.01
2866866,-0.06,-0.03,1.26,-0.67,7.32,-9.22,935.64,33.01
2866904,-0.05,-0.02,1.31,-0.61,6.23,-9.09,935.65,33.01
2866942,-0.06,-0.02,1.25,-1.4,6.71,-8.97,935.63,33.01
2866980,-0.03,-0.02,1.3,-1.34,6.47,-8.85,935.57,33.0
2867018,-0.05,-0.04,1.26,-1.95,8.12,-8.67,935.64,33.01
2867068,-0.06,-0.02,1.28,-2.69,5.92,-8.42,935.61,33.0
2867106,-0.07,-0.04,1.22,-2.69,7.75,-8.3,935.63,32.99
2867144,-0.06,-0.03,1.21,-3.54,6.04,-8.18,935.66,33.0
2867182,-0.04,-0.02,1.28,-4.27,5.55,-8.24,935.61,33.0
2867221,-0.07,-0.04,1.22,-4.76,6.23,-7.87,935.63,32.99
2867259,-0.03,-0.03,1.25,-4.94,4.46,-7.45,935.62,33.0
2867297,-0.05,-0.04,1.24,-5.19,5.43,-7.51,935.61,33.0
2867335,-0.07,-0.03,1.24,-5.07,4.27,-7.39,935.61,33.0
2867373,-0.06,-0.05,1.22,-5.8,4.46,-7.14,935.59,33.0
2867423,-0.05,-0.04,1.29,-5.49,2.69,-7.02,935.58,33.01
2867461,-0.07,-0.05,1.24,-5.8,2.93,-6.9,935.61,33.01
2867499,-0.04,-0.03,1.33,-5.86,2.44,-6.53,935.56,33.0
2867537,-0.05,-0.03,1.3,-6.29,3.36,-6.65,935.64,33.0
2867575,-0.08,-0.03,1.41,-6.04,1.95,-6.65,935.54,33.0
2867613,-0.04,-0.05,1.43,-6.71,4.64,-6.77,935.56,32.99
2867652,-0.03,-0.02,1.52,-7.02,3.72,-6.96,935.59,32.99
2867690,-0.07,-0.02,1.54,-7.2,5.49,-6.96,935.56,33.0
2867728,-0.04,-0.0,1.57,-7.69,6.77,-7.08,935.57,33.0
2867778,-0.05,-0.02,1.62,-7.75,7.45,-7.14,935.56,32.98
2867816,-0.07,-0.02,1.61,-7.08,7.81,-7.26,935.6,32.98
2867854,-0.08,0.01,1.6,-6.59,7.32,-7.45,935.61,33.01
2867892,-0.07,0.01,1.61,-6.29,7.57,-7.26,935.59,32.99
2867930,-0.03,-0.0,1.59,-6.1,6.84,-7.08,935.6,32.99
2867968,-0.06,-0.02,1.56,-5.62,5.19,-6.84,935.61,33.01
2868006,-0.07,-0.02,1.51,-5.62,5.8,-6.77,935.6,33.01
2868044,-0.05,-0.01,1.5,-5.37,4.52,-6.84,935.51,33.0
2868083,-0.06,-0.01,1.48,-5.19,4.03,-6.53,935.56,33.01
2868121,-0.05,-0.01,1.48,-5.19,1.77,-6.41,935.57,33.0
2868196,-0.05,-0.03,1.43,-5.68,1.65,-6.1,935.56,32.98
2868235,-0.06,-0.02,1.48,-5.37,0.79,-6.1,935.5,32.98
2868273,-0.06,-0.04,1.36,-5.8,2.32,-6.04,935.53,32.98
2868362,-0.06,-0.04,1.3,-7.02,1.04,-5.86,935.54,32.95
2868400,-0.05,-0.03,1.35,-6.77,0.12,-6.23,935.52,32.96
2868438,-0.06,-0.01,1.36,-7.2,1.77,-6.23,935.45,32.97
2868476,-0.06,-0.01,1.4,-7.14,1.4,-6.04,935.46,32.96
2868515,-0.06,-0.04,1.39,-7.51,3.23,-6.35,935.43,32.97
2868553,-0.05,-0.01,1.51,-7.14,2.81,-6.35,935.52,32.97
2868602,-0.06,-0.02,1.52,-6.71,5.43,-6.29,935.51,32.97
2868641,-0.06,-0.0,1.49,-6.1,3.91,-6.65,935.44,32.97
2868679,-0.08,0.0,1.5,-5.0,4.15,-6.47,935.53,32.97
2868717,-0.05,0.0,1.5,-4.64,5.13,-5.98,935.48,32.98
2868755,-0.03,0.01,1.59,-3.54,3.48,-5.92,935.48,32.98
2868793,-0.08,-0.02,1.54,-2.5,4.03,-5.92,935.42,32.98
2868831,-0.07,-0.02,1.45,-1.95,3.66,-5.55,935.46,32.97
2868869,-0.04,-0.01,1.5,-1.53,2.26,-5.55,935.53,32.98
2868907,-0.06,-0.04,1.38,-1.22,2.2,-5.43,935.44,32.98
2868957,-0.07,-0.04,1.3,-0.61,0.85,-5.13,935.45,32.96
2868995,-0.05,-0.04,1.27,-0.49,0.92,-4.94,935.48,32.97
2869033,-0.03,-0.04,1.21,-0.92,-0.31,-5.0,935.44,32.98
2869072,-0.05,-0.05,1.21,-0.61,-0.18,-5.07,935.38,32.98
2869110,-0.05,-0.07,1.14,-0.73,0.55,-5.07,935.4,32.98
2869148,-0.05,-0.05,1.15,-0.37,-0.37,-5.19,935.41,32.98
2869186,-0.05,-0.05,1.09,-0.73,0.12,-5.13,935.35,32.96
2869224,-0.06,-0.06,1.03,-0.98,0.49,-5.19,935.4,32.99
2869262,-0.04,-0.07,1.08,-0.98,-0.73,-5.19,935.35,32.99
2869300,-0.04,-0.07,1.03,-1.34,0.12,-5.19,935.38,32.98
2869350,-0.04,-0.06,1.05,-1.22,-0.06,-5.19,935.35,32.97
2869388,-0.04,-0.06,1.03,-1.53,0.37,-5.25,935.33,32.98
2869426,-0.05,-0.06,1.03,-1.46,0.0,-5.19,935.3,32.98
2869464,-0.05,-0.06,1.05,-1.34,-0.12,-5.25,935.33,32.99
2869503,-0.04,-0.07,1.03,-1.77,0.12,-5.19,935.24,32.98
2869541,-0.04,-0.05,1.05,-1.53,-0.31,-5.25,935.28,32.98
2869579,-0.04,-0.06,1.01,-1.95,0.31,-5.13,935.34,32.99
2869617,-0.05,-0.06,1.03,-1.53,-0.43,-5.19,935.29,33.0
2869655,-0.05,-0.07,1.01,-1.65,0.06,-5.19,935.25,32.98
2869705,-0.04,-0.05,1.04,-1.28,0.31,-5.19,935.25,32.97
2869743,-0.04,-0.05,1.03,-1.04,0.85,-5.19,935.2,32.97
2869781,-0.06,-0.05,1.02,-0.92,0.67,-5.25,935.26,32.99
2869819,-0.06,-0.06,1.02,-0.85,1.83,-5.19,935.23,32.98
2869857,-0.05,-0.06,1.03,-0.43,2.38,-5.13,935.22,32.98
2869895,-0.05,-0.05,1.05,15.44,2.56,-5.13,935.18,32.99
2869933,-0.04,-0.05,1.03,-0.06,3.54,-5.19,935.19,32.99
2869972,-0.05,-0.05,1.04,0.49,4.15,-5.07,935.19,32.98
2870010,-0.06,-0.05,1.04,0.55,4.94,-5.07,935.22,33.0
2870059,-0.07,-0.05,1.03,0.61,5.62,-5.0,935.13,32.97
2870098,-0.04,-0.05,1.04,0.55,5.92,-5.13,935.13,32.98
2870136,-0.04,-0.05,1.08,0.55,5.98,-5.13,935.1,32.98
2870174,-0.05,-0.05,1.12,0.31,6.9,-4.88,935.14,32.96
2870212,-0.05,-0.05,1.11,0.67,7.14,-4.94,935.1,32.98
2870250,-0.05,-0.05,1.11,0.85,7.39,-5.0,935.13,33.0
2870288,-0.05,-0.03,1.12,0.92,6.9,-4.7,935.07,32.98
2870326,-0.05,-0.05,1.1,0.98,6.71,-4.76,935.07,32.98
2870364,-0.06,-0.05,1.11,1.28,5.8,-4.58,935.06,33.0
2870403,-0.04,-0.06,1.1,1.46,5.68,-4.33,934.98,32.99
2870452,-0.04,-0.04,1.09,1.95,3.54,-4.46,935.04,32.98
2870490,-0.05,-0.04,1.06,1.71,3.72,-4.27,934.95,32.97
2870529,-0.05,-0.05,1.12,2.14,3.23,-4.27,934.89,32.99
2870567,-0.05,-0.03,1.2,2.26,2.93,-4.58,934.89,32.99
2870605,-0.06,-0.03,1.26,2.01,4.58,-4.58,934.84,32.98
2870643,-0.07,-0.04,1.29,2.26,6.84,-4.88,934.82,32.97
2870681,-0.05,-0.01,1.38,2.08,5.55,-4.82,934.82,32.99
2870719,-0.09,-0.02,1.44,3.11,7.32,-4.7,934.83,32.98
2870757,-0.07,-0.03,1.3,2.14,7.02,-4.21,934.75,32.98
2870807,-0.07,-0.01,1.34,2.93,5.43,-4.09,934.8,32.98
2870845,-0.09,-0.04,1.17,2.44,5.07,-3.78,934.76,32.98
2870883,-0.07,-0.01,1.24,3.36,2.75,-3.54,934.73,32.99
2870921,-0.04,-0.07,1.15,2.87,4.46,-3.3,934.69,32.98
2870959,-0.07,-0.06,1.09,2.62,2.32,-3.11,934.75,32.99
2870998,-0.09,-0.03,1.06,2.87,1.59,-2.93,934.68,32.98
2871036,-0.08,-0.05,0.99,2.32,1.77,-2.81,934.7,33.0
2871074,-0.07,-0.05,0.97,2.26,1.4,-2.81,934.69,32.99
2871112,-0.08,-0.05,0.95,2.14,1.77,-2.38,934.64,32.98
2871150,-0.06,-0.06,0.97,2.2,2.08,-2.5,934.68,33.0
2871226,-0.07,-0.05,0.98,2.08,2.5,-2.2,934.74,32.97
2871264,-0.06,-0.07,0.93,1.95,3.42,-2.08,934.76,32.98
2871302,-0.05,-0.05,0.93,1.89,2.32,-2.26,934.71,32.97
2871391,-0.03,-0.06,0.91,2.01,1.28,-2.01,934.69,32.94
2871430,-0.04,-0.06,0.89,1.89,1.4,-2.14,934.62,32.96
2871468,-0.04,-0.07,0.87,1.34,0.98,-2.14,934.67,32.96
2871506,-0.05,-0.06,0.93,1.53,0.49,-1.95,934.66,32.97
2871544,-0.04,-0.06,0.88,0.24,0.73,-2.14,934.65,32.98
2871582,-0.06,-0.04,0.92,0.73,-0.67,-2.26,934.61,32.98
2871632,-0.02,-0.06,0.92,0.18,-0.67,-2.38,934.55,32.96
2871670,-0.03,-0.06,0.95,-0.06,-1.89,-2.56,934.61,32.98
2871708,-0.05,-0.05,0.94,0.0,-2.2,-2.38,934.58,32.98
2871746,-0.07,-0.05,0.95,-0.43,-2.81,-2.32,934.56,32.99
2871784,-0.05,-0.05,0.98,-0.49,-3.3,-2.38,934.55,32.98
2871822,-0.05,-0.06,0.97,-0.79,-3.72,-2.56,934.56,32.98
2871861,-0.06,-0.06,0.96,-0.92,-3.97,-2.56,934.52,32.98
2871899,-0.05,-0.05,0.98,-0.79,-4.52,-2.38,934.53,32.99
2871937,-0.05,-0.06,0.96,-0.98,-4.21,-2.62,934.46,32.98
2871987,-0.04,-0.05,0.95,-0.85,-4.7,-2.32,934.5,32.96
2872025,-0.07,-0.05,0.94,-1.04,-5.07,-2.38,934.52,32.98
2872063,-0.04,-0.05,0.97,-0.92,-4.88,-2.69,934.56,32.99
2872101,-0.04,-0.05,0.94,-1.04,-4.64,-2.56,934.54,32.99
2872139,-0.05,-0.04,1.01,-0.49,-5.31,-2.62,934.49,32.98
2872177,-0.05,-0.06,0.98,-0.73,-4.15,-2.62,934.53,32.99
2872215,-0.05,-0.04,1.04,-0.37,-5.49,-2.62,934.52,32.99
2872254,-0.06,-0.05,1.04,-0.61,-4.52,-2.62,934.48,32.98
2872292,-0.05,-0.05,1.08,-0.85,-4.76,-2.62,934.5,33.0
2872341,-0.05,-0.05,1.11,-0.49,-3.11,-2.87,934.45,32.98
2872380,-0.05,-0.04,1.14,-0.37,-3.36,-2.87,934.47,32.98
2872418,-0.06,-0.04,1.18,-0.06,-1.77,-2.81,934.48,32.99
2872456,-0.06,-0.04,1.15,0.0,-0.85,-2.99,934.5,32.99
2872494,-0.06,-0.04,1.2,0.67,-0.79,-2.93,934.47,32.99
2872532,-0.06,-0.04,1.18,0.61,-0.61,-2.56,934.48,32.99
2872570,-0.05,-0.04,1.2,0.67,-1.22,-2.5,934.5,32.99
2872608,-0.05,-0.04,1.15,0.06,-0.67,-2.32,934.42,32.99
2872646,-0.05,-0.04,1.17,0.49,-1.28,-2.14,934.41,33.0
2872685,-0.05,-0.07,1.13,0.12,-0.49,-2.14,934.39,32.98
2872734,-0.07,-0.05,1.1,0.49,-1.53,-2.01,934.37,32.98
2872772,-0.05,-0.05,1.1,0.43,-0.67,-1.83,934.44,33.0
2872811,-0.06,-0.05,1.08,0.55,-1.1,-1.89,934.4,32.98
2872849,-0.07,-0.05,1.04,0.61,-0.73,-1.77,934.38,32.99
2872887,-0.05,-0.06,1.05,0.85,0.92,-1.83,934.41,32.99
2872925,-0.06,-0.05,1.04,0.73,1.22,-1.77,934.35,32.99
2872963,-0.08,-0.04,1.03,0.98,3.11,-1.59,934.43,33.0
2873001,-0.06,-0.05,1.04,1.1,4.46,-1.59,934.39,33.0
2873039,-0.05,-0.05,1.03,1.34,6.23,-1.77,934.42,33.0
2873089,-0.06,-0.05,1.0,1.71,7.63,-1.46,934.43,32.98
2873127,-0.06,-0.05,0.99,2.01,8.97,-1.53,934.42,32.99
2873165,-0.03,-0.06,0.95,1.77,10.44,-1.4,934.39,32.99
2873204,-0.04,-0.06,0.95,1.71,10.01,-1.28,934.38,32.99
2873242,-0.04,-0.06,0.89,1.28,10.19,-1.16,934.32,32.98
2873280,-0.04,-0.06,0.89,0.79,8.79,-1.34,934.32,32.98
2873318,-0.03,-0.06,0.87,0.73,8.91,-1.28,934.29,32.99
2873356,-0.03,-0.07,0.84,0.12,8.18,-1.22,934.26,32.98
2873394,-0.03,-0.06,0.89,0.43,7.2,-1.22,934.27,32.99
2873432,-0.03,-0.07,0.87,-0.06,7.39,-1.16,934.28,32.99
2873482,-0.04,-0.06,0.88,0.37,7.02,-1.28,934.26,32.96
2873520,-0.04,-0.05,0.88,0.18,6.65,-1.22,934.28,32.99
2873558,-0.05,-0.06,0.92,0.67,6.53,-1.1,934.31,33.0
2873596,-0.01,-0.06,0.93,0.98,6.84,-1.28,934.24,32.98
2873634,-0.02,-0.05,0.98,1.46,6.53,-1.34,934.3,32.99
2873672,-0.02,-0.05,0.98,1.95,7.2,-1.34,934.26,32.99
2873711,-0.03,-0.05,0.96,2.26,6.9,-1.46,934.26,32.99
2873749,-0.04,-0.06,0.9,2.56,6.23,-1.28,934.3,32.98
2873787,-0.02,-0.06,0.9,2.99,5.49,-1.46,934.2,32.98
2873837,-0.03,-0.06,0.89,3.66,4.39,-1.28,934.24,32.97
2873875,0.01,-0.07,0.85,3.6,3.42,-1.53,934.21,32.98
2873913,-0.03,-0.06,0.86,3.66,2.93,-1.46,934.18,32.99
2873951,-0.03,-0.06,0.82,3.54,2.81,-1.4,934.21,32.99
2873989,-0.03,-0.07,0.88,3.85,1.53,-1.59,934.22,33.0
2874027,-0.01,-0.08,0.84,3.11,2.5,-1.89,934.19,32.99
2874065,-0.02,-0.05,0.89,3.3,0.49,-1.77,934.15,32.98
2874104,-0.02,-0.07,0.81,2.62,2.01,-1.83,934.17,33.0
2874142,-0.01,-0.06,0.79,2.56,0.0,-2.01,934.18,33.0
2874180,-0.02,-0.05,0.79,2.14,1.53,-2.08,934.09,32.98
2874255,-0.03,-0.06,0.85,1.04,1.65,-2.2,934.12,32.96
2874294,-0.02,-0.07,0.84,-0.24,2.5,-2.32,934.12,32.97
2874332,-0.01,-0.06,0.89,-0.37,2.81,-2.26,934.19,32.98
2874421,-0.04,-0.05,0.91,-0.37,4.33,-2.62,934.21,32.95
2874459,-0.02,-0.05,0.96,-0.06,5.07,-2.62,934.25,32.96
2874497,-0.02,-0.06,0.97,0.06,5.8,-2.69,934.2,32.96
2874536,-0.02,-0.06,0.98,0.73,7.14,-2.99,934.26,32.97
2874574,-0.01,-0.05,1.01,1.16,7.63,-2.93,934.3,32.96
2874612,0.0,-0.05,0.99,1.71,8.79,-2.75,934.26,32.96
2874662,0.0,-0.05,0.98,2.44,7.57,-2.87,934.3,32.97
2874700,-0.02,-0.05,0.94,2.75,8.3,-2.62,934.26,32.98
2874738,-0.01,-0.07,0.93,3.54,8.12,-2.69,934.23,32.98
2874776,-0.01,-0.06,0.9,3.72,8.48,-2.87,934.24,32.98
2874814,-0.02,-0.06,0.92,4.27,8.12,-2.93,934.22,32.98
2874852,0.0,-0.06,0.89,4.09,9.46,-2.81,934.15,32.97
2874890,0.0,-0.06,0.93,4.39,9.58,-3.11,934.21,32.97
2874929,-0.01,-0.06,0.91,4.27,10.56,-2.99,934.28,32.99
2874967,-0.01,-0.06,0.91,4.52,9.89,-2.75,934.22,32.98
2875017,-0.0,-0.06,0.87,4.03,11.11,-2.99,934.22,32.97
2875055,0.02,-0.05,0.9,3.85,9.83,-2.99,934.17,32.98
2875093,-0.01,-0.07,0.86,3.66,9.89,-2.99,934.14,32.98
2875131,0.02,-0.07,0.88,3.85,9.64,-3.05,934.17,32.99
2875169,0.03,-0.07,0.97,4.21,8.91,-3.17,934.15,32.99
2875207,-0.01,-0.05,0.83,2.99,10.62,-2.99,934.19,32.99
2875245,-0.01,-0.05,0.97,3.78,8.3,-3.11,934.17,33.0
2875283,0.0,-0.09,0.9,2.2,9.95,-3.36,934.15,32.98
2875322,-0.0,-0.07,0.94,2.5,7.08,-3.36,934.16,32.99
2875360,0.0,-0.07,0.92,1.71,9.89,-3.3,934.19,32.98
2875409,0.01,-0.05,0.91,1.77,9.22,-3.6,934.17,32.98
2875448,-0.01,-0.06,0.92,1.71,10.93,-3.48,934.18,32.99
2875486,-0.01,-0.08,0.9,1.65,10.13,-3.6,934.23,32.99
2875524,-0.01,-0.07,0.93,1.16,11.23,-3.78,934.24,32.99
2875562,-0.0,-0.06,0.91,1.4,11.66,-3.78,934.23,32.99
2875600,-0.0,-0.07,0.96,1.28,12.21,-4.03,934.23,33.0
2875638,0.01,-0.08,0.9,0.73,13.37,-3.97,934.21,32.99
2875676,0.01,-0.06,0.94,0.85,12.88,-4.03,934.26,33.0
2875714,-0.01,-0.06,0.94,0.37,12.7,-3.72,934.22,33.0
2875764,0.01,-0.07,0.93,-0.18,11.78,-3.97,934.2,32.98
2875802,-0.02,-0.07,0.94,-0.55,10.86,-4.09,934.19,32.98
2875840,0.02,-0.08,0.95,-1.34,10.38,-4.03,934.21,32.98
2875878,0.01,-0.07,1.0,-2.08,8.3,-4.15,934.19,33.0
2875917,-0.01,-0.06,1.04,-2.56,7.14,-4.03,934.23,32.99
2875955,-0.01,-0.07,1.04,-3.6,6.41,-3.97,934.26,32.99
2875993,-0.02,-0.06,1.07,-3.72,6.1,-4.33,934.21,32.99
2876031,-0.01,-0.06,1.12,-3.85,6.29,-4.58,934.24,32.99
2876069,-0.0,-0.06,1.13,-4.15,6.96,-4.7,934.27,33.01
2876107,-0.0,-0.06,1.14,-4.09,6.59,-4.76,934.3,32.98
2876157,-0.01,-0.06,1.1,-4.15,7.63,-4.76,934.26,32.98
2876195,-0.01,-0.06,1.13,-4.03,7.14,-4.94,934.25,32.99
2876233,-0.0,-0.05,1.05,-4.46,7.75,-4.64,934.24,33.0
2876271,-0.01,-0.04,1.11,-3.91,4.82,-4.88,934.23,32.99
2876309,0.01,-0.07,1.06,-4.64,7.02,-5.25,934.21,33.0
2876348,0.02,-0.05,1.13,-4.82,5.13,-5.37,934.18,32.98
2876386,0.0,-0.06,1.21,-4.46,3.42,-5.37,934.14,32.98
2876424,-0.01,-0.06,1.1,-5.55,3.48,-5.43,934.19,33.01
2876462,-0.04,-0.02,1.2,-4.21,2.32,-5.49,934.22,32.99
2876512,0.01,-0.07,1.09,-4.7,4.82,-5.8,934.23,32.98
2876550,-0.03,-0.04,1.14,-3.91,2.56,-6.29,934.23,32.99
2876588,-0.02,-0.05,1.09,-3.72,4.21,-6.23,934.23,32.99
2876626,-0.0,-0.04,1.16,-3.78,3.42,-6.71,934.23,32.99
2876664,-0.02,-0.04,1.17,-3.48,4.88,-6.77,934.24,32.98
2876702,-0.01,-0.05,1.16,-3.72,3.72,-6.71,934.22,32.98
2876740,-0.04,-0.04,1.21,-2.87,3.66,-7.02,934.23,32.99
2876779,-0.02,-0.05,1.17,-2.93,3.54,-7.02,934.19,32.98
2876817,-0.02,-0.03,1.17,-2.38,2.93,-7.26,934.25,33.0
2876866,-0.02,-0.04,1.13,-2.01,2.87,-7.26,934.23,32.98
2876905,-0.04,-0.04,1.14,-1.53,2.44,-7.26,934.25,32.99
2876943,-0.03,-0.04,1.16,-1.4,2.56,-7.51,934.26,32.98
2876981,-0.05,-0.04,1.16,-1.53,2.38,-7.51,934.28,33.0
2877019,-0.04,-0.04,1.15,-1.28,2.75,-7.63,934.26,32.99
2877057,-0.04,-0.04,1.1,-1.22,2.38,-7.51,934.27,32.98
2877095,-0.05,-0.03,1.1,-1.1,2.69,-8.0,934.26,33.0
2877133,-0.05,-0.04,1.13,-0.98,3.72,-7.75,934.24,32.99
2877171,-0.03,-0.04,1.13,-1.28,3.66,-7.81,934.27,32.99
2877210,-0.06,-0.03,1.19,-1.04,3.11,-7.81,934.25,32.98
2877285,-0.04,-0.03,1.12,-1.22,4.15,-7.93,934.26,32.96
2877323,-0.04,-0.03,1.11,-0.92,3.6,-7.81,934.29,32.98
2877362,-0.06,-0.05,1.06,-1.04,3.48,-7.57,934.27,32.98
2877451,-0.05,-0.04,1.03,-1.22,2.38,-7.26,934.24,32.94
2877489,-0.06,-0.04,1.03,-1.59,0.67,-7.2,934.28,32.95
2877527,-0.06,-0.04,1.06,-1.28,0.06,-7.39,934.22,32.96
2877565,-0.05,-0.05,1.03,-1.65,0.49,-7.08,934.28,32.96
2877603,-0.04,-0.03,1.08,-1.77,-0.79,-7.02,934.3,32.99
2877642,-0.05,-0.03,1.07,-2.14,-0.98,-6.9,934.26,32.98
2877691,-0.07,-0.02,1.19,-1.46,-1.83,-6.96,934.3,32.96
2877729,-0.06,-0.03,1.17,-2.2,0.12,-6.84,934.31,32.98
2877768,-0.05,-0.02,1.22,-1.28,0.0,-6.59,934.36,32.96
2877806,-0.04,-0.02,1.18,-1.4,0.55,-6.71,934.29,32.97
2877844,-0.07,-0.02,1.17,-1.16,1.04,-6.35,934.39,32.98
2877882,-0.06,-0.01,1.21,-1.16,1.04,-6.35,934.34,32.98
2877920,-0.06,-0.02,1.21,-0.79,1.59,-6.41,934.41,32.98
2877958,-0.06,-0.02,1.21,-0.06,1.53,-6.29,934.42,32.98
2877996,-0.06,-0.02,1.23,0.79,2.69,-6.04,934.38,32.98
2878046,-0.04,-0.03,1.23,1.71,3.72,-6.23,934.42,32.97
2878084,-0.05,-0.02,1.2,2.87,2.81,-5.8,934.46,32.98
2878122,-0.06,-0.04,1.11,3.23,3.72,-5.62,934.37,32.97
2878160,-0.06,-0.04,1.03,3.6,3.6,-5.74,934.39,32.96
2878199,-0.06,-0.04,1.01,3.97,3.3,-5.55,934.37,32.98
2878237,-0.04,-0.04,1.01,3.97,2.81,-5.31,934.4,32.98
2878275,-0.06,-0.05,0.97,3.48,3.23,-5.07,934.34,32.98
2878313,-0.06,-0.05,0.95,2.87,2.56,-4.88,934.33,32.98
2878351,-0.06,-0.06,0.98,2.5,2.14,-4.82,934.35,32.98
2878389,-0.06,-0.06,0.96,1.28,2.2,-4.52,934.34,32.98
2878439,-0.06,-0.05,0.99,0.92,2.44,-4.46,934.33,32.98
2878477,-0.07,-0.05,0.97,0.55,3.23,-4.27,934.41,32.98
2878515,-0.04,-0.05,1.02,-0.12,3.54,-4.09,934.36,32.97
2878553,-0.04,-0.05,1.02,-0.85,5.25,-4.21,934.4,32.98
2878591,-0.08,-0.04,1.11,-0.79,5.62,-4.33,934.4,32.99
2878629,-0.06,-0.05,1.15,-1.4,7.45,-4.15,934.35,32.98
2878668,-0.04,-0.04,1.23,-1.65,8.36,-4.33,934.44,32.99
2878706,-0.07,-0.03,1.24,-1.16,9.7,-4.27,934.39,32.99
2878744,-0.06,-0.03,1.19,-1.1,10.19,-4.03,934.43,32.99
2878794,-0.05,-0.03,1.24,-0.61,10.38,-4.27,934.4,32.97
2878832,-0.08,-0.02,1.2,-0.55,9.4,-3.72,934.34,32.97
2878870,-0.09,-0.02,1.26,0.18,8.3,-3.48,934.33,32.97
2878908,-0.08,-0.05,1.18,-0.24,9.7,-3.42,934.27,32.96
2878946,-0.06,-0.02,1.27,0.73,6.77,-3.36,934.28,32.98
2878984,-0.08,-0.04,1.21,0.49,8.12,-2.75,934.35,32.98
2879022,-0.07,-0.04,1.2,0.73,6.84,-2.56,934.34,32.99
2879060,-0.09,-0.03,1.22,0.98,7.14,-2.44,934.27,32.99
2879099,-0.07,-0.02,1.2,0.73,6.47,-2.01,934.31,32.98
2879148,-0.08,-0.03,1.19,0.43,6.23,-1.77,934.36,32.98
2879186,-0.07,-0.04,1.22,0.92,5.25,-1.53,934.31,32.97
2879225,-0.04,-0.04,1.19,0.92,4.33,-1.4,934.3,32.98
2879263,-0.03,-0.03,1.18,0.98,3.6,-1.28,934.34,32.99
2879301,-0.05,-0.04,1.11,0.55,3.3,-1.04,934.37,32.99
2879339,-0.06,-0.04,1.09,0.73,2.01,-0.92,934.33,32.98
2879377,-0.05,-0.06,1.08,0.79,1.65,-0.92,934.35,32.98
2879415,-0.04,-0.06,1.05,0.12,0.55,-0.85,934.33,32.97
2879453,-0.05,-0.05,1.03,0.24,-0.85,-0.79,934.35,32.98
2879491,-0.03,-0.05,1.03,0.0,-1.71,-0.67,934.37,32.98
2879541,-0.03,-0.06,1.01,-0.12,-1.65,-0.61,934.42,32.97
2879579,-0.02,-0.05,1.03,-0.06,-2.93,-0.43,934.41,32.98
2879617,-0.02,-0.06,1.02,-0.43,-2.5,-0.61,934.43,32.98
2879655,-0.02,-0.06,0.96,-0.49,-2.69,-0.67,934.39,32.97
2879693,-0.02,-0.05,0.98,-0.24,-4.46,-0.67,934.39,32.97
2879731,-0.01,-0.07,0.91,-0.85,-4.09,-0.61,934.49,32.98
2879770,-0.02,-0.06,0.97,-0.55,-5.37,-0.73,934.42,32.98
2879808,-0.02,-0.07,0.89,-1.22,-4.03,-0.85,934.39,32.97
2879846,-0.02,-0.07,0.95,-0.92,-5.43,-1.04,934.39,32.97
2879896,-0.01,-0.08,0.88,-1.46,-1.77,-1.4,934.47,32.98
2879934,-0.01,-0.06,0.96,-0.79,-1.77,-1.59,934.47,32.97
2879972,-0.02,-0.07,0.93,-1.04,-0.37,-1.71,934.47,32.96
2880010,-0.02,-0.07,0.96,-1.22,0.49,-1.95,934.52,32.97
2880048,-0.03,-0.06,0.96,-1.04,1.53,-2.01,934.57,32.97
2880086,-0.02,-0.07,0.99,-0.85,2.2,-2.2,934.58,32.97
2880124,-0.03,-0.06,0.98,-1.34,2.5,-2.38,934.53,32.98
2880162,-0.02,-0.06,1.04,-0.79,2.2,-2.38,934.61,32.98
2880201,-0.02,-0.07,1.01,-0.92,2.2,-2.2,934.55,32.98
2880278,-0.05,-0.06,0.96,0.24,2.38,-2.2,934.61,32.96
2880316,-0.05,-0.06,0.98,0.49,2.26,-2.14,934.61,32.97
2880354,-0.03,-0.06,0.96,1.04,2.69,-2.01,934.66,32.97
2880443,-0.04,-0.07,0.94,2.5,4.82,-2.01,934.58,32.94
2880481,-0.04,-0.07,0.89,2.32,7.45,-2.01,934.58,32.95
2880519,-0.04,-0.06,0.94,2.62,8.18,-1.83,934.55,32.95
2880558,-0.05,-0.07,0.93,2.62,10.07,-1.83,934.58,32.96
2880596,-0.04,-0.08,0.9,2.38,10.93,-1.89,934.54,32.95
2880634,-0.02,-0.06,0.94,2.44,10.86,-1.77,934.51,32.95
2880672,-0.01,-0.07,0.91,2.26,10.68,-1.4,934.59,32.96
2880722,-0.03,-0.07,0.91,2.87,10.44,-1.1,934.54,32.96
2880760,-0.02,-0.08,0.88,2.5,10.68,-1.22,934.57,32.96
2880798,-0.03,-0.06,0.94,2.38,8.85,-0.85,934.51,32.96
2880836,-0.03,-0.08,0.93,1.89,10.13,-0.73,934.57,32.96
2880874,-0.02,-0.07,0.98,1.89,10.19,-0.92,934.54,32.96
2880912,-0.0,-0.06,1.02,1.71,11.17,-0.67,934.55,32.96
2880950,0.01,-0.07,1.07,1.95,11.6,-0.67,934.57,32.97
2880988,-0.03,-0.06,1.02,2.2,13.73,-0.67,934.63,32.97
2881027,-0.02,-0.06,1.06,3.05,13.92,-0.43,934.55,32.97
2881076,0.01,-0.07,0.99,2.99,15.08,-0.61,934.6,32.97
2881114,0.0,-0.05,1.03,3.66,13.31,-0.73,934.59,32.96
2881153,0.01,-0.09,0.99,3.85,15.56,-0.43,934.51,32.96
2881191,0.03,-0.07,0.94,3.6,15.56,-0.73,934.56,32.97
2881229,0.03,-0.07,1.0,4.27,15.08,-0.73,934.53,32.97
2881267,0.01,-0.08,0.91,3.48,17.94,-0.55,934.57,32.97
2881305,0.02,-0.07,0.95,4.27,16.72,-0.79,934.55,32.98
2881343,0.04,-0.08,0.93,3.36,17.33,-1.04,934.57,32.97
2881381,0.02,-0.06,0.91,3.11,15.81,-1.04,934.54,32.98
2881419,0.03,-0.07,0.92,2.26,15.2,-0.98,934.58,32.98
2881469,0.06,-0.08,0.87,0.92,14.1,-1.28,934.49,32.96
2881507,0.07,-0.06,0.95,-0.18,11.66,-1.22,934.54,32.98
2881545,0.07,-0.08,1.03,-1.28,8.91,-1.4,934.5,32.97
2881584,0.01,-0.08,1.03,-1.77,6.23,-1.71,934.53,32.98
2881622,0.05,-0.08,1.03,-3.36,4.64,-1.83,934.54,32.97
2881660,0.07,-0.08,1.05,-4.21,3.05,-2.38,934.57,32.98
2881698,0.05,-0.08,0.99,-5.0,3.3,-2.75,934.58,32.97
2881736,0.05,-0.08,1.05,-4.58,2.56,-3.3,934.65,32.98
2881774,0.03,-0.09,0.97,-5.13,5.13,-3.78,934.61,32.98
2881824,0.03,-0.08,1.01,-4.39,3.42,-4.21,934.66,32.97
2881862,0.04,-0.09,1.06,-4.94,3.3,-4.64,934.61,32.97
2881900,0.04,-0.09,1.06,-5.31,3.23,-5.25,934.61,32.97
2881938,0.06,-0.06,1.12,-5.25,1.71,-5.25,934.6,32.97
2881977,0.04,-0.07,1.23,-5.37,1.53,-5.8,934.55,32.97
2882015,0.02,-0.08,1.25,-6.23,1.89,-6.16,934.62,32.96
2882053,0.02,-0.06,1.39,-6.16,1.16,-6.47,934.66,32.97
2882091,0.03,-0.06,1.4,-6.53,2.93,-7.02,934.67,32.97
2882129,0.01,-0.06,1.39,-6.04,2.69,-7.39,934.68,32.97
2882167,0.02,-0.05,1.48,-5.74,2.87,-7.81,934.75,32.99
2882217,0.02,-0.05,1.49,-5.98,2.5,-8.06,934.71,32.97
2882255,-0.0,-0.05,1.49,-5.8,2.56,-8.06,934.73,32.98
2882293,0.0,-0.03,1.54,-5.31,1.4,-8.48,934.77,32.97
2882331,0.01,-0.05,1.51,-5.37,2.93,-8.61,934.8,32.98
2882369,-0.01,-0.04,1.53,-3.85,1.77,-8.73,934.82,32.98
2882407,-0.03,-0.05,1.5,-3.05,2.32,-8.67,934.8,32.97
2882446,-0.04,-0.04,1.46,-2.08,1.83,-9.16,934.75,32.99
2882484,-0.02,-0.04,1.49,-1.59,1.1,-8.91,934.69,32.98
2882522,-0.04,-0.05,1.42,-1.83,1.65,-9.09,934.69,32.97
2882572,-0.06,-0.04,1.41,-0.79,1.16,-9.09,934.71,32.98
2882610,-0.05,-0.06,1.36,-1.04,1.77,-9.03,934.69,32.98
2882648,-0.03,-0.05,1.41,-0.67,0.73,-9.4,934.72,32.98
2882686,-0.02,-0.04,1.41,-1.1,1.53,-9.22,934.75,32.98
2882724,-0.07,-0.05,1.32,-0.55,0.73,-8.91,934.75,32.98
2882762,-0.04,-0.08,1.23,-0.06,2.5,-9.16,934.65,32.98
2882800,-0.03,-0.07,1.24,0.24,2.08,-9.22,934.63,32.98
2882838,-0.05,-0.06,1.18,0.12,1.83,-9.28,934.65,32.98
2882877,-0.07,-0.06,1.12,-0.12,0.79,-9.22,934.62,32.98
2882926,-0.06,-0.07,1.08,-0.31,3.36,-9.34,934.65,32.96
2882964,-0.06,-0.06,1.07,-0.24,2.01,-9.09,934.66,32.97
2883002,-0.07,-0.07,1.09,-0.06,2.26,-8.91,934.6,32.97
2883041,-0.07,-0.07,1.08,-0.98,2.26,-8.91,934.59,32.97
2883079,-0.08,-0.06,1.13,-0.49,2.01,-8.79,934.64,32.97
2883117,-0.05,-0.08,1.08,-1.1,3.6,-8.48,934.63,32.98
2883155,-0.08,-0.06,1.17,-1.1,2.32,-8.73,934.65,32.96
2883193,-0.06,-0.09,1.15,-1.16,4.09,-8.18,934.62,32.98
2883231,-0.06,-0.06,1.17,-1.53,2.69,-8.3,934.63,32.98
2883269,-0.09,-0.06,1.16,-1.16,3.66,-7.81,934.68,32.98
2883345,-0.08,-0.06,1.17,-0.79,3.66,-7.87,934.67,32.96
2883383,-0.07,-0.07,1.16,-0.92,4.39,-7.32,934.6,32.96
2883421,-0.06,-0.06,1.21,-0.55,4.21,-7.57,934.61,32.96
2883510,-0.08,-0.06,1.2,-0.98,3.17,-6.77,934.67,32.93
2883549,-0.08,-0.07,1.24,-0.85,3.72,-6.84,934.63,32.96
2883587,-0.06,-0.06,1.23,-0.98,3.05,-6.47,934.64,32.94
2883625,-0.06,-0.06,1.25,-0.61,1.77,-6.29,934.64,32.96
2883663,-0.07,-0.07,1.2,-0.79,1.1,-6.35,934.54,32.96
2883701,-0.07,-0.06,1.18,-1.04,-0.18,-5.92,934.55,32.96
2883751,-0.07,-0.06,1.22,-1.04,-1.04,-5.55,934.57,32.95
2883789,-0.09,-0.08,1.15,-0.92,-1.77,-5.55,934.6,32.96
2883827,-0.1,-0.06,1.11,-0.61,-1.77,-5.37,934.54,32.95
2883865,-0.09,-0.07,1.07,-0.67,-1.28,-5.25,934.56,32.96
2883903,-0.08,-0.09,1.03,-0.31,-1.04,-5.25,934.54,32.96
2883941,-0.09,-0.06,0.97,-0.49,-0.85,-5.0,934.52,32.96
2883979,-0.11,-0.06,0.99,-0.43,-0.98,-4.94,934.44,32.96
2884018,-0.11,-0.07,0.99,-0.43,-0.92,-4.58,934.47,32.96
2884056,-0.12,-0.08,0.97,-0.98,-0.85,-4.09,934.48,32.98
2884105,-0.11,-0.07,1.06,-1.1,-0.98,-3.97,934.44,32.96
2884144,-0.09,-0.06,1.07,-1.95,-1.1,-3.48,934.43,32.96
2884182,-0.12,-0.06,1.1,-1.46,-2.08,-2.93,934.4,32.96
2884220,-0.1,-0.07,1.11,-1.95,-1.59,-2.56,934.4,32.96
2884258,-0.08,-0.05,1.12,-2.38,-4.03,-2.32,934.44,32.97
2884296,-0.11,-0.05,1.2,-1.95,-4.94,-2.08,934.41,32.96
2884334,-0.08,-0.06,1.2,-2.14,-4.76,-1.83,934.48,32.96
2884372,-0.1,-0.06,1.27,-1.4,-4.39,-1.77,934.41,32.97
2884410,-0.09,-0.07,1.22,-1.59,-4.15,-1.59,934.5,32.96
2884460,-0.1,-0.05,1.34,-1.22,-3.42,-1.22,934.47,32.96
2884498,-0.09,-0.07,1.28,-1.1,-1.89,-1.22,934.43,32.95
2884536,-0.08,-0.06,1.32,-0.73,-2.38,-1.46,934.5,32.97
2884574,-0.08,-0.07,1.28,-0.73,-1.28,-1.34,934.49,32.95
2884613,-0.07,-0.07,1.19,-0.92,-1.4,-1.04,934.54,32.96
2884651,-0.1,-0.06,1.16,0.24,-1.77,-0.92,934.54,32.97
2884689,-0.07,-0.08,1.05,-0.43,-0.79,-0.67,934.51,32.97
2884727,-0.09,-0.07,1.03,0.12,-1.28,-0.67,934.49,32.97
2884765,-0.09,-0.08,0.94,0.37,-0.61,-0.49,934.42,32.95
2884815,-0.08,-0.08,0.92,0.18,-1.89,-0.31,934.41,32.95
2884853,-0.07,-0.09,0.83,-0.61,-0.37,-0.37,934.4,32.96
2884891,-0.07,-0.08,0.87,-1.22,-1.59,-0.06,934.39,32.97
2884929,-0.08,-0.09,0.91,-1.53,-0.12,0.24,934.41,32.96
2884967,-0.06,-0.09,0.88,-2.99,-0.67,0.18,934.52,32.97
2885005,-0.09,-0.07,0.95,-3.23,-0.73,0.43,934.51,32.97
2885044,-0.06,-0.08,0.97,-4.15,0.37,0.73,934.54,32.98
2885082,-0.04,-0.07,1.07,-3.91,0.92,0.49,934.57,32.98
2885120,-0.08,-0.08,1.13,-3.85,1.28,0.61,934.52,32.98
2885158,-0.07,-0.08,1.23,-3.54,2.01,0.98,934.49,32.95
2885208,-0.04,-0.08,1.26,-3.91,4.03,0.49,934.55,32.96
2885246,-0.07,-0.07,1.19,-3.72,2.93,0.79,934.57,32.96
2885284,-0.05,-0.06,1.2,-2.93,1.95,1.04,934.56,32.97
2885322,-0.06,-0.08,1.09,-3.42,3.3,0.92,934.58,32.97
2885360,-0.03,-0.06,1.09,-3.72,1.22,0.98,934.61,32.96
2885398,-0.04,-0.07,1.09,-3.6,1.16,1.04,934.55,32.97
2885436,-0.04,-0.09,1.06,-4.7,1.95,1.1,934.5,32.96
2885474,-0.05,-0.07,1.11,-4.33,0.31,1.1,934.47,32.97
2885513,-0.02,-0.08,1.15,-4.64,1.04,0.85,934.48,32.96
2885562,-0.04,-0.06,1.19,-3.91,0.06,0.98,934.51,32.97
2885601,-0.01,-0.07,1.23,-4.03,0.61,0.67,934.53,32.96
2885639,-0.03,-0.07,1.22,-3.72,1.16,0.73,934.51,32.98
2885677,-0.03,-0.07,1.24,-3.6,1.65,0.67,934.51,32.97
2885715,-0.02,-0.06,1.33,-2.87,1.59,0.31,934.5,32.97
2885753,-0.03,-0.07,1.29,-3.05,2.44,0.43,934.48,32.96
2885791,-0.03,-0.05,1.37,-2.56,1.1,0.06,934.48,32.96
2885829,-0.01,-0.07,1.38,-2.81,2.5,0.06,934.45,32.97
2885868,-0.01,-0.06,1.38,-2.81,0.73,0.18,934.45,32.98
2885906,-0.05,-0.05,1.4,-2.01,-0.37,0.06,934.46,32.97
2885955,-0.03,-0.06,1.38,-1.53,-0.06,-0.12,934.48,32.97
2885994,-0.02,-0.05,1.39,-1.22,-0.24,-0.18,934.48,32.97
2886032,-0.04,-0.05,1.38,-0.49,-0.18,-0.06,934.45,32.97
2886070,-0.03,-0.06,1.36,-0.12,0.49,-0.37,934.4,32.97
2886108,-0.04,-0.06,1.36,0.85,0.61,-0.37,934.46,32.98
2886146,-0.02,-0.06,1.34,1.1,0.92,-0.43,934.4,32.98
2886184,-0.04,-0.06,1.31,1.22,0.85,-0.55,934.4,32.99
2886222,-0.02,-0.06,1.28,1.46,0.55,-0.67,934.36,32.98
2886260,-0.02,-0.08,1.21,1.28,1.04,-0.79,934.3,32.98
2886336,-0.03,-0.06,1.1,-0.43,0.43,-0.92,934.23,32.96
2886374,-0.03,-0.05,1.17,-1.1,0.85,-1.04,934.21,32.96
2886412,-0.05,-0.07,1.17,-1.95,1.22,-1.04,934.24,32.96
2886502,-0.05,-0.08,1.27,-2.99,1.65,-1.1,934.21,32.94
2886540,-0.0,-0.06,1.23,-3.48,2.01,-1.28,934.22,32.94
2886578,-0.05,-0.04,1.26,-2.87,2.56,-1.34,934.17,32.96
2886616,-0.04,-0.07,1.16,-2.75,2.75,-1.16,934.15,32.96
2886654,-0.03,-0.06,1.2,-2.44,1.34,-1.34,934.2,32.96
2886692,-0.05,-0.06,1.19,-2.26,1.4,-1.46,934.15,32.96
2886742,-0.03,-0.06,1.19,-2.08,0.92,-1.28,934.13,32.97
2886780,-0.05,-0.07,1.2,-1.71,1.04,-1.46,934.01,32.96
2886818,-0.04,-0.08,1.16,-1.83,1.4,-1.34,934.05,32.96
2886856,-0.03,-0.07,1.17,-1.4,1.95,-1.34,934.02,32.96
2886895,-0.04,-0.06,1.15,-1.1,1.46,-1.34,933.99,32.96
2886933,-0.05,-0.07,1.11,-1.16,1.77,-1.4,934.01,32.96
2886971,-0.03,-0.07,1.11,-0.61,2.26,-1.46,934.05,32.97
2887009,-0.04,-0.07,1.11,0.06,2.69,-1.53,933.98,32.97
2887047,-0.05,-0.06,1.1,1.04,1.53,-1.4,934.02,32.97
2887085,-0.04,-0.06,1.07,1.59,2.75,-1.46,933.98,32.97
2887135,-0.04,-0.06,1.06,2.32,3.42,-1.46,933.99,32.96
2887173,-0.03,-0.07,1.02,2.75,3.6,-1.4,933.88,32.96
2887211,-0.03,-0.07,1.01,2.87,3.36,-1.46,933.9,32.98
2887249,-0.03,-0.07,0.95,2.99,3.97,-1.46,933.9,32.98
2887287,-0.04,-0.07,0.92,2.99,3.3,-1.46,933.83,32.98
2887325,-0.02,-0.07,0.9,2.75,2.87,-1.46,933.83,32.98
2887364,-0.04,-0.07,0.88,2.62,2.99,-1.53,933.81,32.98
2887402,-0.05,-0.07,0.87,2.38,3.54,-1.4,933.79,32.97
2887440,-0.04,-0.07,0.9,2.38,3.91,-1.34,933.72,32.98
2887490,-0.04,-0.07,0.89,2.08,4.46,-1.34,933.73,32.97
2887528,-0.05,-0.07,0.92,2.32,5.49,-1.46,933.73,32.97
2887566,-0.05,-0.07,0.92,2.56,6.35,-1.46,933.71,32.97
2887604,-0.05,-0.07,0.94,3.11,6.9,-1.34,933.63,32.98
2887642,-0.05,-0.06,0.94,3.36,8.18,-1.46,933.67,32.98
2887680,-0.04,-0.05,1.01,3.97,8.48,-1.4,933.6,32.97
2887718,-0.03,-0.07,1.02,4.46,10.62,-1.16,933.55,32.98
2887757,-0.06,-0.07,1.01,4.82,12.45,-1.4,933.57,32.99
2887795,-0.05,-0.05,1.04,5.31,14.59,-1.16,933.47,32.98
2887833,-0.03,-0.05,1.04,5.31,15.2,-1.04,933.48,32.98
2887883,-0.04,-0.06,1.05,5.98,15.44,-0.92,933.48,32.98
2887921,-0.03,-0.05,1.02,6.16,16.3,-0.67,933.45,32.99
2887959,-0.04,-0.05,1.06,7.08,15.32,-0.61,933.43,32.98
2887997,-0.03,-0.06,1.0,7.26,16.6,-0.31,933.37,32.98
2888035,-0.04,-0.05,1.05,8.36,15.99,-0.31,933.43,32.98
2888073,-0.01,-0.07,0.96,7.93,16.42,0.06,933.41,32.99
2888111,-0.02,-0.06,0.86,8.48,13.43,0.06,933.37,32.98
2888149,-0.05,-0.05,0.74,9.09,11.23,0.43,933.41,33.0
2888187,-0.03,-0.07,0.66,9.28,10.99,0.49,933.38,32.98
2888237,0.01,-0.07,0.64,9.64,8.91,0.24,933.33,32.97
2888275,-0.03,-0.07,0.6,9.83,6.65,0.73,933.38,32.98
2888314,-0.03,-0.08,0.59,10.25,5.98,0.67,933.36,32.98
2888352,0.0,-0.08,0.56,9.89,6.1,0.43,933.34,32.99
2888390,-0.02,-0.07,0.51,9.89,5.0,0.37,933.31,32.99
2888428,-0.03,-0.07,0.43,9.58,4.82,0.18,933.27,32.98
2888466,-0.01,-0.07,0.42,9.46,6.1,-0.12,933.24,32.98
2888504,-0.0,-0.07,0.39,8.73,7.02,0.12,933.17,32.98
2888542,-0.03,-0.08,0.38,8.42,6.84,0.0,933.16,32.98
2888580,-0.02,-0.08,0.36,7.75,8.18,-0.06,933.13,32.99
2888630,0.01,-0.08,0.4,7.51,9.58,-0.37,933.05,32.97
2888668,0.02,-0.08,0.4,6.47,10.25,-0.43,933.11,32.98
2888706,-0.02,-0.07,0.41,5.92,10.07,-0.24,933.04,32.97
2888744,-0.01,-0.09,0.43,5.19,10.8,-0.43,933.01,32.99
2888782,0.0,-0.08,0.49,4.46,10.86,-0.49,933.01,32.98
2888820,-0.01,-0.08,0.57,3.97,10.5,-0.49,932.98,32.98
2888859,-0.0,-0.08,0.58,3.11,11.41,-0.49,933.03,32.97
2888897,0.01,-0.08,0.66,2.75,10.99,-0.55,932.95,32.97
2888935,-0.0,-0.09,0.68,2.32,11.6,-0.61,932.93,32.98
2888985,0.02,-0.07,0.73,1.22,11.17,-0.67,932.99,32.96
2889023,0.02,-0.08,0.75,-0.31,12.21,-1.1,933.0,32.98
2889061,0.0,-0.08,0.78,-0.92,11.17,-1.04,932.98,32.96
2889099,0.01,-0.07,0.89,-1.59,10.13,-1.1,933.02,32.98
2889137,0.01,-0.08,0.9,-2.69,11.23,-1.4,932.96,32.96
2889175,0.03,-0.06,1.0,-3.11,10.31,-1.65,933.0,32.98
2889213,0.01,-0.06,1.03,-3.3,10.74,-1.65,933.0,32.96
2889251,-0.0,-0.06,1.05,-3.17,10.74,-1.77,932.99,32.97
2889290,0.01,-0.05,1.13,-2.87,11.9,-1.95,933.06,32.98
2889365,-0.01,-0.06,1.13,-1.46,12.82,-2.26,933.07,32.93
2889404,0.01,-0.04,1.15,-0.92,13.79,-2.32,933.05,32.96
2889442,0.02,-0.06,1.12,-0.67,14.77,-2.38,933.04,32.96
2889531,-0.03,-0.05,1.12,0.98,15.93,-2.5,933.05,32.94
2889569,0.0,-0.05,1.14,1.53,15.93,-2.32,933.01,32.95
2889608,0.02,-0.05,1.11,1.59,15.93,-2.75,932.98,32.94
2889646,-0.01,-0.05,1.09,2.38,15.62,-2.81,932.98,32.96
2889684,0.01,-0.06,1.05,2.69,16.48,-2.75,933.03,32.96
2889722,0.03,-0.06,1.04,3.17,15.44,-2.99,933.01,32.96
2889760,0.0,-0.06,1.0,3.17,13.85,-2.87,932.98,32.97
2889810,0.02,-0.06,0.92,3.05,13.37,-2.87,933.05,32.96
2889848,0.02,-0.06,0.9,2.81,10.68,-3.11,932.94,32.96
2889886,0.03,-0.07,0.88,2.56,8.48,-3.48,932.95,32.96
2889924,0.03,-0.07,0.83,1.59,7.26,-3.54,932.9,32.96
2889962,0.02,-0.07,0.85,0.85,5.68,-3.54,932.86,32.96
2890001,0.05,-0.08,0.84,0.18,4.64,-3.78,932.94,32.98
2890039,0.03,-0.07,0.88,-0.67,2.14,-3.85,932.94,32.98
2890077,0.02,-0.08,0.88,-0.92,2.5,-4.09,932.94,32.98
2890115,0.03,-0.08,0.93,-1.53,1.46,-4.58,932.91,32.96
2890165,0.02,-0.07,0.9,-2.32,1.59,-4.88,932.9,32.95
2890203,0.02,-0.07,0.97,-2.56,0.43,-5.19,932.95,32.96
2890241,0.02,-0.07,0.97,-3.3,2.14,-5.62,932.99,32.97
2890279,-0.01,-0.06,0.99,-2.93,2.14,-5.8,932.98,32.96
2890317,0.0,-0.07,1.06,-3.05,2.32,-6.04,932.98,32.97
2890355,0.0,-0.05,1.09,-2.93,2.81,-6.71,932.97,32.96
2890394,-0.01,-0.03,1.23,-2.81,2.5,-6.84,932.94,32.97
2890432,-0.01,-0.05,1.3,-2.62,3.78,-6.84,932.88,32.97
2890470,-0.01,-0.04,1.38,-2.87,3.54,-6.96,932.95,32.97
2890508,-0.04,-0.03,1.41,-2.38,5.25,-7.08,933.01,32.99
2890558,-0.03,-0.04,1.38,-2.44,5.86,-6.96,932.99,32.95
2890596,-0.03,-0.03,1.39,-1.83,6.16,-6.96,932.99,32.97
2890634,-0.05,-0.04,1.28,-1.4,7.02,-6.65,933.1,32.96
2890672,-0.05,-0.03,1.26,-0.49,7.75,-6.65,933.03,32.97
2890710,-0.03,-0.03,1.28,0.0,10.07,-6.47,933.02,32.98
2890748,-0.03,-0.05,1.28,-0.12,11.84,-6.47,933.05,32.96
2890786,-0.05,-0.04,1.33,0.24,13.43,-6.04,932.98,32.97
2890824,-0.04,-0.05,1.32,0.43,16.36,-6.1,932.95,32.98
2890863,-0.02,-0.04,1.28,0.31,17.88,-5.74,933.02,32.97
2890912,-0.03,-0.03,1.3,0.85,18.98,-5.8,932.91,32.96
2890950,-0.01,-0.04,1.2,-0.67,19.96,-5.55,932.97,32.96
2890988,-0.04,-0.01,1.28,-0.24,18.92,-5.19,932.88,32.96
2891027,-0.03,-0.05,1.26,-0.85,20.94,-5.0,932.94,32.97
2891065,-0.02,-0.04,1.29,-1.04,20.26,-4.88,932.93,32.97
2891103,-0.04,-0.04,1.28,-0.67,20.94,-4.39,933.01,32.98
2891141,-0.01,-0.05,1.23,-0.37,20.39,-4.33,932.87,32.96
2891179,0.01,-0.06,1.24,0.43,19.71,-4.15,932.94,32.97
2891217,-0.0,-0.04,1.19,0.37,19.04,-3.78,932.94,32.97
2891267,-0.02,-0.05,1.12,1.28,17.46,-3.36,932.92,32.95
2891305,0.02,-0.03,1.05,0.67,17.46,-3.36,932.92,32.96
2891343,0.02,-0.06,1.11,1.53,15.99,-3.36,932.85,32.97
2891381,0.03,-0.07,1.01,0.24,15.81,-3.3,932.88,32.97
2891419,0.02,-0.06,1.08,0.55,13.49,-3.36,932.83,32.97
2891458,0.03,-0.08,1.01,-1.28,14.53,-3.54,932.82,32.98
2891496,0.01,-0.05,1.03,-2.2,11.72,-3.6,932.81,32.97
2891534,0.01,-0.06,1.13,-2.99,11.23,-3.66,932.75,32.97
2891572,0.02,-0.07,1.1,-4.76,11.66,-3.97,932.76,32.98
2891610,0.02,-0.05,1.22,-5.37,10.01,-4.21,932.79,32.98
2891660,0.02,-0.07,1.18,-6.23,11.35,-4.39,932.81,32.98
2891698,0.0,-0.04,1.28,-5.55,10.01,-4.58,932.79,32.96
2891736,0.01,-0.03,1.33,-5.98,10.25,-4.76,932.79,32.97
2891774,0.01,-0.02,1.36,-5.43,8.48,-4.7,932.86,32.97
2891812,0.0,-0.03,1.4,-4.82,5.8,-4.82,932.86,32.97
2891850,0.04,-0.04,1.38,-4.15,6.35,-5.25,932.86,32.97
2891888,-0.03,-0.05,1.39,-2.56,6.23,-5.37,932.77,32.97
2891926,-0.01,-0.06,1.31,-2.2,7.57,-5.86,932.78,32.98
2891964,-0.01,-0.02,1.36,-1.53,7.08,-6.16,932.79,32.97
2892014,0.01,-0.05,1.2,-1.65,7.57,-6.35,932.74,32.95
2892052,-0.03,-0.05,1.19,-0.85,5.0,-6.77,932.78,32.95
2892090,-0.02,-0.08,1.14,-1.46,6.16,-6.41,932.76,32.97
2892128,0.01,-0.05,1.12,-1.77,3.54,-6.16,932.76,32.98
2892167,-0.01,-0.05,1.1,-1.77,2.69,-6.29,932.7,32.98
2892205,-0.01,-0.08,1.02,-3.48,1.22,-6.23,932.64,32.96
2892243,0.02,-0.06,1.08,-3.78,-0.55,-6.16,932.64,32.96
2892281,0.0,-0.07,1.03,-4.09,-1.16,-6.29,932.65,32.98
2892319,0.01,-0.07,1.03,-4.21,-3.3,-6.35,932.62,32.98
2892395,-0.01,-0.06,1.16,-4.46,-3.91,-6.23,932.64,32.94
2892433,-0.0,-0.07,1.18,-4.27,-4.46,-6.71,932.7,32.96
2892471,-0.02,-0.06,1.15,-3.85,-3.85,-6.71,932.73,32.96
2892560,-0.01,-0.06,1.13,-3.85,-2.56,-7.39,932.73,32.92
2892599,-0.01,-0.06,1.18,-3.23,-2.5,-7.2,932.75,32.94
2892637,-0.02,-0.08,1.15,-3.23,-1.22,-7.2,932.77,32.94
2892675,-0.01,-0.05,1.21,-3.05,-1.77,-7.39,932.72,32.95
2892713,-0.0,-0.05,1.2,-3.3,-0.67,-7.39,932.72,32.95
2892751,-0.03,-0.05,1.21,-2.99,-0.85,-7.39,932.77,32.95
2892801,-0.01,-0.07,1.18,-3.11,1.1,-7.63,932.69,32.94
2892839,-0.02,-0.05,1.19,-2.87,0.43,-8.0,932.75,32.96
2892877,-0.02,-0.05,1.18,-3.48,1.95,-7.87,932.71,32.95
2892915,-0.0,-0.06,1.2,-3.85,1.89,-7.93,932.74,32.97
2892953,-0.03,-0.05,1.21,-4.46,2.38,-7.93,932.67,32.94
2892991,-0.03,-0.06,1.24,-4.76,1.83,-7.87,932.72,32.95
2893029,-0.03,-0.05,1.27,-5.55,2.08,-7.87,932.79,32.96
2893067,-0.03,-0.04,1.32,-5.43,1.77,-7.51,932.8,32.96
2893105,-0.02,-0.05,1.31,-5.62,1.89,-7.75,932.73,32.95
2893143,-0.02,-0.04,1.34,-5.13,1.16,-7.69,932.82,32.97
2893193,-0.01,-0.05,1.3,-4.33,1.59,-7.81,932.82,32.96
2893231,-0.02,-0.05,1.28,-3.54,1.16,-7.63,932.79,32.96
2893269,-0.02,-0.05,1.28,-2.87,1.34,-8.0,932.82,32.97
2893307,-0.04,-0.05,1.25,-2.56,1.46,-8.12,932.82,32.95
2893345,-0.04,-0.06,1.25,-2.38,0.85,-7.93,932.77,32.97
2893383,-0.02,-0.07,1.23,-2.93,2.01,-8.06,932.8,32.97
2893421,-0.03,-0.06,1.22,-2.44,0.79,-8.12,932.85,32.98
2893460,-0.03,-0.05,1.17,-2.26,1.34,-8.0,932.85,32.97
2893498,-0.03,-0.06,1.14,-2.2,0.55,-8.12,932.86,32.97
2893547,-0.04,-0.06,1.16,-1.95,0.31,-8.06,932.88,32.96
2893585,-0.04,-0.07,1.1,-2.62,0.55,-7.69,932.84,32.97
2893624,-0.06,-0.05,1.14,-2.01,-1.16,-7.57,932.89,32.97
2893662,-0.05,-0.07,1.08,-2.5,-0.18,-7.57,932.91,32.99
2893700,-0.03,-0.06,1.08,-2.5,-1.4,-7.51,932.85,32.97
2893738,-0.04,-0.07,1.06,-1.89,-1.46,-7.32,932.95,32.98
2893776,-0.02,-0.08,0.95,-2.75,-0.98,-7.32,932.84,32.98
2893814,-0.04,-0.06,1.0,-2.26,-2.2,-7.26,932.85,32.96
2893852,-0.06,-0.08,0.93,-2.93,-0.61,-6.9,932.8,32.97
2893902,-0.06,-0.07,0.98,-3.42,-1.16,-7.26,932.87,32.97
2893940,-0.06,-0.08,0.94,-4.33,0.98,-7.2,932.84,32.98
2893978,-0.02,-0.07,1.03,-4.82,0.92,-7.08,932.85,32.96
2894016,-0.03,-0.08,1.03,-5.19,2.5,-7.14,932.86,32.98
2894054,-0.07,-0.06,1.06,-5.31,1.83,-7.08,932.91,32.98
2894092,-0.05,-0.08,1.08,-5.37,4.94,-7.02,932.9,32.96
2894130,-0.03,-0.05,1.12,-5.37,4.58,-7.14,932.87,32.98
2894168,-0.06,-0.05,1.18,-5.0,5.43,-6.9,932.9,32.97
2894206,-0.05,-0.07,1.12,-5.13,5.37,-6.9,932.88,32.96
2894256,-0.06,-0.06,1.25,-4.03,5.25,-7.02,932.97,32.96
2894294,-0.03,-0.07,1.21,-4.33,5.8,-6.47,933.0,32.97
2894332,-0.04,-0.04,1.27,-3.6,3.36,-6.65,932.98,32.97
2894370,-0.06,-0.06,1.23,-3.48,4.88,-6.35,933.01,32.97
2894408,-0.02,-0.05,1.26,-3.48,3.91,-6.1,932.97,32.97
2894446,-0.05,-0.06,1.31,-2.5,3.3,-5.92,932.94,32.96
2894484,-0.05,-0.07,1.26,-3.23,3.78,-5.8,932.95,32.97
2894522,-0.06,-0.03,1.38,-2.56,2.44,-5.8,932.93,32.97
2894561,-0.04,-0.05,1.35,-3.6,4.58,-5.43,932.92,32.98
2894599,-0.04,-0.04,1.41,-4.03,2.5,-5.62,932.93,32.95
2894648,-0.06,-0.04,1.36,-4.39,5.37,-5.49,932.92,32.95
2894686,-0.04,-0.04,1.39,-4.46,4.7,-5.43,932.94,32.96
2894725,-0.04,-0.03,1.42,-4.76,4.21,-5.31,932.97,32.97
2894763,-0.07,-0.05,1.41,-5.07,4.09,-5.37,932.89,32.96
2894801,-0.06,-0.04,1.44,-5.25,5.8,-5.43,932.88,32.96
2894839,-0.03,-0.03,1.49,-5.37,5.25,-5.13,932.96,32.97
2894877,-0.02,-0.03,1.54,-5.37,3.78,-5.25,932.95,32.96
2894915,-0.07,-0.03,1.51,-5.86,4.21,-5.19,932.95,32.97
2894953,-0.02,-0.04,1.54,-5.68,5.0,-5.31,932.95,32.95
2895003,-0.03,-0.04,1.52,-5.62,3.54,-5.07,932.98,32.95
2895041,-0.04,-0.03,1.57,-4.76,3.6,-5.43,933.07,32.97
2895079,-0.04,-0.05,1.46,-4.58,8.0,-5.55,933.05,32.97
2895117,-0.04,-0.05,1.42,-3.23,9.46,-5.55,933.1,32.96
2895155,-0.02,-0.08,1.37,-1.89,11.54,-5.74,933.14,32.98
2895193,-0.02,-0.08,1.18,-2.26,13.24,-5.86,933.07,32.97
2895231,-0.06,-0.04,1.26,-0.98,12.08,-5.68,933.06,32.97
2895269,-0.0,-0.09,1.1,-2.44,15.87,-5.25,933.03,32.96
2895307,0.02,-0.06,1.19,-1.65,11.78,-5.55,932.96,32.96
2895383,0.01,-0.08,1.12,-2.75,10.93,-5.19,932.94,32.94
2895421,0.0,-0.08,1.19,-3.05,8.36,-5.37,932.95,32.94
2895459,-0.02,-0.09,1.06,-4.58,6.9,-5.25,932.98,32.96
2895548,0.02,-0.1,1.18,-6.29,5.43,-5.37,932.93,32.91
2895587,-0.02,-0.07,1.29,-5.74,1.46,-5.49,932.92,32.92
2895625,-0.03,-0.08,1.24,-6.35,4.33,-5.49,932.95,32.94
2895663,-0.0,-0.07,1.25,-5.68,4.09,-5.92,933.0,32.95
2895701,-0.02,-0.07,1.29,-5.13,4.09,-5.98,932.93,32.94
2895739,-0.01,-0.09,1.19,-5.37,4.46,-6.23,932.85,32.93
2895777,-0.01,-0.09,1.16,-4.76,4.94,-6.47,932.89,32.95
2895827,-0.03,-0.07,1.16,-5.25,5.13,-6.47,932.85,32.93
2895865,-0.04,-0.09,1.16,-5.92,4.58,-6.47,932.78,32.94
2895903,-0.04,-0.09,1.22,-6.04,4.15,-6.9,932.82,32.94
2895941,-0.05,-0.07,1.26,-7.14,4.03,-6.84,932.85,32.96
2895979,-0.04,-0.07,1.24,-7.63,4.33,-6.65,932.81,32.94
2896017,-0.05,-0.05,1.31,-7.63,3.23,-6.77,932.82,32.94
2896055,-0.03,-0.06,1.3,-8.12,4.15,-6.65,932.8,32.94
2896094,-0.06,-0.06,1.36,-7.63,3.6,-6.77,932.8,32.96
2896132,-0.04,-0.07,1.35,-8.12,4.76,-6.77,932.82,32.96
2896181,-0.05,-0.05,1.43,-7.87,3.72,-6.84,932.82,32.94
2896220,-0.04,-0.07,1.38,-8.12,5.86,-6.84,932.81,32.94
2896258,-0.04,-0.05,1.42,-7.87,4.15,-6.71,932.73,32.95
2896296,-0.05,-0.06,1.42,-8.12,5.13,-6.65,932.8,32.94
2896334,-0.04,-0.05,1.42,-8.06,4.82,-6.65,932.75,32.94
2896372,-0.05,-0.05,1.46,-7.63,4.39,-6.41,932.73,32.95
2896410,-0.05,-0.05,1.42,-7.87,4.52,-6.29,932.73,32.95
2896448,-0.05,-0.04,1.46,-7.57,3.85,-6.35,932.76,32.95
2896486,-0.05,-0.05,1.44,-7.57,4.33,-6.29,932.82,32.96
2896536,-0.04,-0.05,1.44,-7.2,3.6,-6.16,932.74,32.93
2896574,-0.04,-0.05,1.41,-7.63,4.21,-6.1,932.75,32.94
2896612,-0.04,-0.05,1.44,-7.69,3.66,-6.04,932.71,32.96
2896650,-0.04,-0.05,1.44,-8.12,3.6,-6.04,932.74,32.96
2896688,-0.04,-0.04,1.43,-8.54,2.32,-6.04,932.67,32.97
2896727,-0.05,-0.04,1.5,-8.67,2.08,-5.92,932.64,32.97
2896765,-0.03,-0.04,1.49,-9.7,1.89,-5.92,932.63,32.96
2896803,-0.04,-0.04,1.55,-10.01,0.98,-5.86,932.65,32.96
2896841,-0.03,-0.04,1.56,-10.68,1.77,-5.68,932.66,32.95
2896879,-0.05,-0.04,1.58,-10.68,1.59,-5.98,932.62,32.96
2896929,-0.05,-0.02,1.6,-11.05,1.46,-5.92,932.62,32.94
2896967,-0.04,-0.02,1.64,-10.93,1.65,-6.04,932.6,32.96
2897005,-0.04,-0.02,1.68,-10.44,1.65,-5.98,932.66,32.95
2897043,-0.05,-0.02,1.69,-9.28,1.71,-5.86,932.62,32.95
2897081,-0.06,-0.02,1.69,-8.54,1.77,-5.92,932.63,32.96
2897119,-0.03,-0.02,1.66,-8.0,2.5,-5.86,932.6,32.95
2897157,-0.03,-0.0,1.71,-7.14,1.77,-5.98,932.65,32.96
2897195,-0.03,-0.04,1.63,-6.23,3.17,-5.86,932.61,32.95
2897234,-0.04,-0.01,1.53,-6.23,1.16,-5.74,932.64,32.95
2897283,-0.04,-0.03,1.51,-5.19,1.83,-5.62,932.51,32.94
2897321,-0.01,-0.05,1.49,-5.86,1.28,-5.98,932.59,32.95
2897360,-0.02,-0.05,1.58,-5.37,2.14,-5.92,932.53,32.96
2897398,-0.03,-0.05,1.46,-5.19,2.01,-5.8,932.52,32.95
2897436,-0.01,-0.02,1.52,-4.52,1.16,-6.29,932.53,32.95
2897474,-0.02,-0.03,1.49,-4.82,2.14,-6.29,932.51,32.96
2897512,-0.02,-0.04,1.54,-3.72,1.22,-6.53,932.45,32.94
2897550,-0.02,-0.05,1.51,-3.54,2.5,-6.41,932.53,32.96
2897588,-0.0,-0.04,1.48,-2.5,2.87,-6.47,932.4,32.95
2897638,-0.01,-0.05,1.44,-1.65,5.13,-6.84,932.43,32.94
2897676,-0.04,-0.05,1.39,-1.1,5.19,-6.96,932.44,32.95
2897714,-0.04,-0.06,1.34,-0.06,6.1,-7.08,932.34,32.94
2897752,-0.02,-0.06,1.31,-0.06,7.2,-7.39,932.45,32.96
2897790,-0.01,-0.05,1.26,0.43,7.75,-7.39,932.41,32.95
2897828,-0.01,-0.05,1.22,0.67,8.18,-7.39,932.38,32.94
2897866,-0.03,-0.06,1.19,1.34,8.42,-7.26,932.33,32.96
2897904,-0.04,-0.07,1.17,1.53,8.73,-7.32,932.34,32.97
2897942,-0.03,-0.07,1.15,1.53,8.79,-7.32,932.36,32.97
2897992,-0.03,-0.06,1.12,2.01,8.67,-7.26,932.3,32.95
2898030,-0.03,-0.06,1.08,1.89,9.03,-7.32,932.23,32.95
2898069,-0.01,-0.06,1.03,2.32,9.52,-7.39,932.24,32.96
2898107,-0.02,-0.07,1.0,2.38,9.46,-7.02,932.26,32.95
2898145,-0.01,-0.07,1.0,2.75,9.22,-6.96,932.18,32.96
2898183,-0.01,-0.07,0.97,2.56,9.58,-6.9,932.19,32.96
2898221,-0.02,-0.06,0.99,2.81,8.06,-6.9,932.16,32.96
2898259,-0.02,-0.08,0.93,2.32,7.63,-6.96,932.14,32.96
2898297,-0.02,-0.08,0.92,2.38,6.16,-6.9,932.08,32.95
2898335,-0.02,-0.08,0.86,1.28,6.23,-6.65,931.95,32.96
2898486,-0.03,-0.08,0.84,-2.01,4.82,-6.96,931.99,32.9
2898524,-0.03,-0.08,0.87,-2.2,5.13,-7.39,932.02,32.92
2898562,-0.03,-0.07,0.9,-2.93,4.7,-7.08,931.91,32.91
2898652,-0.01,-0.07,0.93,-3.05,3.78,-6.96,931.87,32.89
2898690,-0.05,-0.06,0.93,-2.69,3.48,-6.9,931.92,32.92
2898728,-0.03,-0.06,0.94,-2.5,3.42,-6.77,931.91,32.92
2898766,-0.03,-0.07,0.92,-2.32,3.36,-6.84,931.88,32.92
2898804,-0.03,-0.08,0.93,-1.71,3.3,-6.77,931.86,32.92
2898842,-0.02,-0.08,0.82,-2.01,2.81,-6.41,931.91,32.93
2898892,-0.02,-0.07,0.77,-1.59,2.44,-6.47,931.82,32.92
2898930,-0.03,-0.08,0.69,-1.89,1.71,-6.47,931.82,32.93
2898968,-0.03,-0.06,0.72,-1.65,0.06,-6.35,931.74,32.92
2899006,-0.02,-0.09,0.7,-2.32,1.4,-6.59,931.74,32.95
2899044,-0.03,-0.08,0.71,-2.87,1.89,-6.47,931.7,32.94
2899082,-0.06,-0.06,0.76,-2.93,2.38,-6.16,931.71,32.93
2899121,-0.04,-0.08,0.8,-3.23,3.3,-6.29,931.79,32.94
2899159,-0.04,-0.07,0.8,-3.36,5.07,-6.59,931.75,32.94
2899197,-0.04,-0.07,0.83,-3.05,6.29,-6.35,931.77,32.94
2899235,0.0,-0.07,0.87,-3.11,7.63,-6.29,931.72,32.93
2899285,-0.02,-0.07,0.89,-2.99,9.22,-6.35,931.64,32.92
2899323,-0.02,-0.07,0.91,-2.93,10.31,-6.41,931.68,32.94
2899361,-0.03,-0.06,0.94,-2.75,11.41,-6.23,931.69,32.94
2899399,-0.03,-0.06,0.98,-2.81,11.41,-6.23,931.66,32.94
2899437,-0.01,-0.07,1.01,-2.75,12.45,-6.16,931.67,32.94
2899475,-0.02,-0.06,1.01,-2.75,12.82,-5.98,931.64,32.94
2899513,-0.01,-0.06,1.05,-2.38,12.08,-5.74,931.65,32.95
2899551,0.0,-0.05,1.03,-2.69,12.33,-5.74,931.63,32.94
2899589,-0.01,-0.05,1.05,-2.56,11.11,-5.62,931.59,32.94
2899639,-0.01,-0.06,1.05,-2.99,10.62,-5.55,931.58,32.93
2899677,-0.01,-0.06,1.08,-3.23,8.79,-5.62,931.47,32.94
2899715,-0.0,-0.05,1.08,-3.91,7.32,-5.55,931.56,32.95
2899753,0.01,-0.05,1.08,-4.58,5.13,-5.43,931.53,32.93
2899792,-0.01,-0.04,1.1,-5.0,4.15,-5.49,931.4,32.94
2899830,-0.01,-0.05,1.12,-5.68,3.78,-5.49,931.48,32.94
2899868,-0.02,-0.04,1.14,-5.62,2.87,-5.68,931.44,32.94
2899906,-0.02,-0.04,1.17,-6.1,2.44,-5.74,931.48,32.94
2899944,-0.01,-0.05,1.19,-6.41,1.95,-5.98,931.48,32.94
2899994,-0.01,-0.04,1.2,-6.53,2.2,-6.04,931.46,32.92
2900032,-0.02,-0.04,1.2,-6.77,1.89,-6.1,931.37,32.92
2900070,-0.02,-0.03,1.22,-6.9,1.34,-6.1,931.46,32.93
2900108,-0.02,-0.03,1.25,-6.96,1.16,-6.1,931.42,32.94
2900146,-0.03,-0.04,1.25,-7.14,1.1,-6.41,931.41,32.94
2900184,-0.03,-0.03,1.28,-7.08,0.98,-6.23,931.42,32.94
2900222,-0.01,-0.04,1.26,-7.08,1.71,-6.29,931.4,32.94
2900260,-0.04,-0.02,1.25,-7.14,1.28,-6.59,931.39,32.94
2900298,-0.04,-0.03,1.23,-7.08,1.95,-6.47,931.44,32.94
2900348,-0.02,-0.03,1.27,-7.14,0.92,-6.71,931.4,32.93
2900386,-0.03,-0.03,1.25,-7.02,1.46,-6.65,931.33,32.93
2900424,-0.03,-0.03,1.3,-6.84,0.67,-6.71,931.38,32.94
2900463,-0.02,-0.02,1.31,-6.71,1.16,-6.9,931.37,32.93
2900501,-0.02,-0.01,1.31,-6.59,0.06,-7.08,931.33,32.94
2900539,-0.03,-0.01,1.33,-6.41,-0.49,-6.96,931.37,32.94
2900577,-0.04,-0.02,1.3,-6.35,0.31,-7.02,931.31,32.93
2900615,-0.03,-0.02,1.3,-6.1,0.61,-7.26,931.3,32.94
2900653,-0.03,-0.01,1.3,-5.98,0.67,-7.32,931.29,32.93
2900691,-0.04,-0.02,1.27,-5.55,0.73,-7.39,931.34,32.94
2900741,-0.03,-0.03,1.24,-5.49,1.4,-7.63,931.35,32.93
2900779,-0.04,-0.02,1.26,-5.0,0.61,-7.57,931.32,32.94
2900817,-0.04,-0.04,1.2,-4.82,1.16,-7.32,931.37,32.94
2900855,-0.04,-0.03,1.21,-4.82,-0.06,-7.57,931.3,32.94
2900893,-0.04,-0.03,1.18,-4.82,-0.06,-7.32,931.27,32.94
2900931,-0.05,-0.03,1.15,-4.82,-0.73,-7.32,931.26,32.93
2900969,-0.05,-0.03,1.15,-4.58,-1.16,-7.26,931.23,32.95
2901008,-0.05,-0.03,1.14,-4.82,-1.22,-7.32,931.29,32.95
2901046,-0.05,-0.03,1.16,-4.76,-1.34,-7.08,931.28,32.94
2901095,-0.04,-0.03,1.16,-4.82,-1.16,-7.02,931.27,32.92
2901134,-0.06,-0.03,1.18,-4.7,-1.4,-7.02,931.24,32.92
2901172,-0.06,-0.03,1.19,-4.52,-0.73,-6.71,931.23,32.94
2901210,-0.05,-0.03,1.18,-4.46,-0.37,-6.77,931.31,32.93
2901248,-0.05,-0.04,1.19,-4.15,0.61,-6.77,931.23,32.95
2901286,-0.05,-0.03,1.16,-4.03,0.67,-6.59,931.33,32.93
2901324,-0.05,-0.02,1.19,-3.6,0.98,-6.47,931.26,32.95
2901362,-0.05,-0.04,1.15,-3.66,1.59,-6.23,931.22,32.94
2901400,-0.05,-0.03,1.18,-3.36,0.37,-6.1,931.23,32.95
2901476,-0.04,-0.03,1.16,-2.93,-0.18,-6.04,931.24,32.91
2901514,-0.05,-0.03,1.14,-2.87,-0.12,-5.74,931.19,32.92
2901552,-0.04,-0.03,1.15,-2.81,-0.43,-5.86,931.19,32.92
2901642,-0.05,-0.03,1.15,-2.38,-0.73,-5.74,931.17,32.89
2901680,-0.05,-0.04,1.16,-1.83,-0.43,-5.62,931.17,32.9
2901718,-0.05,-0.04,1.14,-2.14,-0.37,-5.49,931.2,32.9
2901756,-0.05,-0.02,1.16,-1.65,-1.16,-5.55,931.25,32.91
2901794,-0.05,-0.03,1.15,-1.4,-0.61,-5.31,931.2,32.91
2901832,-0.04,-0.03,1.16,-0.85,-0.98,-5.37,931.22,32.91
2901882,-0.05,-0.03,1.14,0.12,-0.37,-5.31,931.21,32.91
2901920,-0.05,-0.03,1.13,0.98,-0.43,-5.19,931.26,32.92
2901958,-0.05,-0.04,1.11,1.71,0.85,-5.19,931.27,32.91
2901996,-0.04,-0.04,1.09,2.32,1.16,-5.13,931.29,32.92
2902034,-0.05,-0.04,1.04,2.81,1.65,-5.13,931.31,32.9
2902072,-0.04,-0.04,1.02,3.17,2.44,-5.07,931.29,32.93
2902110,-0.03,-0.04,0.97,3.48,2.69,-5.07,931.34,32.92
2902148,-0.03,-0.05,0.96,3.6,2.87,-5.0,931.32,32.93
2902186,-0.04,-0.05,0.92,3.78,2.99,-5.0,931.28,32.92
2902224,-0.03,-0.05,0.9,3.97,3.23,-5.13,931.25,32.92
2902274,-0.02,-0.06,0.86,3.66,3.85,-5.0,931.26,32.91
2902312,-0.03,-0.06,0.81,3.42,3.85,-5.0,931.3,32.93
2902350,-0.03,-0.05,0.83,3.42,3.66,-5.0,931.27,32.92
2902389,-0.02,-0.07,0.8,3.05,4.52,-5.13,931.29,32.93
2902427,-0.02,-0.06,0.8,2.81,4.46,-5.0,931.34,32.92
2902465,-0.03,-0.06,0.79,2.56,5.49,-4.94,931.32,32.93
2902503,-0.02,-0.06,0.78,2.44,6.71,-5.0,931.3,32.94
2902541,-0.02,-0.06,0.78,2.26,7.57,-5.0,931.28,32.94
2902579,-0.01,-0.06,0.77,1.95,8.24,-5.13,931.27,32.94
2902628,-0.02,-0.07,0.77,1.83,9.83,-5.0,931.26,32.92
2902667,-0.01,-0.07,0.77,1.65,10.86,-5.0,931.3,32.93
2902705,-0.01,-0.06,0.81,1.77,11.11,-5.07,931.3,32.93
2902743,-0.0,-0.06,0.8,1.4,11.72,-4.94,931.25,32.92
2902781,0.0,-0.07,0.83,1.59,11.84,-4.94,931.3,32.93
2902819,0.0,-0.06,0.84,1.4,11.9,-5.07,931.3,32.93
2902857,-0.0,-0.06,0.83,1.34,11.54,-4.88,931.33,32.93
2902895,0.01,-0.06,0.82,1.4,10.5,-4.94,931.33,32.95
2902933,0.0,-0.06,0.84,1.04,9.83,-5.13,931.32,32.94
2902971,0.01,-0.07,0.81,1.04,9.52,-4.88,931.33,32.93
2903021,0.01,-0.06,0.82,0.67,8.06,-4.88,931.28,32.92
2903059,0.01,-0.06,0.82,-0.06,7.51,-4.94,931.34,32.94
2903097,-0.0,-0.06,0.83,-0.43,6.77,-5.0,931.34,32.93
2903135,0.01,-0.06,0.84,-0.79,6.23,-5.13,931.3,32.94
2903173,0.0,-0.06,0.82,-1.53,6.1,-5.25,931.35,32.93
2903212,-0.0,-0.06,0.85,-1.77,5.86,-5.31,931.29,32.94
2903250,0.02,-0.07,0.83,-2.69,6.59,-5.49,931.33,32.94
2903288,0.01,-0.06,0.87,-3.36,5.74,-5.62,931.31,32.93
2903326,0.0,-0.06,0.89,-4.52,5.49,-5.62,931.32,32.94
2903376,0.01,-0.06,0.92,-5.49,5.19,-5.98,931.29,32.92
2903414,0.0,-0.05,0.97,-6.04,4.64,-6.35,931.33,32.94
2903452,0.01,-0.05,1.0,-6.96,4.58,-6.47,931.32,32.94
2903490,0.0,-0.04,1.03,-7.14,4.15,-6.59,931.36,32.94
2903528,0.0,-0.04,1.07,-7.87,3.91,-6.84,931.32,32.94
2903566,0.01,-0.04,1.12,-8.18,3.6,-6.77,931.36,32.93
2903604,0.0,-0.02,1.14,-8.3,3.72,-7.14,931.38,32.94
2903642,-0.0,-0.01,1.18,-8.36,3.66,-7.32,931.36,32.93
2903680,0.0,-0.02,1.22,-8.36,4.21,-7.45,931.42,32.94
2903719,-0.0,-0.01,1.25,-8.24,4.15,-7.63,931.44,32.92
2903768,-0.0,-0.01,1.28,-7.69,5.0,-7.69,931.39,32.92
2903806,-0.0,0.0,1.29,-7.51,5.31,-7.57,931.39,32.92
2903845,-0.01,0.0,1.3,-7.02,6.23,-7.63,931.44,32.92
2903883,-0.01,0.0,1.3,-6.9,7.14,-7.69,931.46,32.94
2903921,-0.01,0.01,1.31,-6.23,7.32,-7.81,931.48,32.94
2903959,-0.01,0.01,1.32,-6.1,7.87,-7.69,931.48,32.94
2903997,-0.01,0.01,1.34,-5.92,8.12,-7.69,931.43,32.95
2904035,-0.01,0.01,1.35,-5.74,8.06,-7.57,931.47,32.94
2904073,-0.01,0.01,1.33,-5.68,8.42,-7.63,931.55,32.95
2904123,-0.01,0.01,1.31,-5.49,8.42,-7.45,931.47,32.93
2904161,-0.01,0.01,1.32,-5.43,8.24,-7.57,931.47,32.94
2904199,-0.02,0.01,1.32,-4.94,8.61,-7.45,931.57,32.93
2904237,-0.01,0.01,1.32,-5.0,8.97,-7.45,931.54,32.95
2904275,-0.01,0.01,1.35,-4.39,9.28,-7.51,931.52,32.93
2904313,-0.01,0.01,1.34,-4.15,9.95,-7.45,931.58,32.94
2904351,-0.0,0.01,1.35,-3.6,9.58,-7.45,931.63,32.95
2904389,-0.01,0.01,1.34,-2.93,9.16,-7.2,931.53,32.93
2904427,-0.01,0.0,1.29,-2.5,9.34,-7.26,931.58,32.96
2904466,-0.01,0.0,1.25,-2.01,8.79,-7.32,931.64,32.94
2904541,-0.01,0.0,1.21,-1.28,7.63,-7.2,931.57,32.91
2904579,-0.0,-0.02,1.18,-1.1,7.32,-7.32,931.57,32.92
2904617,-0.0,-0.0,1.19,-1.34,6.96,-7.63,931.55,32.91
2904706,-0.0,-0.01,1.18,-1.77,6.47,-7.57,931.6,32.9
2904744,0.0,-0.01,1.2,-1.71,5.43,-8.0,931.63,32.92
2904783,-0.01,-0.01,1.18,-1.95,6.1,-8.0,931.6,32.92
2904821,0.0,-0.01,1.17,-2.01,5.37,-7.93,931.67,32.92
2904859,-0.0,-0.0,1.17,-1.95,5.55,-8.06,931.61,32.93
2904897,-0.0,-0.01,1.16,-2.14,5.19,-8.18,931.67,32.92
2904946,-0.01,-0.01,1.17,-1.89,5.0,-8.3,931.65,32.93
2904984,-0.0,-0.01,1.17,-1.83,4.76,-8.36,931.69,32.92
2905022,0.0,-0.0,1.18,-1.59,4.52,-8.36,931.75,32.92
2905060,-0.01,-0.01,1.17,-1.4,4.58,-8.36,931.69,32.93
2905099,-0.02,-0.01,1.15,-1.4,4.52,-8.48,931.74,32.94
2905137,-0.02,-0.01,1.15,-1.4,5.0,-8.48,931.75,32.92
2905175,-0.01,-0.02,1.1,-1.71,5.55,-8.42,931.79,32.92
2905213,-0.01,-0.01,1.12,-1.95,5.43,-8.42,931.76,32.94
2905251,-0.01,-0.02,1.1,-2.38,6.35,-8.48,931.79,32.94
2905301,-0.02,-0.02,1.12,-2.5,5.92,-8.42,931.81,32.93
2905339,-0.02,-0.02,1.13,-2.93,6.65,-8.3,931.79,32.94
2905377,-0.01,-0.02,1.15,-2.87,6.77,-8.24,931.85,32.92
2905415,-0.02,-0.01,1.15,-2.93,6.96,-8.3,931.88,32.95
2905453,-0.01,-0.01,1.17,-2.99,6.77,-8.12,931.88,32.93
2905491,-0.01,-0.02,1.14,-2.81,7.87,-8.18,931.81,32.94
2905529,-0.01,-0.02,1.13,-2.75,7.69,-8.12,931.92,32.94
2905567,-0.01,-0.02,1.14,-2.38,8.3,-8.12,931.88,32.95
2905605,-0.01,-0.02,1.1,-2.62,8.3,-8.06,931.86,32.94
2905643,-0.01,-0.02,1.13,-2.62,8.0,-8.18,931.85,32.93
2905693,-0.01,-0.03,1.09,-3.36,8.42,-8.18,931.93,32.94
2905731,-0.01,-0.03,1.11,-3.54,7.39,-8.18,931.89,32.95
2905769,-0.0,-0.03,1.07,-4.15,8.06,-8.06,931.92,32.94
2905807,-0.0,-0.02,1.08,-4.09,6.65,-8.36,931.87,32.93
2905846,-0.01,-0.03,1.07,-4.46,6.23,-8.12,931.9,32.93
2905884,-0.01,-0.03,1.11,-4.82,5.31,-8.3,931.96,32.94
2905922,-0.02,-0.02,1.09,-5.25,5.0,-8.0,931.92,32.95
2905960,-0.02,-0.01,1.14,-5.31,3.72,-8.06,931.95,32.94
2905998,-0.02,-0.02,1.16,-5.62,3.48,-7.93,931.89,32.93
2906048,-0.02,-0.02,1.18,-5.74,2.87,-7.81,932.0,32.92
2906086,-0.03,-0.01,1.18,-5.86,3.17,-7.75,932.0,32.93
2906124,-0.02,-0.01,1.19,-5.92,3.11,-7.75,932.01,32.94
2906162,-0.02,-0.01,1.22,-5.68,2.81,-7.81,932.02,32.93
2906200,-0.02,-0.01,1.22,-5.86,3.3,-7.75,932.03,32.94
2906238,-0.01,-0.01,1.24,-5.8,3.85,-7.75,932.05,32.93
2906276,-0.02,-0.01,1.2,-6.29,4.64,-7.87,932.07,32.93
2906314,-0.02,-0.0,1.22,-6.04,4.39,-7.87,932.06,32.93
2906352,-0.02,-0.01,1.21,-5.92,5.62,-7.87,932.11,32.94
2906402,-0.02,-0.01,1.21,-5.92,5.43,-7.87,932.14,32.92
2906440,-0.01,-0.02,1.21,-6.16,6.35,-8.0,932.17,32.94
2906478,-0.01,-0.02,1.2,-6.29,6.53,-8.12,932.15,32.93
2906516,-0.02,-0.01,1.19,-6.47,6.1,-7.87,932.15,32.92
2906554,-0.01,-0.01,1.21,-6.84,6.35,-7.81,932.1,32.92
2906592,-0.02,-0.02,1.21,-7.32,5.86,-8.0,932.16,32.93
2906630,-0.01,-0.01,1.24,-7.39,5.8,-7.93,932.16,32.92
2906669,-0.0,-0.02,1.26,-7.63,5.31,-7.87,932.18,32.92
2906707,-0.0,-0.02,1.26,-7.32,5.31,-8.0,932.19,32.93
2906756,-0.02,0.0,1.31,-7.02,5.0,-8.0,932.28,32.92
2906794,-0.01,-0.01,1.3,-6.65,5.0,-8.06,932.27,32.93
2906833,-0.01,-0.01,1.29,-6.59,4.52,-8.24,932.31,32.93
2906871,-0.02,-0.01,1.28,-6.35,4.33,-8.06,932.26,32.93
2906909,-0.01,-0.01,1.25,-6.35,4.09,-8.06,932.27,32.92
2906947,-0.02,0.0,1.25,-6.1,3.23,-8.18,932.25,32.93
2906985,-0.02,-0.01,1.27,-5.98,2.93,-8.0,932.38,32.94
2907023,-0.01,-0.02,1.25,-6.04,2.93,-8.0,932.32,32.92
2907061,-0.02,-0.01,1.29,-5.68,1.83,-8.18,932.37,32.93
2907099,-0.02,-0.02,1.24,-6.04,2.5,-7.93,932.36,32.93
2907149,-0.01,-0.01,1.27,-5.68,2.01,-8.12,932.43,32.92
2907187,-0.01,-0.02,1.26,-5.62,2.5,-8.0,932.4,32.93
2907225,-0.01,-0.02,1.25,-5.49,2.32,-8.24,932.43,32.93
2907263,-0.02,-0.01,1.3,-5.37,2.56,-8.36,932.42,32.93
2907301,-0.01,-0.01,1.28,-5.62,2.56,-8.36,932.46,32.92
2907339,-0.01,-0.01,1.31,-5.62,2.32,-8.54,932.51,32.94
2907378,-0.02,-0.02,1.32,-5.55,2.32,-8.36,932.5,32.94
2907416,-0.01,-0.02,1.31,-5.49,2.32,-8.73,932.55,32.95
2907454,-0.01,-0.01,1.3,-5.62,2.32,-8.73,932.57,32.93
2907529,-0.0,-0.01,1.31,-5.49,1.77,-8.61,932.52,32.92
2907567,-0.02,-0.01,1.32,-5.43,1.65,-8.79,932.59,32.92
2907606,-0.02,-0.02,1.31,-5.31,2.01,-8.85,932.62,32.94
2907695,-0.01,-0.01,1.29,-5.19,1.71,-8.73,932.67,32.89
2907733,-0.01,-0.01,1.27,-4.88,1.59,-9.09,932.6,32.9
2907771,-0.01,-0.02,1.26,-4.88,2.08,-9.22,932.66,32.9
2907809,-0.02,-0.03,1.26,-4.76,2.32,-9.34,932.74,32.92
2907847,-0.03,-0.02,1.23,-4.64,2.5,-9.22,932.7,32.91
2907885,-0.03,-0.03,1.22,-5.07,2.93,-9.58,932.75,32.94
2907935,-0.02,-0.03,1.21,-5.37,3.42,-9.46,932.76,32.91
2907973,-0.03,-0.03,1.19,-5.86,3.17,-9.58,932.76,32.91
2908011,-0.04,-0.03,1.17,-6.04,2.93,-9.34,932.82,32.93
2908049,-0.02,-0.02,1.19,-6.23,2.87,-9.28,932.78,32.93
2908087,-0.04,-0.02,1.21,-6.35,3.3,-9.34,932.77,32.94
2908125,-0.04,-0.02,1.22,-6.59,3.42,-9.22,932.88,32.94
2908163,-0.03,-0.03,1.25,-6.53,3.48,-9.4,932.85,32.94
2908201,-0.04,-0.02,1.26,-6.65,3.85,-9.28,932.88,32.95
2908240,-0.04,-0.01,1.24,-7.02,3.48,-8.91,932.9,32.94
2908278,-0.05,-0.02,1.22,-6.9,3.48,-8.79,932.88,32.94
2908327,-0.04,-0.02,1.22,-7.2,3.11,-8.79,932.9,32.92
2908366,-0.04,-0.01,1.24,-7.32,2.81,-8.42,932.92,32.93
2908404,-0.04,-0.01,1.26,-7.45,3.11,-8.54,932.9,32.93
2908442,-0.04,-0.0,1.33,-7.32,2.81,-8.3,932.88,32.93
2908480,-0.05,-0.01,1.33,-7.69,2.93,-8.3,932.94,32.93
2908518,-0.05,-0.01,1.37,-7.63,3.05,-8.12,932.96,32.93
2908556,-0.04,0.0,1.36,-7.81,3.6,-8.12,932.96,32.91
2908594,-0.04,0.01,1.37,-7.51,3.42,-8.06,933.03,32.95
2908632,-0.04,0.01,1.38,-7.69,3.42,-7.87,932.98,32.94
2908682,-0.03,0.0,1.37,-7.45,3.66,-7.69,933.11,32.93
2908720,-0.04,0.01,1.42,-7.26,3.54,-7.51,933.05,32.94
2908758,-0.03,0.01,1.39,-6.9,4.15,-7.26,933.03,32.93
2908796,-0.05,0.02,1.41,-6.59,3.3,-7.26,933.01,32.92
2908834,-0.04,0.02,1.45,-6.23,4.15,-6.96,933.15,32.94
2908872,-0.02,0.01,1.43,-6.1,4.64,-7.14,933.07,32.94
2908910,-0.04,0.02,1.47,-5.62,4.21,-7.08,933.04,32.92
2908948,-0.03,0.02,1.44,-5.43,5.37,-6.9,933.15,32.93
2908986,-0.03,0.02,1.42,-5.07,6.04,-6.84,933.09,32.94
2909024,-0.04,0.02,1.41,-4.64,5.98,-6.84,933.12,32.93
2909074,-0.03,0.0,1.41,-4.27,6.65,-6.59,933.15,32.92
2909112,-0.05,0.02,1.39,-4.09,6.23,-6.41,933.16,32.94
2909150,-0.04,0.02,1.42,-3.91,6.59,-6.29,933.18,32.93
2909188,-0.01,0.01,1.38,-3.91,6.47,-6.29,933.16,32.94
2909226,-0.03,0.02,1.43,-3.48,5.43,-5.8,933.17,32.93
2909265,-0.02,0.0,1.38,-3.97,6.53,-5.55,933.19,32.94
2909303,-0.03,0.01,1.43,-4.09,5.07,-5.49,933.23,32.94
2909341,-0.02,0.01,1.43,-4.21,5.55,-5.49,933.15,32.93
2909379,-0.02,0.01,1.43,-4.52,4.82,-5.37,933.3,32.93
2909429,-0.03,0.01,1.42,-4.88,6.29,-5.31,933.2,32.92
2909467,-0.03,0.01,1.45,-4.58,5.13,-5.43,933.26,32.94
2909505,-0.03,0.0,1.43,-5.0,5.49,-5.25,933.25,32.94
2909543,-0.02,0.02,1.44,-5.13,4.64,-5.13,933.25,32.92
2909581,-0.0,0.01,1.41,-5.43,5.07,-5.19,933.25,32.94
2909619,-0.02,0.01,1.42,-5.43,4.58,-5.19,933.29,32.93
2909657,-0.02,0.0,1.41,-5.62,4.76,-5.0,933.22,32.94
2909695,0.0,0.01,1.42,-5.74,4.15,-5.13,933.26,32.94
2909733,-0.03,0.02,1.44,-5.68,3.97,-5.07,933.3,32.94
2909771,-0.02,0.01,1.44,-5.86,3.42,-5.0,933.27,32.93
2909821,-0.02,0.01,1.47,-5.62,3.42,-5.31,933.25,32.92
2909859,-0.02,0.0,1.47,-5.31,3.78,-5.13,933.31,32.94
2909897,-0.02,-0.0,1.45,-5.43,3.48,-5.07,933.32,32.92
2909935,-0.02,0.01,1.44,-5.31,3.6,-5.25,933.35,32.94
2909973,-0.01,-0.01,1.41,-5.0,4.33,-5.31,933.3,32.94
2910011,-0.01,-0.02,1.37,-4.88,4.21,-5.25,933.34,32.94
2910050,-0.01,-0.01,1.37,-4.33,3.54,-5.37,933.4,32.94
2910088,-0.02,-0.01,1.33,-4.39,3.48,-5.25,933.33,32.94
2910126,-0.02,-0.02,1.3,-4.27,3.05,-5.37,933.39,32.95
2910175,-0.02,-0.02,1.31,-4.27,2.99,-5.37,933.36,32.92
2910214,-0.01,-0.03,1.3,-4.64,2.62,-5.43,933.41,32.93
2910252,-0.02,-0.02,1.3,-4.76,2.5,-5.43,933.34,32.93
2910290,0.0,-0.02,1.29,-4.88,2.81,-5.62,933.41,32.94
2910328,-0.0,-0.02,1.31,-4.88,2.08,-5.62,933.36,32.94
2910366,-0.01,-0.03,1.28,-5.13,2.32,-5.49,933.43,32.94
2910404,-0.01,-0.02,1.29,-5.19,1.71,-5.68,933.41,32.94
2910442,-0.01,-0.02,1.29,-5.31,2.14,-5.74,933.32,32.92
2910480,0.0,-0.01,1.31,-5.37,1.46,-5.68,933.4,32.94
2910556,-0.01,-0.02,1.3,-5.98,-0.12,-5.62,933.38,32.91
2910594,-0.01,-0.01,1.33,-5.86,-0.67,-5.62,933.33,32.91
2910632,0.0,-0.0,1.36,-6.1,-0.79,-5.74,933.39,32.93
2910721,-0.01,-0.02,1.41,-5.74,0.12,-5.74,933.34,32.9
2910760,-0.01,-0.01,1.41,-5.19,-0.06,-5.86,933.41,32.91
2910798,-0.02,0.01,1.41,-4.82,1.1,-5.92,933.4,32.91
2910836,-0.01,-0.0,1.38,-4.27,1.46,-5.92,933.41,32.91
2910874,-0.02,-0.01,1.4,-3.05,1.89,-6.16,933.37,32.92
2910912,-0.01,-0.03,1.33,-2.87,2.81,-6.1,933.36,32.91
2910950,-0.02,-0.02,1.35,-1.71,3.11,-6.23,933.45,32.92
2911000,-0.01,-0.02,1.29,-1.59,4.09,-6.23,933.43,32.91
2911038,-0.03,-0.02,1.31,-0.92,3.91,-6.16,933.4,32.92
2911076,-0.01,-0.03,1.26,-1.16,5.43,-6.23,933.4,32.92
2911114,-0.02,-0.02,1.31,-0.98,4.7,-6.35,933.43,32.93
2911152,-0.01,-0.03,1.26,-0.98,6.65,-6.41,933.42,32.93
2911190,-0.01,-0.02,1.25,-0.73,6.16,-6.35,933.42,32.93
2911228,-0.01,-0.03,1.23,-0.49,7.14,-6.29,933.4,32.94
2911266,-0.01,-0.04,1.22,-0.37,7.08,-6.23,933.43,32.94
2911304,-0.02,-0.04,1.23,-0.37,7.51,-6.23,933.42,32.93
2911354,-0.01,-0.05,1.18,-0.49,7.93,-6.35,933.43,32.92
2911392,-0.01,-0.04,1.18,-0.49,8.0,-6.35,933.4,32.92
2911430,-0.0,-0.04,1.16,-0.79,8.67,-6.35,933.37,32.92
2911468,0.0,-0.04,1.13,-0.73,9.03,-6.35,933.47,32.93
2911506,-0.02,-0.05,1.07,-1.04,9.28,-6.35,933.49,32.94
2911544,-0.0,-0.06,1.05,-1.04,8.85,-6.29,933.43,32.93
2911582,-0.02,-0.06,1.04,-0.73,8.24,-6.29,933.49,32.93
2911620,-0.0,-0.06,0.97,-1.1,7.81,-6.16,933.4,32.92
2911658,0.0,-0.06,1.02,-0.85,5.92,-6.16,933.45,32.93
2911708,0.01,-0.07,0.93,-1.77,6.04,-6.04,933.43,32.92
2911746,-0.02,-0.05,0.96,-1.65,5.37,-5.98,933.47,32.94
2911784,-0.01,-0.07,0.93,-2.44,6.47,-5.92,933.41,32.93
2911822,0.01,-0.07,0.98,-2.87,4.15,-5.98,933.4,32.94
2911860,-0.01,-0.07,0.96,-3.54,4.88,-5.92,933.34,32.92
2911898,-0.02,-0.07,0.93,-3.91,4.94,-5.98,933.34,32.93
2911936,0.01,-0.06,1.0,-3.91,4.76,-6.16,933.42,32.92
2911975,0.02,-0.05,1.01,-4.52,4.21,-6.29,933.39,32.94
2912013,-0.01,-0.05,1.07,-4.94,4.39,-6.23,933.36,32.94
2912051,-0.0,-0.05,1.1,-5.19,6.1,-6.41,933.37,32.94
2912100,0.01,-0.03,1.19,-5.31,5.37,-6.47,933.39,32.93
2912139,-0.01,-0.04,1.17,-5.98,5.92,-6.59,933.39,32.93
2912177,0.0,-0.04,1.21,-5.86,6.59,-6.9,933.37,32.92
2912215,0.02,-0.04,1.21,-5.86,7.26,-7.02,933.33,32.92
2912253,-0.0,-0.03,1.21,-5.8,6.59,-6.9,933.32,32.93
2912291,-0.01,-0.03,1.23,-5.62,6.47,-7.02,933.37,32.94
2912329,0.01,-0.03,1.27,-5.86,6.65,-7.26,933.34,32.94
2912367,0.01,-0.03,1.32,-5.68,6.1,-7.39,933.31,32.94
2912405,0.0,-0.03,1.33,-5.8,5.31,-7.26,933.35,32.94
2912455,0.0,-0.02,1.36,-5.68,5.13,-7.45,933.32,32.93
2912493,0.01,-0.01,1.34,-5.74,5.13,-7.45,933.33,32.92
2912531,0.0,-0.01,1.39,-5.43,3.54,-7.51,933.36,32.93
2912569,-0.01,-0.01,1.34,-5.31,4.27,-7.45,933.36,32.94
2912607,0.0,-0.02,1.34,-5.19,3.91,-7.69,933.31,32.94
2912645,0.01,-0.03,1.26,-5.31,3.54,-7.81,933.34,32.93
2912683,-0.01,-0.03,1.28,-5.25,2.32,-7.63,933.41,32.95
2912722,-0.02,-0.03,1.21,-5.13,2.87,-7.63,933.4,32.94
2912760,-0.0,-0.02,1.21,-4.94,2.32,-7.75,933.4,32.94
2912809,-0.01,-0.04,1.18,-5.19,2.5,-7.63,933.36,32.92
2912847,-0.01,-0.04,1.19,-5.13,0.85,-7.81,933.33,32.94
2912886,-0.01,-0.04,1.22,-4.88,1.95,-7.81,933.4,32.93
2912924,-0.01,-0.04,1.21,-5.13,2.2,-8.18,933.36,32.93
2912962,-0.01,-0.03,1.21,-5.19,1.83,-8.0,933.39,32.93
2913000,-0.01,-0.04,1.19,-5.13,2.08,-8.12,933.33,32.94
2913038,-0.0,-0.03,1.2,-5.25,2.44,-8.18,933.35,32.94
2913076,-0.01,-0.03,1.21,-5.31,2.75,-8.06,933.34,32.94
2913114,-0.01,-0.03,1.23,-5.19,2.5,-8.18,933.34,32.94
2913152,-0.04,-0.03,1.22,-5.19,3.42,-8.3,933.38,32.94
2913202,-0.02,-0.02,1.24,-5.07,4.52,-8.36,933.45,32.93
2913240,-0.01,-0.03,1.23,-4.94,5.37,-8.36,933.39,32.93
2913278,-0.02,-0.02,1.22,-5.13,5.92,-8.36,933.41,32.94
2913316,-0.03,-0.02,1.24,-4.27,6.41,-8.36,933.44,32.94
2913354,-0.01,-0.04,1.18,-4.76,7.26,-8.42,933.41,32.92
2913392,-0.02,-0.02,1.23,-4.7,6.04,-8.36,933.36,32.93
2913430,-0.02,-0.04,1.17,-4.82,7.45,-8.12,933.41,32.95
2913469,-0.01,-0.03,1.19,-4.82,6.9,-8.12,933.39,32.94
2913507,-0.01,-0.03,1.18,-4.52,6.96,-8.18,933.37,32.94
2913582,-0.01,-0.03,1.22,-4.82,6.23,-8.0,933.31,32.9
2913621,-0.01,-0.02,1.19,-5.07,5.49,-8.12,933.34,32.93
2913659,-0.02,-0.02,1.23,-5.13,5.13,-7.93,933.31,32.92
2913748,-0.02,-0.02,1.25,-5.19,4.21,-7.69,933.28,32.9
2913786,-0.02,-0.02,1.26,-5.25,4.09,-7.63,933.27,32.9
2913824,0.0,-0.02,1.24,-5.31,3.6,-7.87,933.3,32.92
2913862,-0.02,-0.01,1.24,-4.76,2.99,-7.75,933.3,32.92
2913900,-0.0,-0.02,1.23,-4.82,2.99,-7.51,933.29,32.92
2913938,-0.01,-0.02,1.24,-4.94,2.32,-7.75,933.29,32.93
2913988,-0.03,-0.03,1.24,-4.64,2.32,-7.63,933.23,32.9
2914026,-0.01,-0.02,1.23,-4.76,1.65,-7.81,933.34,32.92
2914064,-0.0,-0.01,1.25,-4.7,1.59,-7.93,933.34,32.92
2914102,-0.01,-0.02,1.23,-4.39,1.59,-8.0,933.31,32.91
2914140,-0.01,-0.02,1.24,-4.39,1.34,-7.93,933.3,32.92
2914179,-0.01,-0.02,1.22,-4.21,1.59,-8.0,933.28,32.92
2914217,-0.02,-0.02,1.23,-3.97,0.92,-8.24,933.31,32.93
2914255,-0.01,-0.02,1.2,-4.15,1.77,-8.18,933.26,32.94
2914293,-0.02,-0.02,1.2,-4.27,0.79,-8.42,933.3,32.93
2914331,-0.01,-0.02,1.23,-4.21,0.79,-8.42,933.28,32.92
2914381,-0.02,-0.02,1.24,-4.15,0.37,-8.24,933.3,32.92
2914419,-0.01,-0.01,1.24,-4.21,0.31,-8.36,933.3,32.93
2914457,-0.02,-0.01,1.27,-4.09,-0.06,-8.36,933.25,32.92
2914495,-0.02,-0.01,1.26,-4.27,-0.12,-8.3,933.23,32.93
2914533,-0.02,-0.01,1.26,-4.21,-0.37,-8.36,933.24,32.93
2914571,-0.02,-0.0,1.26,-4.21,-0.49,-8.36,933.31,32.93
2914609,-0.02,-0.01,1.26,-4.15,-0.31,-8.18,933.26,32.94
2914647,-0.02,0.0,1.26,-4.03,-0.61,-8.42,933.24,32.93
2914686,-0.02,0.0,1.25,-3.97,0.55,-8.42,933.29,32.93
2914735,-0.02,-0.0,1.27,-3.91,0.67,-8.67,933.24,32.92
2914773,-0.01,-0.01,1.27,-3.85,1.04,-8.61,933.2,32.93
2914811,-0.02,-0.0,1.24,-3.66,1.77,-8.67,933.26,32.93
2914850,-0.02,-0.0,1.26,-3.54,1.34,-8.85,933.31,32.94
2914888,-0.03,-0.0,1.24,-3.66,2.14,-8.97,933.29,32.94
2914926,-0.02,-0.0,1.26,-3.3,2.14,-9.09,933.26,32.94
2914964,-0.02,-0.01,1.27,-3.11,3.11,-8.97,933.28,32.93
2915002,-0.02,-0.0,1.26,-2.93,3.11,-8.97,933.25,32.93
2915040,-0.02,-0.0,1.28,-2.62,3.91,-9.22,933.28,32.95
2915090,-0.01,-0.01,1.26,-2.5,3.72,-9.09,933.19,32.92
2915128,-0.03,-0.01,1.26,-2.5,4.03,-9.16,933.24,32.94
2915166,-0.01,-0.02,1.21,-2.38,4.94,-8.91,933.27,32.94
2915204,-0.02,-0.01,1.21,-1.77,3.97,-9.09,933.34,32.93
2915242,-0.02,-0.02,1.17,-1.71,5.07,-9.16,933.25,32.93
2915280,-0.01,-0.03,1.17,-1.53,4.39,-9.16,933.32,32.95
2915318,-0.02,-0.02,1.16,-1.4,4.76,-9.16,933.32,32.94
2915356,-0.02,-0.03,1.13,-1.28,4.39,-9.28,933.3,32.94
2915394,-0.02,-0.02,1.15,-0.85,4.7,-9.4,933.24,32.94
2915433,0.0,-0.02,1.15,-1.28,4.88,-9.4,933.22,32.94
2915482,-0.03,-0.03,1.14,-1.22,4.7,-9.34,933.23,32.93
2915520,-0.03,-0.03,1.15,-1.16,4.82,-9.28,933.23,32.93
2915558,-0.03,-0.03,1.14,-1.22,4.58,-9.28,933.27,32.94
2915597,-0.03,-0.02,1.13,-1.28,4.58,-9.16,933.29,32.94
2915635,-0.03,-0.03,1.13,-1.46,4.64,-9.28,933.21,32.93
2915673,-0.03,-0.03,1.1,-1.59,4.64,-9.09,933.2,32.93
2915711,-0.03,-0.03,1.14,-1.77,4.33,-9.16,933.22,32.94
2915749,-0.03,-0.03,1.19,-1.53,3.54,-8.97,933.19,32.95
2915787,-0.02,-0.04,1.13,-1.83,3.78,-8.91,933.21,32.94
2915837,-0.04,-0.03,1.13,-1.22,3.48,-8.91,933.23,32.93
2915875,-0.03,-0.05,1.06,-1.59,4.88,-8.85,933.22,32.93
2915913,-0.02,-0.03,1.07,-1.46,2.75,-8.79,933.25,32.94
2915951,-0.03,-0.04,1.09,-1.4,3.54,-8.91,933.12,32.95
2915989,-0.01,-0.04,1.11,-2.08,2.87,-8.67,933.19,32.96
2916028,-0.03,-0.01,1.16,-2.14,2.38,-8.3,933.16,32.94
2916066,-0.04,-0.03,1.16,-2.38,2.14,-8.06,933.16,32.95
2916104,-0.03,-0.04,1.17,-2.87,1.4,-7.93,933.08,32.93
2916142,-0.04,-0.02,1.19,-3.17,0.92,-8.0,933.13,32.93
2916192,-0.03,-0.03,1.21,-2.99,1.34,-7.75,933.2,32.92
2916230,-0.03,-0.04,1.19,-2.75,1.95,-8.0,933.21,32.93
2916268,-0.03,-0.03,1.1,-2.56,2.08,-7.93,933.25,32.93
2916306,-0.04,-0.03,1.14,-2.01,0.55,-7.69,933.22,32.93
2916344,-0.04,-0.06,1.06,-2.14,1.46,-7.63,933.19,32.94
2916382,-0.04,-0.05,1.01,-2.08,0.49,-7.63,933.18,32.94
2916420,-0.04,-0.05,0.95,-2.2,0.06,-7.39,933.21,32.94
2916458,-0.04,-0.06,0.9,-2.69,-0.18,-7.14,933.18,32.96
2916496,-0.05,-0.05,0.95,-2.75,-0.43,-7.26,933.16,32.96
2916624,-0.05,-0.05,1.01,-3.6,3.23,-7.32,933.16,32.89
2916662,-0.06,-0.04,1.1,-3.78,3.66,-7.39,933.19,32.9
2916700,-0.04,-0.03,1.16,-4.15,4.46,-7.39,933.18,32.93
2916789,-0.06,-0.03,1.16,-4.03,5.0,-6.77,933.18,32.88
2916827,-0.04,-0.04,1.15,-4.15,4.64,-6.65,933.16,32.89
2916866,-0.05,-0.02,1.22,-4.15,3.78,-6.65,933.18,32.91
2916904,-0.07,-0.03,1.21,-4.09,4.88,-6.41,933.16,32.91
2916942,-0.04,-0.02,1.27,-3.78,3.91,-6.29,933.07,32.92
2916980,-0.04,-0.02,1.29,-3.78,4.46,-6.41,933.1,32.91
2917018,-0.05,-0.03,1.24,-4.09,4.33,-6.16,933.07,32.91
2917068,-0.04,-0.02,1.26,-4.21,4.82,-5.98,933.07,32.91
2917106,-0.05,-0.02,1.29,-3.91,4.94,-6.04,933.07,32.9
2917144,-0.05,-0.0,1.31,-3.54,3.97,-5.8,933.04,32.93
2917182,-0.07,-0.01,1.31,-3.54,4.15,-5.62,933.06,32.92
2917220,-0.05,-0.02,1.32,-3.42,2.75,-5.55,932.99,32.92
2917258,-0.06,-0.01,1.33,-3.23,2.75,-5.43,933.03,32.92
2917296,-0.05,-0.01,1.35,-3.36,1.1,-5.0,932.98,32.92
2917334,-0.06,-0.0,1.4,-3.17,-0.24,-4.82,933.04,32.93
2917373,-0.08,-0.02,1.34,-3.17,0.31,-4.82,932.97,32.92
2917422,-0.06,-0.01,1.36,-2.62,-0.24,-4.64,932.96,32.93
2917460,-0.07,-0.01,1.32,-2.93,0.18,-4.64,932.98,32.94
2917499,-0.07,-0.01,1.29,-2.75,-0.55,-4.52,932.99,32.92
2917537,-0.07,-0.01,1.28,-2.62,-0.37,-4.27,932.99,32.92
2917575,-0.07,-0.02,1.28,-2.38,-0.31,-4.33,933.01,32.94
2917613,-0.05,-0.02,1.29,-2.32,-0.18,-4.09,933.0,32.92
2917651,-0.06,-0.01,1.31,-2.08,-0.24,-4.09,932.96,32.93
2917689,-0.06,-0.02,1.3,-1.95,0.55,-4.03,933.0,32.93
2917727,-0.07,-0.02,1.29,-1.89,1.04,-4.03,932.98,32.93
2917777,-0.06,-0.02,1.33,-1.89,1.1,-3.91,932.94,32.93
2917815,-0.07,-0.01,1.3,-1.53,0.98,-3.85,932.95,32.92
2917853,-0.07,-0.02,1.31,-1.46,2.01,-3.72,932.93,32.94
2917891,-0.04,-0.02,1.28,-1.53,1.83,-3.72,932.96,32.93
2917929,-0.06,-0.01,1.3,-1.04,1.16,-3.78,932.91,32.94
2917967,-0.05,-0.03,1.25,-1.28,2.26,-3.72,932.98,32.94
2918005,-0.04,-0.02,1.32,-0.98,1.65,-3.85,932.91,32.93
2918043,-0.06,-0.02,1.31,-1.28,2.5,-3.78,932.91,32.92
2918081,-0.07,-0.01,1.3,-1.1,0.98,-3.48,932.87,32.93
2918119,-0.06,-0.02,1.3,-1.16,1.65,-3.66,932.84,32.93
2918169,-0.05,-0.02,1.32,-1.16,0.92,-3.54,932.9,32.92
2918207,-0.05,-0.03,1.24,-1.46,1.28,-3.42,932.9,32.93
2918245,-0.06,-0.02,1.25,-0.85,-0.43,-3.48,932.89,32.92
2918283,-0.04,-0.04,1.2,-0.85,0.61,-3.42,932.87,32.93
2918321,-0.09,-0.03,1.19,-0.85,-1.46,-2.99,932.86,32.94
2918359,-0.05,-0.05,1.21,-0.73,-2.26,-2.87,932.83,32.94
2918398,-0.06,-0.05,1.11,-1.46,-2.14,-2.87,932.85,32.93
2918436,-0.06,-0.02,1.18,-1.28,-3.78,-3.05,932.85,32.93
2918474,-0.05,-0.05,1.1,-1.77,-1.71,-2.69,932.83,32.93
2918523,-0.05,-0.05,1.16,-1.53,-3.6,-2.69,932.9,32.93
2918562,-0.05,-0.05,1.14,-1.95,-2.75,-2.56,932.89,32.92
2918600,-0.06,-0.04,1.19,-2.01,-3.97,-2.32,932.83,32.93
2918638,-0.06,-0.05,1.19,-1.71,-3.05,-2.44,932.85,32.94
2918676,-0.06,-0.05,1.14,-2.2,-3.42,-2.32,932.8,32.94
