timestamp,acc_x,acc_y,acc_z,rot_x,rot_y,rot_z,qfe,temp,Unnamed: 10
3543536,-0.01,-0.08,1.08,1.4,3.36,3.05,924.65,24.63,
3543574,-0.01,-0.08,1.06,1.53,3.05,2.99,924.65,24.64,
3543613,-0.02,-0.09,1.05,1.53,3.66,2.99,924.65,24.64,
3543651,-0.02,-0.08,1.05,1.65,3.78,2.81,924.67,24.63,
3543689,-0.01,-0.09,1.05,1.59,3.48,2.81,924.69,24.65,
3543727,-0.01,-0.08,1.03,1.59,3.3,2.69,924.63,24.63,
3543766,-0.01,-0.09,1.05,1.22,3.66,2.69,924.64,24.63,
3543815,-0.02,-0.09,1.04,1.34,2.99,2.69,924.67,24.63,
3543854,-0.02,-0.09,1.02,1.4,3.17,2.5,924.63,24.64,
3543892,-0.01,-0.08,1.0,1.4,3.11,2.56,924.72,24.64,
3543930,-0.01,-0.08,1.01,1.4,2.93,2.38,924.64,24.64,
3543968,-0.02,-0.09,0.98,1.4,2.81,2.44,924.59,24.63,
3544006,-0.02,-0.08,0.98,1.34,2.56,2.38,924.67,24.64,
3544045,-0.01,-0.08,0.99,1.34,2.99,2.14,924.68,24.66,
3544083,-0.01,-0.08,0.97,1.4,2.32,2.26,924.7,24.65,
3544121,-0.02,-0.08,0.98,1.71,2.69,2.08,924.66,24.65,
3544159,-0.01,-0.08,0.95,1.28,2.69,2.08,924.58,24.63,
3544209,-0.02,-0.08,0.95,1.4,2.62,2.14,924.67,24.63,
3544247,-0.02,-0.08,0.94,1.53,2.32,1.89,924.65,24.64,
3544286,-0.02,-0.08,0.96,1.53,2.56,1.83,924.67,24.63,
3544324,-0.01,-0.08,0.97,1.46,2.69,1.83,924.68,24.64,
3544362,-0.02,-0.08,0.99,1.59,2.5,1.77,924.68,24.64,
3544400,-0.02,-0.08,1.01,1.71,2.75,1.71,924.66,24.65,
3544438,-0.03,-0.08,0.97,1.71,2.93,1.59,924.66,24.65,
3544477,-0.04,-0.08,1.0,1.89,2.5,1.65,924.57,24.65,
3544515,-0.04,-0.09,0.95,1.95,3.78,1.71,924.68,24.65,
3544565,-0.04,-0.07,0.97,1.95,3.3,1.59,924.63,24.64,
3544603,-0.04,-0.08,0.95,1.65,4.39,1.65,924.63,24.64,
3544641,-0.03,-0.08,0.93,1.65,4.94,1.53,924.57,24.64,
3544679,-0.04,-0.07,0.94,1.46,5.55,1.65,924.65,24.65,
3544718,-0.04,-0.07,0.98,1.83,5.68,1.77,924.63,24.65,
3544756,-0.03,-0.08,0.96,1.77,5.86,1.71,924.65,24.65,
3544794,-0.03,-0.08,0.97,2.2,5.74,1.77,924.62,24.65,
3544832,-0.04,-0.08,0.95,2.14,6.41,1.71,924.68,24.65,
3544870,-0.03,-0.07,0.98,2.38,5.55,2.2,924.57,24.64,
3544909,-0.03,-0.08,0.97,2.5,5.43,1.89,924.67,24.66,
3544959,-0.06,-0.08,0.92,2.56,5.07,2.2,924.6,24.63,
3544997,-0.04,-0.08,0.94,2.62,4.76,2.14,924.65,24.64,
3545035,-0.03,-0.08,0.93,2.56,4.21,2.08,924.71,24.65,
3545073,-0.03,-0.07,0.95,2.44,3.11,2.26,924.7,24.66,
3545111,-0.04,-0.08,0.95,2.5,3.11,2.32,924.65,24.65,
3545150,-0.03,-0.08,0.95,2.44,2.14,2.32,924.69,24.65,
3545188,-0.03,-0.08,0.94,2.26,1.77,2.56,924.66,24.66,
3545226,-0.03,-0.07,0.93,2.2,1.1,2.38,924.69,24.66,
3545264,-0.04,-0.07,0.95,2.44,1.16,2.38,924.68,24.65,
3545303,-0.03,-0.09,0.9,2.14,1.71,2.56,924.7,24.65,
3545353,-0.03,-0.08,0.96,2.62,0.67,2.56,924.66,24.64,
3545391,-0.02,-0.08,0.96,2.44,1.83,2.44,924.7,24.65,
3545429,-0.04,-0.08,0.97,2.75,1.77,2.44,924.67,24.66,
3545467,-0.03,-0.08,0.99,2.56,1.71,2.5,924.73,24.66,
3545505,-0.02,-0.08,0.98,2.81,1.65,2.38,924.7,24.64,
3545544,-0.03,-0.08,0.94,2.44,2.44,2.5,924.7,24.65,
3545582,-0.02,-0.08,0.94,2.5,2.44,2.38,924.73,24.64,
3545620,-0.03,-0.08,0.93,2.32,2.62,2.32,924.74,24.65,
3545658,-0.02,-0.08,0.93,2.32,2.69,2.2,924.77,24.65,
3545817,-0.01,-0.08,1.0,2.5,2.38,2.08,924.77,24.6,
3545855,-0.01,-0.08,0.98,2.32,1.95,2.08,924.74,24.61,
3545893,-0.03,-0.08,0.97,2.38,1.34,2.08,924.78,24.61,
3546084,-0.03,-0.08,0.9,1.95,2.14,2.08,924.69,24.54,
3546122,-0.02,-0.08,0.93,1.71,2.14,1.89,924.77,24.57,
3546161,-0.03,-0.08,0.9,1.83,2.2,1.95,924.72,24.58,
3546199,-0.03,-0.08,0.93,1.83,1.83,1.77,924.82,24.6,
3546237,-0.03,-0.08,0.93,1.89,2.38,1.77,924.78,24.61,
3546275,-0.02,-0.08,0.96,1.89,2.08,1.83,924.79,24.6,
3546313,-0.03,-0.08,0.96,1.77,1.89,1.77,924.73,24.59,
3546363,-0.03,-0.08,0.93,1.83,2.2,1.71,924.79,24.6,
3546402,-0.03,-0.08,0.94,1.83,2.44,1.83,924.81,24.61,
3546440,-0.02,-0.09,0.91,1.89,2.14,1.95,924.79,24.6,
3546478,-0.03,-0.08,0.95,1.77,2.08,1.77,924.79,24.62,
3546516,-0.03,-0.08,0.94,1.71,2.44,1.77,924.76,24.61,
3546555,-0.02,-0.08,0.94,1.89,2.44,1.83,924.87,24.63,
3546593,-0.03,-0.07,0.93,1.71,2.62,1.89,924.82,24.63,
3546631,-0.03,-0.08,0.94,1.83,2.81,1.77,924.79,24.63,
3546669,-0.02,-0.08,0.94,1.71,3.36,1.77,924.86,24.63,
3546719,-0.02,-0.08,0.95,1.77,3.17,1.83,924.86,24.62,
3546757,-0.03,-0.08,0.94,1.77,2.87,1.71,924.83,24.62,
3546796,-0.02,-0.08,0.95,1.77,2.56,1.77,924.81,24.63,
3546834,-0.03,-0.08,0.95,1.77,2.44,1.89,924.84,24.63,
3546872,-0.03,-0.08,0.94,1.65,2.01,1.71,924.89,24.64,
3546910,-0.04,-0.08,0.95,1.71,1.65,1.89,924.85,24.65,
3546949,-0.03,-0.08,0.96,1.65,1.59,1.95,924.82,24.63,
3546987,-0.03,-0.08,0.99,1.71,1.65,1.95,924.75,24.64,
3547025,-0.03,-0.08,1.01,1.46,1.59,1.95,924.81,24.63,
3547063,-0.03,-0.08,1.05,1.65,1.4,2.01,924.87,24.63,
3547113,-0.04,-0.08,1.04,1.71,1.89,2.08,924.89,24.62,
3547151,-0.03,-0.07,1.04,1.59,1.95,2.01,924.89,24.63,
3547190,-0.02,-0.08,1.04,1.59,1.83,2.08,924.88,24.63,
3547228,-0.01,-0.07,1.02,1.77,1.22,2.14,924.95,24.63,
3547266,-0.02,-0.07,1.01,1.65,1.28,1.83,924.92,24.63,
3547304,-0.02,-0.07,1.02,1.71,0.92,1.95,924.94,24.64,
3547343,-0.03,-0.08,1.03,1.59,1.04,2.01,924.91,24.65,
3547381,-0.02,-0.08,1.05,1.83,1.1,1.83,924.94,24.64,
3547419,-0.03,-0.08,1.03,1.89,1.04,1.89,924.97,24.66,
3547457,-0.03,-0.08,1.03,2.08,1.04,1.77,924.96,24.64,
3547507,-0.02,-0.08,1.01,2.01,1.71,1.83,924.97,24.64,
3547545,-0.02,-0.08,1.0,2.14,1.95,1.95,925.03,24.64,
3547583,-0.03,-0.08,0.98,2.2,2.08,1.89,924.97,24.64,
3547622,-0.04,-0.08,0.96,2.44,2.99,1.77,925.01,24.64,
3547660,-0.02,-0.07,0.94,2.44,3.3,1.89,924.95,24.64,
3547698,-0.02,-0.08,0.92,2.75,3.3,1.71,925.03,24.64,
3547736,-0.03,-0.08,0.93,2.99,3.78,1.83,924.98,24.65,
3547775,-0.02,-0.08,0.89,2.99,4.27,1.89,925.01,24.65,
3547813,-0.02,-0.08,0.92,2.87,4.21,1.89,924.97,24.65,
3547863,-0.04,-0.08,0.92,2.62,3.97,2.01,925.03,24.63,
3547901,-0.03,-0.08,0.98,2.75,3.72,1.83,925.0,24.64,
3547939,-0.01,-0.09,0.97,2.44,3.85,2.01,925.04,24.65,
3547978,-0.02,-0.08,0.99,2.14,3.6,1.89,925.07,24.64,
3548016,-0.02,-0.07,0.98,1.83,3.6,2.01,925.05,24.63,
3548054,-0.03,-0.08,0.98,2.14,3.72,2.2,925.01,24.64,
3548092,-0.02,-0.08,0.94,1.83,4.7,1.83,925.06,24.62,
3548130,-0.02,-0.08,0.92,1.71,4.46,1.89,925.04,24.63,
3548169,-0.02,-0.08,0.93,1.46,4.76,1.89,924.99,24.63,
3548207,-0.02,-0.08,0.93,1.71,4.46,1.95,925.07,24.64,
3548257,-0.01,-0.08,0.94,1.71,4.52,1.83,925.02,24.61,
3548295,-0.02,-0.08,0.93,1.59,3.91,1.89,925.06,24.63,
3548333,-0.03,-0.09,0.96,1.46,4.21,1.95,925.08,24.63,
3548371,-0.02,-0.08,0.98,1.46,4.03,1.83,925.08,24.64,
3548410,-0.02,-0.08,1.0,1.4,3.85,1.89,925.06,24.63,
3548448,-0.02,-0.08,1.01,1.16,4.03,1.95,925.1,24.63,
3548486,-0.01,-0.08,1.03,1.16,4.09,1.83,925.08,24.63,
3548524,-0.02,-0.08,1.04,1.04,4.21,1.71,925.09,24.63,
3548562,-0.02,-0.08,1.03,1.1,4.27,2.08,925.15,24.64,
3548601,-0.02,-0.08,1.05,1.22,4.33,1.89,925.1,24.62,
3548651,-0.02,-0.08,1.06,1.22,4.64,1.89,925.13,24.63,
3548689,-0.02,-0.08,1.08,1.22,4.33,1.77,925.14,24.64,
3548727,-0.01,-0.08,1.07,1.16,4.88,1.89,925.13,24.63,
3548765,-0.02,-0.08,1.07,1.34,4.39,1.83,925.09,24.64,
3548803,-0.02,-0.08,1.07,1.34,4.46,2.01,925.14,24.64,
3548842,-0.03,-0.09,1.07,1.28,4.7,1.95,925.18,24.65,
3548880,-0.03,-0.09,1.06,1.4,4.64,2.01,925.11,24.63,
3548918,-0.02,-0.08,1.05,1.4,4.7,1.77,925.14,24.64,
3548956,-0.03,-0.08,1.04,1.4,4.58,1.95,925.17,24.65,
3549032,-0.03,-0.08,1.03,1.22,4.27,2.01,925.14,24.61,
3549070,-0.02,-0.08,1.01,1.16,3.91,2.01,925.19,24.63,
3549109,-0.03,-0.07,1.01,1.28,3.17,1.89,925.16,24.63,
3549198,-0.03,-0.07,1.05,1.53,2.56,2.08,925.17,24.6,
3549237,-0.03,-0.09,1.02,1.16,3.11,2.14,925.18,24.61,
3549275,-0.04,-0.08,1.04,1.34,3.23,1.95,925.22,24.62,
3549313,-0.03,-0.08,1.02,1.16,4.52,2.14,925.13,24.62,
3549351,-0.02,-0.08,1.03,1.28,4.33,2.01,925.17,24.62,
3549389,-0.04,-0.09,1.04,1.34,4.64,2.01,925.24,24.63,
3549428,-0.03,-0.08,1.06,1.34,5.07,1.89,925.2,24.62,
3549478,-0.01,-0.08,1.11,1.28,5.31,1.95,925.19,24.63,
3549516,-0.04,-0.09,1.14,0.73,4.94,1.89,925.21,24.63,
3549554,-0.03,-0.07,1.23,1.04,4.46,2.08,925.12,24.63,
3549592,-0.05,-0.09,1.24,1.46,6.04,2.08,925.18,24.64,
3549630,-0.02,-0.09,1.23,1.65,5.92,2.08,925.16,24.64,
3549669,-0.02,-0.08,1.32,2.01,5.74,2.08,925.17,24.64,
3549707,-0.04,-0.09,1.22,1.77,7.51,2.14,925.24,24.64,
3549745,-0.03,-0.08,1.26,2.2,6.96,2.26,925.2,24.64,
3549783,-0.04,-0.08,1.22,2.2,8.54,2.14,925.15,24.63,
3549822,-0.04,-0.09,1.24,2.62,8.12,2.08,925.2,24.64,
3549871,-0.03,-0.08,1.23,2.01,8.12,2.2,925.23,24.63,
3549910,-0.02,-0.08,1.3,2.44,6.96,2.2,925.25,24.64,
3549948,-0.0,-0.09,1.22,1.28,8.48,2.38,925.2,24.64,
3549986,-0.01,-0.06,1.31,1.65,6.47,2.44,925.23,24.64,
3550024,-0.04,-0.08,1.29,1.89,7.2,2.5,925.24,24.64,
3550062,-0.04,-0.08,1.25,1.59,6.41,2.38,925.2,24.65,
3550101,-0.01,-0.09,1.33,1.95,5.62,2.2,925.2,24.64,
3550139,-0.0,-0.09,1.21,1.53,5.68,2.32,925.18,24.65,
3550177,0.0,-0.08,1.25,1.95,4.27,2.26,925.26,24.64,
3550227,-0.01,-0.09,1.2,1.4,4.39,2.01,925.25,24.63,
3550265,-0.01,-0.09,1.22,2.01,4.09,2.01,925.17,24.63,
3550303,-0.01,-0.09,1.17,1.77,3.72,1.89,925.18,24.66,
3550342,-0.02,-0.09,1.2,2.32,2.93,1.77,925.19,24.64,
3550380,0.01,-0.11,1.16,1.71,3.97,1.46,925.18,24.65,
3550418,-0.0,-0.09,1.2,1.95,2.32,1.28,925.12,24.64,
3550456,-0.02,-0.1,1.17,1.71,3.78,1.4,925.17,24.63,
3550495,-0.02,-0.1,1.14,1.53,3.72,1.22,925.14,24.62,
3550533,-0.02,-0.09,1.18,1.65,3.54,1.16,925.19,24.63,
3550571,-0.02,-0.1,1.13,1.34,3.23,0.92,925.19,24.64,
3550621,0.0,-0.09,1.12,1.77,3.97,0.79,925.12,24.62,
3550659,0.0,-0.09,1.04,1.28,4.82,0.37,925.13,24.62,
3550697,0.02,-0.08,1.1,1.4,4.15,0.43,925.12,24.64,
3550735,-0.02,-0.1,1.07,1.22,5.49,0.43,925.1,24.63,
3550774,-0.02,-0.08,1.17,1.16,4.09,0.37,925.07,24.62,
3550812,0.03,-0.1,1.23,1.59,4.33,0.12,925.11,24.62,
3550850,0.02,-0.09,1.08,0.31,3.3,-0.06,925.12,24.64,
3550888,-0.0,-0.06,1.25,1.65,0.06,0.18,925.08,24.63,
3550926,0.04,-0.13,1.07,0.85,1.1,0.0,925.06,24.63,
3550965,-0.03,-0.07,1.09,1.59,-2.69,-0.24,925.01,24.63,
3551015,-0.01,-0.09,1.0,1.65,-2.69,-0.12,925.03,24.62,
3551053,0.01,-0.09,0.93,2.08,-3.48,-0.98,925.06,24.64,
3551091,-0.04,-0.09,0.83,1.95,-3.72,-0.67,925.04,24.63,
3551129,-0.03,-0.09,0.8,1.89,-3.36,-0.98,924.96,24.63,
3551167,-0.04,-0.1,0.75,0.98,-1.28,-1.16,924.98,24.63,
3551206,-0.06,-0.08,0.77,0.79,-0.31,-0.85,924.96,24.64,
3551244,-0.04,-0.09,0.81,0.92,0.92,-0.98,924.97,24.64,
3551282,-0.04,-0.09,0.83,-0.12,1.4,-1.34,924.97,24.64,
3551320,-0.05,-0.08,0.94,0.24,2.81,-1.16,924.96,24.64,
3551370,-0.04,-0.08,0.99,0.24,3.97,-1.16,924.93,24.63,
3551409,-0.05,-0.08,1.09,0.92,4.27,-0.98,924.96,24.64,
3551447,-0.05,-0.09,1.09,0.67,6.04,-0.67,924.93,24.63,
3551485,-0.04,-0.08,1.16,1.04,5.49,-0.92,924.92,24.63,
3551523,-0.05,-0.08,1.13,0.92,6.23,-0.55,924.93,24.63,
3551562,-0.04,-0.07,1.14,1.1,5.74,-0.43,924.93,24.63,
3551600,-0.03,-0.07,1.19,1.4,5.92,-0.37,924.97,24.64,
3551638,-0.04,-0.08,1.17,1.71,7.02,-0.06,924.91,24.64,
3551676,-0.03,-0.08,1.19,2.01,6.96,0.18,924.92,24.63,
3551714,-0.05,-0.08,1.15,2.32,9.58,0.18,924.89,24.64,
3551764,-0.02,-0.08,1.19,2.75,10.44,0.31,924.94,24.62,
3551803,-0.0,-0.07,1.15,2.81,12.27,0.37,924.86,24.63,
3551841,-0.01,-0.07,1.15,3.23,12.51,0.24,924.83,24.63,
3551879,0.0,-0.08,1.15,3.48,13.31,0.31,924.9,24.64,
3551917,-0.02,-0.08,1.12,3.72,13.73,0.31,924.83,24.63,
3551956,0.0,-0.08,1.14,3.78,14.04,0.24,924.84,24.64,
3551994,-0.01,-0.08,1.04,3.54,14.28,0.18,924.87,24.64,
3552032,-0.02,-0.07,1.08,3.97,13.55,0.18,924.8,24.63,
3552070,0.0,-0.1,1.02,3.91,14.28,0.24,924.79,24.64,
3552146,-0.02,-0.09,1.06,4.27,14.28,0.31,924.78,24.6,
3552185,-0.02,-0.09,1.07,3.78,14.04,0.31,924.76,24.62,
3552223,-0.02,-0.09,1.18,4.58,14.1,0.18,924.76,24.64,
3552313,0.01,-0.1,1.11,4.33,13.67,0.31,924.7,24.59,
3552351,0.01,-0.06,1.05,3.6,11.47,0.12,924.69,24.61,
3552389,0.03,-0.07,1.14,3.97,10.56,0.12,924.69,24.61,
3552427,0.01,-0.09,1.06,3.3,9.52,0.43,924.69,24.62,
3552466,-0.01,-0.07,1.15,4.52,5.13,0.49,924.69,24.62,
3552504,0.01,-0.11,1.01,3.97,6.96,0.18,924.68,24.62,
3552542,-0.02,-0.09,0.99,4.21,6.04,0.06,924.67,24.63,
3552592,0.03,-0.09,0.98,4.7,5.55,0.24,924.62,24.61,
3552630,0.01,-0.08,0.96,4.64,3.97,-0.12,924.65,24.63,
3552668,-0.02,-0.09,0.89,4.46,5.62,0.12,924.61,24.62,
3552707,0.01,-0.1,0.87,3.91,6.9,0.0,924.59,24.63,
3552745,0.02,-0.08,0.95,4.46,4.03,-0.24,924.58,24.62,
3552783,0.0,-0.1,0.86,3.97,4.21,-0.18,924.63,24.64,
3552821,-0.01,-0.1,0.79,3.48,5.92,-0.61,924.56,24.63,
3552859,0.02,-0.09,0.87,3.78,5.0,-0.79,924.56,24.63,
3552898,0.02,-0.11,0.73,3.42,6.29,-0.85,924.52,24.63,
3552936,0.0,-0.07,0.78,2.38,5.13,-1.1,924.5,24.63,
3552986,0.03,-0.11,0.87,2.69,8.85,-1.28,924.51,24.62,
3553024,0.03,-0.08,0.98,2.08,6.41,-1.59,924.47,24.64,
3553062,0.0,-0.11,1.03,2.56,6.84,-1.59,924.46,24.63,
3553100,-0.02,-0.1,0.88,0.31,8.97,-1.95,924.47,24.62,
3553139,0.01,-0.07,0.93,1.4,8.73,-2.2,924.47,24.63,
3553177,0.01,-0.12,0.85,1.22,9.16,-2.69,924.43,24.64,
3553215,0.01,-0.11,0.78,0.79,9.58,-2.62,924.45,24.63,
3553253,-0.01,-0.08,0.66,0.06,9.7,-2.93,924.48,24.62,
3553292,0.03,-0.07,0.76,-0.12,8.67,-3.48,924.39,24.63,
3553341,-0.01,-0.11,0.82,-0.92,8.97,-3.42,924.39,24.61,
3553380,-0.04,-0.11,0.89,-1.1,9.28,-3.48,924.35,24.62,
3553418,0.02,-0.09,1.0,-0.79,11.11,-3.85,924.29,24.62,
3553456,-0.03,-0.08,0.95,-1.04,10.86,-3.85,924.37,24.63,
3553494,-0.04,-0.11,0.98,-0.06,10.38,-3.72,924.34,24.62,
3553533,-0.0,-0.12,0.97,-0.85,11.66,-3.91,924.3,24.61,
3553571,-0.01,-0.09,0.97,-0.92,10.68,-4.03,924.36,24.62,
3553609,-0.01,-0.09,0.98,-0.98,10.13,-4.03,924.31,24.62,
3553647,-0.03,-0.1,0.95,-1.04,9.34,-4.03,924.29,24.63,
3553697,-0.02,-0.11,0.99,-1.16,9.22,-3.91,924.29,24.62,
3553736,-0.03,-0.1,0.98,-1.22,7.45,-3.97,924.27,24.62,
3553774,-0.02,-0.09,0.98,-1.04,6.96,-4.03,924.28,24.62,
3553812,-0.05,-0.1,0.92,-0.98,6.04,-4.03,924.34,24.63,
3553850,-0.02,-0.09,0.93,-0.49,5.0,-3.97,924.3,24.63,
3553889,-0.02,-0.1,0.84,-0.92,5.31,-4.03,924.32,24.63,
3553927,-0.04,-0.09,0.82,-0.92,5.19,-4.03,924.21,24.63,
3553965,-0.06,-0.1,0.88,-0.98,5.62,-3.97,924.21,24.64,
3554003,-0.04,-0.11,0.89,-1.22,6.23,-4.09,924.19,24.63,
3554042,-0.05,-0.08,0.99,-0.92,5.86,-3.85,924.29,24.63,
3554091,-0.04,-0.09,1.01,-0.92,7.93,-3.78,924.18,24.61,
3554130,-0.03,-0.08,1.08,-0.06,7.08,-3.72,924.23,24.63,
3554168,-0.04,-0.11,1.01,0.12,9.09,-3.66,924.17,24.62,
3554206,-0.03,-0.08,1.07,0.67,8.24,-3.91,924.21,24.63,
3554244,-0.04,-0.09,1.09,0.67,9.4,-3.6,924.23,24.63,
3554283,-0.05,-0.08,1.1,0.92,9.4,-3.54,924.26,24.62,
3554321,-0.04,-0.09,1.1,1.46,9.4,-3.6,924.23,24.63,
3554359,-0.02,-0.09,1.03,1.28,8.85,-3.72,924.18,24.62,
3554397,-0.04,-0.08,1.02,1.65,7.87,-3.54,924.16,24.63,
3554447,-0.04,-0.09,1.0,1.71,8.12,-3.42,924.14,24.62,
3554486,-0.03,-0.08,1.04,1.28,6.71,-3.3,924.16,24.63,
3554524,-0.03,-0.08,1.08,1.46,7.08,-3.05,924.2,24.64,
3554562,-0.02,-0.1,1.06,1.1,6.29,-2.93,924.15,24.63,
3554600,-0.04,-0.09,1.07,1.28,4.7,-2.99,924.16,24.63,
3554638,-0.04,-0.09,1.06,1.77,6.1,-2.93,924.15,24.62,
3554677,-0.03,-0.09,0.99,1.71,5.74,-2.56,924.12,24.63,
3554715,-0.03,-0.07,1.01,2.08,6.35,-2.87,924.14,24.63,
3554753,-0.06,-0.09,0.99,2.08,6.9,-2.62,924.11,24.62,
3554791,-0.03,-0.1,1.02,2.26,7.93,-2.44,924.11,24.64,
3554841,-0.02,-0.09,1.04,2.26,9.09,-2.62,924.13,24.61,
3554880,-0.03,-0.1,1.01,2.32,10.62,-2.44,924.08,24.62,
3554918,-0.03,-0.09,0.97,2.44,12.02,-2.2,924.13,24.64,
3554956,-0.01,-0.09,0.95,2.2,12.15,-2.38,924.08,24.63,
3554994,-0.0,-0.08,0.96,1.59,11.6,-2.38,924.05,24.62,
3555033,-0.02,-0.09,0.96,1.04,11.41,-2.01,923.99,24.62,
3555071,-0.01,-0.09,0.99,0.37,12.39,-2.32,924.03,24.62,
3555109,-0.0,-0.09,0.98,-0.37,12.7,-2.2,924.03,24.62,
3555147,-0.0,-0.09,1.03,-0.92,10.86,-2.2,924.06,24.64,
3555223,-0.02,-0.08,1.14,-2.32,10.68,-2.14,924.06,24.6,
3555262,0.03,-0.1,1.17,-3.6,11.11,-2.2,924.06,24.6,
3555300,0.02,-0.08,1.27,-3.72,10.07,-2.56,923.99,24.6,
3555390,0.01,-0.09,1.33,-4.76,10.07,-2.2,923.95,24.58,
3555428,-0.0,-0.08,1.32,-5.74,10.01,-2.56,924.01,24.59,
3555466,-0.01,-0.07,1.37,-5.68,9.89,-2.32,923.97,24.61,
3555504,0.01,-0.09,1.35,-5.55,10.19,-2.69,924.01,24.61,
3555543,0.01,-0.08,1.4,-5.62,8.91,-2.93,923.96,24.6,
3555581,0.01,-0.07,1.4,-6.1,8.48,-2.69,923.9,24.61,
3555631,0.02,-0.07,1.46,-6.16,7.08,-2.87,923.9,24.59,
3555669,-0.01,-0.08,1.48,-6.53,6.9,-3.23,923.96,24.61,
3555707,-0.01,-0.06,1.52,-6.65,6.77,-3.42,923.9,24.61,
3555746,0.02,-0.05,1.6,-6.53,6.77,-3.78,923.9,24.61,
3555784,0.01,-0.05,1.64,-6.53,6.65,-3.72,923.88,24.61,
3555822,-0.02,-0.06,1.61,-6.29,7.26,-4.09,923.91,24.62,
3555860,-0.0,-0.03,1.78,-5.74,5.74,-4.03,923.88,24.62,
3555899,0.01,-0.06,1.6,-6.29,5.98,-4.09,923.89,24.63,
3555937,-0.01,-0.04,1.64,-5.62,2.44,-4.21,923.89,24.61,
3555975,-0.02,-0.08,1.53,-4.94,4.52,-4.21,923.92,24.63,
3556025,0.01,-0.07,1.46,-5.07,1.53,-4.27,923.91,24.61,
3556063,-0.02,-0.09,1.35,-5.13,3.11,-4.46,923.85,24.62,
3556102,-0.01,-0.09,1.31,-5.8,1.1,-4.52,923.82,24.63,
3556140,0.01,-0.08,1.29,-6.41,0.31,-5.0,923.79,24.61,
3556178,-0.02,-0.07,1.24,-6.59,-0.55,-4.88,923.83,24.61,
3556216,0.01,-0.06,1.37,-5.98,-1.04,-5.13,923.81,24.62,
3556254,0.0,-0.09,1.28,-6.23,0.06,-5.37,923.83,24.62,
3556293,-0.02,-0.07,1.37,-5.07,-1.4,-5.43,923.82,24.63,
3556331,-0.04,-0.09,1.31,-5.25,0.67,-5.49,923.76,24.62,
3556381,-0.04,-0.06,1.33,-4.09,1.4,-5.62,923.87,24.61,
3556419,-0.01,-0.07,1.29,-3.78,3.36,-5.68,923.76,24.61,
3556457,-0.04,-0.09,1.29,-2.44,3.85,-5.8,923.74,24.62,
3556495,-0.03,-0.09,1.27,-1.83,6.35,-5.74,923.7,24.61,
3556534,-0.02,-0.08,1.24,-1.46,7.69,-5.92,923.78,24.63,
3556572,-0.03,-0.07,1.18,-1.22,8.91,-5.92,923.72,24.61,
3556610,-0.05,-0.08,1.1,-1.16,11.05,-5.98,923.61,24.62,
3556648,-0.03,-0.1,1.06,-0.79,12.15,-5.98,923.66,24.63,
3556687,-0.01,-0.09,1.07,-0.73,12.45,-5.98,923.57,24.62,
3556736,-0.02,-0.08,1.01,-1.04,12.63,-5.74,923.54,24.61,
3556775,-0.02,-0.08,1.05,-1.65,13.24,-5.74,923.45,24.61,
3556813,-0.03,-0.1,1.11,-3.11,13.49,-5.49,923.42,24.61,
3556851,-0.03,-0.1,1.16,-4.39,13.06,-5.37,923.46,24.62,
3556889,-0.03,-0.07,1.25,-5.0,13.43,-5.49,923.44,24.62,
3556928,-0.01,-0.07,1.28,-6.04,13.43,-5.13,923.4,24.62,
3556966,-0.02,-0.08,1.31,-6.35,12.57,-4.94,923.35,24.61,
3557004,-0.02,-0.09,1.33,-6.96,13.18,-4.7,923.34,24.61,
3557042,-0.03,-0.08,1.32,-7.45,13.49,-4.58,923.35,24.62,
3557092,-0.02,-0.07,1.35,-8.0,12.82,-4.52,923.42,24.61,
3557130,-0.02,-0.07,1.35,-7.87,12.27,-4.52,923.39,24.62,
3557169,-0.02,-0.07,1.4,-7.75,12.33,-4.27,923.32,24.63,
3557207,-0.01,-0.08,1.4,-7.51,12.27,-4.21,923.31,24.63,
3557245,0.01,-0.06,1.45,-7.02,11.11,-3.97,923.38,24.63,
3557283,-0.0,-0.06,1.42,-6.84,11.78,-4.09,923.35,24.63,
3557322,-0.01,-0.07,1.45,-6.41,10.44,-3.85,923.32,24.62,
3557360,-0.0,-0.07,1.48,-6.29,10.5,-3.78,923.3,24.63,
3557398,0.01,-0.07,1.47,-5.8,10.68,-3.97,923.23,24.62,
3557436,-0.01,-0.07,1.43,-5.68,10.86,-3.91,923.32,24.63,
3557486,0.01,-0.07,1.42,-5.0,11.78,-3.85,923.24,24.62,
3557524,0.01,-0.08,1.36,-4.39,11.78,-3.91,923.27,24.63,
3557563,0.01,-0.08,1.33,-4.15,11.54,-4.09,923.16,24.63,
3557601,0.01,-0.08,1.26,-3.97,11.78,-4.21,923.13,24.61,
3557639,0.03,-0.08,1.23,-4.15,11.6,-4.46,923.19,24.61,
3557677,0.04,-0.1,1.15,-4.64,11.35,-4.52,923.09,24.63,
3557716,0.05,-0.09,1.08,-6.16,9.83,-4.76,923.05,24.62,
3557754,0.04,-0.09,1.07,-7.02,8.79,-4.94,923.05,24.62,
3557792,0.05,-0.08,1.05,-8.79,6.9,-5.31,923.02,24.62,
3557842,0.03,-0.08,1.09,-9.4,5.55,-5.55,923.05,24.61,
3557880,0.02,-0.08,1.01,-10.01,5.62,-5.98,923.0,24.62,
3557918,0.03,-0.07,1.14,-9.64,4.46,-6.41,922.9,24.62,
3557957,0.05,-0.08,1.12,-10.68,5.68,-6.41,922.89,24.62,
3557995,0.02,-0.07,1.28,-10.13,4.58,-6.9,922.88,24.61,
3558033,0.02,-0.07,1.28,-10.8,7.45,-7.51,922.9,24.62,
3558071,0.02,-0.06,1.39,-10.8,6.29,-7.87,922.86,24.61,
3558110,0.01,-0.04,1.5,-10.5,6.77,-8.06,922.87,24.62,
3558148,-0.0,-0.03,1.57,-9.95,6.71,-8.42,922.9,24.61,
3558224,-0.02,-0.04,1.64,-7.45,6.84,-8.12,922.86,24.59,
3558262,-0.02,-0.04,1.62,-5.98,6.65,-8.3,922.9,24.62,
3558300,-0.01,-0.03,1.54,-5.07,6.59,-8.48,922.83,24.6,
3558390,-0.04,-0.06,1.42,-2.87,4.03,-8.18,922.71,24.57,
3558428,-0.04,-0.06,1.36,-2.26,3.66,-8.24,922.63,24.58,
3558466,-0.06,-0.07,1.26,-2.81,3.72,-8.3,922.5,24.59,
3558504,-0.05,-0.07,1.2,-3.78,3.23,-8.06,922.54,24.58,
3558543,-0.06,-0.05,1.2,-5.25,1.53,-8.12,922.54,24.6,
3558581,-0.08,-0.08,1.22,-6.1,2.38,-7.63,922.52,24.6,
3558619,-0.06,-0.07,1.26,-6.84,1.77,-7.57,922.49,24.61,
3558669,-0.08,-0.05,1.26,-7.14,0.98,-7.02,922.49,24.6,
3558707,-0.06,-0.06,1.3,-7.45,-0.37,-6.71,922.45,24.6,
3558745,-0.06,-0.06,1.27,-7.87,-0.12,-6.47,922.37,24.6,
3558784,-0.08,-0.05,1.33,-8.3,-2.14,-5.98,922.34,24.6,
3558822,-0.08,-0.06,1.31,-8.61,-2.75,-5.25,922.36,24.6,
3558860,-0.07,-0.05,1.37,-8.79,-4.39,-5.19,922.33,24.61,
3558898,-0.07,-0.06,1.36,-9.22,-3.85,-4.7,922.32,24.61,
3558936,-0.08,-0.06,1.42,-9.83,-5.19,-4.46,922.26,24.6,
3558975,-0.08,-0.05,1.47,-10.25,-5.25,-4.09,922.28,24.6,
3559025,-0.05,-0.03,1.54,-11.11,-4.52,-4.03,922.27,24.59,
3559063,-0.06,-0.03,1.58,-11.6,-3.85,-3.54,922.34,24.6,
3559101,-0.06,-0.02,1.64,-11.54,-4.39,-3.48,922.2,24.61,
3559139,-0.06,-0.03,1.64,-11.05,-2.62,-3.17,922.26,24.61,
3559177,-0.05,-0.02,1.64,-10.31,-1.83,-3.17,922.28,24.61,
3559216,-0.05,-0.01,1.67,-9.64,-1.04,-2.93,922.3,24.62,
3559254,-0.05,-0.03,1.57,-8.79,0.18,-2.62,922.31,24.61,
3559292,-0.05,-0.03,1.61,-8.12,-0.06,-2.62,922.28,24.61,
3559330,-0.03,-0.04,1.5,-7.81,2.26,-2.81,922.32,24.61,
3559380,-0.0,-0.01,1.57,-6.77,0.24,-2.75,922.26,24.6,
3559419,-0.01,-0.05,1.45,-7.02,1.04,-2.26,922.2,24.62,
3559457,-0.04,-0.05,1.44,-7.08,0.49,-2.75,922.25,24.62,
3559495,-0.02,-0.05,1.42,-7.57,2.38,-2.62,922.3,24.62,
3559533,-0.0,-0.04,1.34,-7.45,1.53,-2.81,922.24,24.62,
3559572,-0.0,-0.02,1.36,-6.9,1.71,-2.69,922.24,24.6,
3559610,0.0,-0.06,1.3,-6.71,2.44,-3.11,922.19,24.62,
3559648,0.01,-0.06,1.32,-6.04,1.83,-3.23,922.18,24.61,
3559686,0.01,-0.06,1.3,-5.55,1.89,-3.3,922.19,24.6,
3559736,-0.0,-0.05,1.28,-4.64,2.32,-3.54,922.2,24.6,
3559775,0.01,-0.06,1.23,-4.27,2.99,-3.91,922.17,24.61,
3559813,0.02,-0.06,1.21,-4.03,2.26,-3.97,922.16,24.61,
3559851,0.01,-0.06,1.18,-3.85,2.5,-4.03,922.14,24.61,
3559889,0.02,-0.06,1.16,-3.66,2.81,-4.15,922.04,24.6,
3559927,0.02,-0.05,1.19,-2.87,2.75,-4.33,922.05,24.6,
3559966,0.03,-0.06,1.17,-2.44,2.99,-4.64,922.06,24.62,
3560004,0.02,-0.06,1.16,-1.65,2.38,-4.76,922.04,24.62,
3560042,0.02,-0.07,1.12,-1.22,3.05,-5.07,921.97,24.61,
3560080,0.03,-0.06,1.09,-0.92,2.69,-5.31,922.03,24.62,
3560130,0.03,-0.06,1.03,-0.85,2.75,-5.55,921.91,24.6,
3560169,0.02,-0.07,0.99,-1.34,2.81,-5.68,921.93,24.6,
3560207,0.02,-0.08,0.96,-1.95,2.93,-6.04,921.77,24.61,
3560245,0.03,-0.07,0.96,-2.93,3.05,-6.23,921.82,24.6,
3560283,0.02,-0.06,0.98,-3.66,3.11,-6.35,921.75,24.61,
3560322,0.02,-0.07,1.02,-4.39,3.36,-6.65,921.76,24.61,
3560360,0.03,-0.07,1.03,-4.7,3.42,-6.77,921.8,24.62,
3560398,0.03,-0.07,1.01,-5.25,3.11,-7.02,921.73,24.62,
3560436,0.02,-0.05,1.03,-5.07,1.83,-7.14,921.75,24.62,
3560486,0.02,-0.06,1.0,-5.86,1.83,-7.45,921.69,24.61,
3560524,0.03,-0.06,1.04,-6.16,0.43,-7.69,921.66,24.61,
3560563,0.02,-0.07,1.04,-7.2,-0.06,-7.81,921.57,24.6,
3560601,0.03,-0.05,1.08,-7.81,-0.55,-8.0,921.61,24.61,
3560639,0.01,-0.05,1.12,-8.24,-0.79,-8.18,921.55,24.62,
3560677,0.01,-0.05,1.15,-8.18,-1.16,-8.48,921.52,24.6,
3560715,-0.0,-0.03,1.22,-8.18,-1.65,-8.61,921.53,24.62,
3560754,0.0,-0.03,1.3,-8.12,-1.28,-8.79,921.56,24.61,
3560792,0.01,-0.02,1.38,-7.51,-1.53,-8.85,921.57,24.62,
3560842,-0.02,-0.02,1.42,-6.16,-0.98,-9.03,921.52,24.61,
3560880,-0.01,-0.01,1.43,-5.8,-0.85,-8.85,921.57,24.61,
3560918,0.0,-0.01,1.44,-4.88,-0.37,-9.16,921.51,24.61,
3560956,-0.01,-0.02,1.37,-4.76,-0.37,-9.09,921.5,24.6,
3560995,-0.02,-0.01,1.41,-4.09,-0.24,-9.4,921.5,24.61,
3561033,0.0,-0.02,1.4,-4.03,0.79,-9.46,921.56,24.62,
3561071,0.01,-0.0,1.49,-3.23,0.67,-9.28,921.5,24.61,
3561109,-0.02,-0.0,1.47,-2.75,1.1,-9.28,921.47,24.61,
3561148,-0.04,-0.0,1.51,-1.65,0.55,-9.4,921.46,24.61,
3561186,-0.02,-0.0,1.49,-1.1,1.65,-9.22,921.34,24.6,
3561262,-0.01,-0.02,1.35,-0.06,2.81,-8.97,921.42,24.58,
3561300,-0.01,-0.02,1.27,-0.12,2.56,-9.09,921.39,24.59,
3561338,-0.0,-0.03,1.2,-0.24,2.32,-8.97,921.31,24.6,
3561428,-0.02,-0.04,1.12,-1.65,2.75,-8.85,921.25,24.57,
3561466,0.0,-0.05,1.08,-2.44,2.87,-9.16,921.23,24.56,
3561504,-0.02,-0.05,1.1,-3.11,1.46,-8.97,921.21,24.58,
3561543,-0.01,-0.05,1.06,-3.78,1.83,-8.85,921.27,24.57,
3561581,-0.0,-0.05,1.03,-4.39,1.71,-8.97,921.16,24.58,
3561619,-0.02,-0.04,1.01,-4.58,1.53,-8.61,921.2,24.57,
3561669,-0.01,-0.05,1.02,-5.13,1.04,-8.91,921.23,24.58,
3561707,-0.03,-0.04,1.05,-4.7,1.46,-8.79,921.17,24.58,
3561746,-0.01,-0.04,1.08,-4.33,0.98,-8.61,921.22,24.59,
3561784,-0.02,-0.05,1.15,-3.23,1.1,-8.97,921.2,24.59,
3561822,-0.02,-0.04,1.1,-2.56,1.53,-8.67,921.16,24.58,
3561860,-0.01,-0.03,1.15,-1.46,1.34,-8.67,921.18,24.59,
3561899,-0.01,-0.05,1.08,-1.1,1.89,-8.67,921.12,24.59,
3561937,-0.02,-0.04,1.07,-0.43,1.04,-8.73,921.06,24.59,
3561975,-0.02,-0.05,1.0,-0.06,1.77,-8.73,921.06,24.59,
3562025,-0.01,-0.05,0.97,0.24,0.67,-8.79,921.01,24.58,
3562063,0.0,-0.06,0.94,-0.06,0.67,-8.85,921.1,24.6,
3562102,-0.01,-0.06,0.91,-0.18,1.1,-8.91,921.08,24.6,
3562140,-0.01,-0.06,0.89,-0.37,1.53,-8.91,921.05,24.6,
3562178,0.0,-0.05,0.88,-0.98,1.83,-9.09,921.04,24.59,
3562216,-0.01,-0.06,0.87,-1.34,1.83,-9.16,921.05,24.6,
3562254,-0.01,-0.06,0.85,-1.53,2.56,-9.34,921.08,24.61,
3562293,-0.01,-0.06,0.87,-1.77,3.78,-9.4,921.05,24.6,
3562331,0.0,-0.06,0.85,-2.32,3.66,-9.4,921.01,24.59,
3562369,-0.02,-0.06,0.88,-2.01,4.15,-9.34,920.96,24.6,
3562419,-0.01,-0.07,0.85,-2.44,4.7,-9.16,920.97,24.59,
3562457,-0.02,-0.06,0.89,-2.44,4.88,-9.4,920.93,24.6,
3562496,-0.0,-0.06,0.9,-2.87,5.25,-9.34,920.95,24.6,
3562534,0.0,-0.05,0.92,-3.17,4.94,-9.46,920.9,24.6,
3562572,-0.01,-0.06,0.92,-3.6,4.94,-9.34,920.89,24.6,
3562610,-0.01,-0.05,0.92,-4.21,4.46,-9.09,920.88,24.6,
3562649,-0.02,-0.05,0.95,-4.58,3.78,-9.4,920.89,24.62,
3562687,-0.02,-0.05,0.96,-5.07,2.87,-9.52,920.82,24.6,
3562725,-0.02,-0.05,0.99,-5.13,3.05,-9.34,920.83,24.6,
3562775,-0.02,-0.04,1.01,-5.19,2.62,-9.52,920.83,24.59,
3562813,-0.01,-0.04,1.05,-5.25,2.38,-9.28,920.79,24.59,
3562851,-0.02,-0.04,1.05,-5.31,2.75,-9.46,920.79,24.57,
3562890,-0.03,-0.04,1.07,-5.13,2.87,-9.46,920.81,24.58,
3562928,-0.02,-0.04,1.07,-5.31,3.42,-9.52,920.8,24.58,
3562966,-0.02,-0.03,1.09,-5.07,2.87,-9.52,920.82,24.59,
3563004,-0.03,-0.04,1.09,-5.0,3.3,-9.4,920.81,24.6,
3563042,-0.02,-0.04,1.12,-4.88,2.69,-9.58,920.75,24.58,
3563081,-0.02,-0.04,1.13,-5.0,2.99,-9.09,920.76,24.59,
3563131,-0.03,-0.03,1.12,-4.76,2.2,-9.22,920.76,24.57,
3563169,-0.02,-0.03,1.13,-5.0,2.81,-9.22,920.76,24.58,
3563207,-0.02,-0.03,1.14,-5.0,2.14,-9.16,920.74,24.57,
3563245,-0.02,-0.03,1.16,-4.94,1.83,-9.09,920.77,24.58,
3563284,-0.03,-0.03,1.14,-5.07,2.2,-9.09,920.76,24.59,
3563322,-0.02,-0.02,1.16,-5.0,2.14,-9.03,920.79,24.58,
3563360,-0.03,-0.03,1.16,-4.88,2.32,-9.03,920.73,24.58,
3563398,-0.04,-0.03,1.16,-4.82,2.38,-8.85,920.76,24.58,
3563437,-0.03,-0.04,1.13,-5.0,2.99,-8.91,920.73,24.57,
3563475,-0.02,-0.03,1.17,-4.94,2.56,-8.91,920.75,24.58,
3563525,-0.03,-0.03,1.15,-5.07,2.93,-8.73,920.8,24.58,
3563563,-0.04,-0.02,1.19,-4.82,2.32,-8.54,920.75,24.57,
3563601,-0.03,-0.03,1.18,-4.88,2.99,-8.54,920.76,24.58,
3563640,-0.03,-0.02,1.19,-4.58,2.56,-8.54,920.76,24.58,
3563678,-0.02,-0.02,1.21,-4.33,2.87,-8.24,920.74,24.57,
3563716,-0.03,-0.02,1.19,-3.91,2.81,-8.06,920.75,24.57,
3563754,-0.03,-0.02,1.2,-3.6,2.81,-8.06,920.75,24.58,
3563792,-0.03,-0.03,1.18,-3.3,2.75,-8.0,920.73,24.59,
3563831,-0.03,-0.02,1.17,-3.05,2.87,-7.87,920.73,24.58,
3563881,-0.03,-0.02,1.17,-2.93,2.62,-7.93,920.72,24.57,
3563919,-0.03,-0.03,1.14,-2.93,2.69,-7.75,920.77,24.59,
3563957,-0.02,-0.03,1.14,-3.23,2.44,-7.81,920.73,24.59,
3563995,-0.03,-0.04,1.14,-3.36,2.62,-7.81,920.77,24.59,
3564034,-0.03,-0.03,1.1,-3.54,2.01,-7.69,920.75,24.59,
3564072,-0.03,-0.02,1.13,-4.09,1.89,-7.63,920.75,24.59,
3564110,-0.02,-0.03,1.13,-4.33,2.08,-7.51,920.68,24.58,
3564148,-0.02,-0.03,1.14,-5.13,1.4,-7.45,920.75,24.58,
3564187,-0.02,-0.02,1.17,-5.68,1.04,-7.45,920.73,24.59,
3564264,-0.02,-0.01,1.24,-6.47,0.92,-6.9,920.69,24.57,
3564302,-0.03,-0.01,1.3,-6.71,0.31,-6.96,920.71,24.57,
3564340,-0.02,-0.01,1.31,-7.02,0.12,-6.71,920.76,24.58,
3564430,-0.01,0.02,1.43,-6.96,-0.43,-6.47,920.75,24.54,
3564468,-0.01,0.02,1.45,-6.41,0.55,-6.71,920.76,24.56,
3564507,-0.01,0.01,1.46,-5.92,1.53,-6.77,920.78,24.56,
3564545,-0.0,0.0,1.42,-5.74,2.5,-6.84,920.76,24.56,
3564583,-0.02,0.02,1.44,-5.25,3.05,-6.96,920.77,24.57,
3564621,-0.01,-0.0,1.39,-5.37,4.09,-7.2,920.76,24.58,
3564660,0.0,-0.01,1.43,-5.19,4.15,-7.26,920.75,24.57,
3564710,0.01,-0.01,1.32,-5.49,4.46,-7.2,920.7,24.58,
3564748,0.01,0.02,1.39,-5.37,3.48,-7.26,920.76,24.59,
3564786,0.0,-0.01,1.27,-6.04,4.39,-7.39,920.67,24.59,
3564824,0.0,-0.01,1.34,-6.1,3.54,-7.51,920.74,24.59,
3564862,0.02,-0.03,1.34,-6.47,3.54,-7.57,920.65,24.58,
3564901,-0.01,-0.02,1.33,-6.59,2.81,-7.63,920.65,24.59,
3564939,-0.0,-0.01,1.33,-6.77,3.23,-7.69,920.69,24.6,
3564977,0.02,-0.02,1.33,-6.84,2.99,-7.69,920.66,24.58,
3565015,0.01,-0.01,1.36,-7.2,2.38,-8.0,920.65,24.59,
3565065,0.0,-0.02,1.31,-7.32,2.75,-8.0,920.68,24.58,
3565103,-0.0,-0.02,1.27,-7.32,3.3,-8.24,920.65,24.57,
3565142,0.02,-0.01,1.31,-7.08,2.44,-8.42,920.71,24.58,
3565180,0.01,-0.02,1.32,-7.26,2.99,-8.54,920.67,24.58,
3565218,0.0,-0.02,1.29,-6.9,3.54,-8.67,920.73,24.58,
3565256,0.0,-0.03,1.31,-6.65,4.03,-8.91,920.75,24.59,
3565295,0.01,-0.02,1.3,-6.53,4.21,-9.09,920.7,24.58,
3565333,0.0,-0.02,1.29,-6.41,4.21,-9.16,920.65,24.59,
3565371,0.0,-0.03,1.3,-6.29,4.46,-9.22,920.66,24.58,
3565409,0.01,-0.03,1.27,-6.35,5.19,-9.64,920.67,24.59,
3565459,-0.01,-0.03,1.28,-6.41,5.92,-9.58,920.65,24.57,
3565498,-0.0,-0.02,1.27,-6.53,5.98,-9.83,920.74,24.59,
3565536,0.01,-0.01,1.3,-6.77,5.74,-10.07,920.68,24.57,
3565574,-0.0,-0.02,1.28,-7.08,6.41,-10.07,920.68,24.58,
3565612,0.0,-0.02,1.28,-7.14,6.59,-10.19,920.61,24.58,
3565650,0.01,-0.02,1.31,-7.32,7.26,-10.31,920.64,24.57,
3565689,-0.01,-0.01,1.36,-7.45,6.41,-10.44,920.61,24.57,
3565727,-0.01,-0.01,1.38,-7.63,5.92,-10.19,920.6,24.58,
3565765,-0.02,0.0,1.4,-7.57,6.1,-10.38,920.58,24.58,
3565815,-0.0,-0.0,1.42,-7.51,4.64,-10.19,920.6,24.57,
3565853,-0.01,-0.01,1.4,-7.39,4.58,-10.25,920.61,24.58,
3565892,0.01,0.01,1.44,-6.65,3.54,-10.31,920.66,24.58,
3565930,-0.01,0.0,1.42,-5.98,4.39,-10.25,920.59,24.57,
3565968,-0.02,-0.01,1.37,-5.13,4.09,-10.07,920.6,24.58,
3566006,-0.02,-0.01,1.34,-4.33,4.09,-10.44,920.59,24.56,
3566045,-0.03,-0.02,1.25,-3.91,4.76,-10.19,920.62,24.58,
3566083,-0.01,-0.02,1.21,-3.66,3.91,-10.5,920.56,24.58,
3566121,-0.02,-0.03,1.17,-3.85,4.27,-10.5,920.61,24.59,
3566171,-0.02,-0.04,1.15,-4.03,4.21,-10.25,920.51,24.55,
3566209,-0.01,-0.04,1.14,-4.58,4.46,-10.44,920.54,24.56,
3566248,-0.03,-0.04,1.1,-4.88,4.39,-10.38,920.49,24.56,
3566286,-0.02,-0.03,1.12,-4.94,4.03,-10.25,920.52,24.57,
3566324,-0.01,-0.04,1.1,-5.62,4.52,-10.56,920.53,24.57,
3566362,-0.01,-0.02,1.12,-5.92,3.97,-10.5,920.56,24.58,
3566400,-0.04,-0.03,1.15,-6.23,4.33,-10.25,920.49,24.56,
3566439,-0.01,-0.04,1.13,-6.65,4.15,-10.25,920.51,24.57,
3566477,-0.02,-0.03,1.18,-6.65,3.05,-10.25,920.49,24.56,
3566527,-0.03,-0.02,1.19,-6.59,2.5,-10.25,920.54,24.57,
3566565,-0.01,-0.02,1.22,-6.77,2.32,-10.07,920.43,24.56,
3566603,-0.03,-0.02,1.22,-6.84,2.69,-10.07,920.44,24.57,
3566642,-0.03,-0.03,1.22,-6.84,2.5,-9.83,920.49,24.58,
3566680,-0.03,-0.04,1.2,-7.32,2.81,-9.89,920.47,24.59,
3566718,-0.02,-0.03,1.2,-7.39,3.11,-9.89,920.47,24.58,
3566756,-0.01,-0.04,1.16,-7.39,3.11,-9.64,920.44,24.57,
3566795,-0.02,-0.04,1.15,-7.93,2.75,-10.01,920.49,24.58,
3566833,-0.01,-0.02,1.19,-8.12,2.69,-10.07,920.44,24.57,
3566883,-0.02,-0.03,1.2,-8.61,2.44,-9.83,920.45,24.56,
3566921,-0.01,-0.03,1.28,-8.79,1.28,-10.07,920.42,24.57,
3566959,-0.03,-0.03,1.3,-9.03,2.01,-10.07,920.42,24.57,
3566998,-0.02,-0.02,1.34,-9.52,1.71,-10.13,920.43,24.57,
3567036,-0.01,-0.01,1.37,-9.7,1.53,-10.07,920.41,24.57,
3567074,-0.04,-0.0,1.39,-9.52,1.04,-10.01,920.42,24.57,
3567112,-0.03,0.01,1.43,-9.83,1.28,-9.95,920.41,24.59,
3567150,-0.02,0.02,1.48,-9.64,0.98,-9.95,920.35,24.58,
3567189,-0.02,0.02,1.53,-9.28,-0.06,-9.77,920.39,24.57,
3567227,-0.04,0.01,1.53,-9.28,0.67,-10.01,920.34,24.56,
3567303,-0.02,0.03,1.58,-8.48,1.83,-9.83,920.43,24.54,
3567341,-0.03,0.02,1.53,-7.87,2.01,-9.95,920.39,24.55,
3567379,-0.04,0.02,1.54,-7.32,2.99,-9.83,920.38,24.54,
3567469,-0.02,0.02,1.55,-6.59,4.33,-9.7,920.36,24.5,
3567507,-0.04,0.02,1.52,-6.59,5.13,-9.52,920.32,24.52,
3567545,-0.04,0.03,1.53,-6.41,4.82,-9.28,920.41,24.53,
3567584,-0.03,0.02,1.48,-6.65,5.86,-9.09,920.28,24.54,
3567622,-0.04,0.02,1.52,-6.47,5.25,-9.09,920.28,24.53,
3567660,-0.03,0.01,1.5,-7.02,6.53,-8.97,920.24,24.53,
3567710,-0.02,0.03,1.58,-6.59,5.8,-8.73,920.33,24.53,
3567748,-0.02,0.03,1.52,-6.77,6.71,-8.67,920.29,24.52,
3567786,-0.03,0.04,1.57,-6.53,5.8,-8.24,920.26,24.54,
3567825,-0.01,0.03,1.56,-6.53,5.86,-8.12,920.32,24.54,
3567863,-0.03,0.02,1.5,-6.35,4.7,-7.87,920.24,24.53,
3567901,-0.04,0.03,1.49,-6.23,4.58,-7.57,920.26,24.53,
3567939,-0.02,0.01,1.47,-5.98,5.07,-7.32,920.29,24.54,
3567978,-0.01,0.02,1.44,-5.49,4.33,-7.32,920.24,24.53,
3568016,-0.04,0.01,1.39,-4.76,3.72,-6.9,920.23,24.53,
3568054,-0.01,-0.01,1.37,-4.58,4.94,-7.08,920.28,24.54,
3568104,-0.01,0.0,1.37,-3.6,4.64,-6.71,920.19,24.52,
3568142,-0.02,-0.01,1.34,-3.42,4.46,-6.59,920.26,24.54,
3568181,-0.02,-0.01,1.33,-2.99,4.46,-6.84,920.26,24.53,
3568219,-0.02,-0.0,1.34,-2.38,4.58,-6.59,920.25,24.54,
3568257,0.0,-0.01,1.28,-2.56,5.0,-6.65,920.2,24.55,
3568295,-0.02,-0.01,1.27,-2.56,4.58,-6.59,920.18,24.53,
3568333,-0.01,-0.01,1.25,-2.93,5.43,-6.35,920.17,24.54,
3568372,-0.01,-0.02,1.22,-3.05,5.07,-6.53,920.1,24.55,
3568410,-0.01,-0.02,1.18,-3.85,4.27,-6.35,920.15,24.55,
3568460,-0.01,-0.02,1.21,-4.15,3.97,-6.53,920.19,24.53,
3568498,0.0,-0.04,1.21,-4.58,2.81,-6.23,920.11,24.53,
3568536,-0.0,-0.04,1.17,-4.39,1.71,-6.23,920.11,24.54,
3568574,-0.02,-0.04,1.09,-4.15,1.4,-6.16,920.17,24.55,
3568613,-0.02,-0.04,1.02,-3.97,1.22,-6.23,920.19,24.55,
3568651,-0.02,-0.04,0.97,-3.97,1.46,-6.23,920.12,24.56,
3568689,0.01,-0.05,1.01,-3.78,1.53,-6.59,920.11,24.54,
3568727,-0.0,-0.07,0.92,-4.09,3.42,-6.71,920.07,24.54,
3568766,-0.02,-0.05,0.91,-4.21,4.03,-6.65,920.07,24.54,
3568815,0.02,-0.05,0.97,-4.52,4.76,-6.96,920.09,24.55,
3568854,0.0,-0.05,0.95,-5.8,3.23,-7.08,920.12,24.56,
3568892,-0.0,-0.04,1.0,-6.1,1.95,-6.84,920.02,24.54,
3568930,0.01,-0.05,0.94,-6.77,2.2,-7.02,919.99,24.54,
3568968,0.01,-0.05,0.99,-6.84,-0.06,-6.9,920.03,24.54,
3569007,0.0,-0.05,0.96,-7.39,0.12,-7.14,920.03,24.54,
3569045,0.01,-0.04,1.0,-7.93,-0.24,-7.32,920.03,24.55,
3569083,0.01,-0.05,0.99,-8.3,0.43,-7.14,919.96,24.55,
3569121,0.01,-0.04,0.97,-9.22,-0.37,-7.39,919.97,24.56,
3569159,-0.01,-0.04,1.04,-9.34,-0.92,-7.63,919.88,24.56,
3569209,-0.01,-0.04,1.04,-10.25,-0.18,-7.63,919.94,24.53,
3569248,0.02,-0.02,1.16,-10.31,0.06,-8.0,919.94,24.54,
3569286,0.01,-0.02,1.14,-10.68,0.55,-8.0,919.96,24.56,
3569324,-0.0,-0.01,1.22,-10.44,-0.12,-8.0,919.94,24.55,
3569362,0.01,-0.02,1.25,-10.5,0.73,-8.54,919.92,24.55,
3569401,-0.02,-0.01,1.25,-10.56,0.49,-8.48,919.92,24.55,
3569439,-0.01,-0.0,1.3,-10.68,-0.18,-8.36,919.91,24.56,
3569477,-0.01,-0.0,1.32,-10.5,0.37,-8.73,919.88,24.55,
3569515,-0.02,0.03,1.4,-10.19,0.06,-8.79,919.92,24.56,
3569565,-0.02,0.02,1.46,-9.83,1.04,-8.48,919.84,24.55,
3569604,-0.03,0.03,1.49,-9.64,1.28,-8.73,919.82,24.55,
3569642,-0.04,0.05,1.54,-9.4,2.56,-8.91,919.89,24.56,
3569680,-0.03,0.05,1.56,-8.91,3.3,-8.73,919.78,24.55,
3569718,-0.02,0.04,1.57,-8.42,3.78,-8.73,919.84,24.56,
3569757,-0.03,0.04,1.52,-7.81,4.15,-8.67,919.88,24.55,
3569795,-0.05,0.05,1.53,-6.84,4.03,-8.3,919.79,24.56,
3569833,-0.03,0.03,1.48,-6.23,4.88,-8.18,919.81,24.58,
3569871,-0.03,0.03,1.47,-5.62,4.21,-8.06,919.8,24.56,
3569921,-0.04,0.03,1.45,-5.0,4.33,-7.75,919.76,24.55,
3569960,-0.02,0.02,1.41,-4.64,3.97,-7.51,919.85,24.56,
3569998,-0.03,0.02,1.44,-4.33,3.85,-7.32,919.76,24.56,
3570036,-0.03,0.02,1.43,-4.09,3.72,-7.02,919.72,24.56,
3570074,-0.03,0.02,1.41,-3.85,4.03,-6.96,919.74,24.56,
3570113,-0.02,0.01,1.39,-3.72,3.85,-7.08,919.77,24.57,
3570151,-0.02,0.01,1.38,-3.17,3.54,-6.9,919.73,24.55,
3570189,-0.01,-0.0,1.33,-2.81,3.78,-6.84,919.79,24.55,
3570227,-0.01,-0.0,1.32,-2.38,4.03,-6.96,919.75,24.56,
3570266,-0.0,-0.01,1.29,-1.95,4.21,-6.77,919.75,24.56,
3570342,-0.02,-0.02,1.2,-1.65,3.78,-6.53,919.69,24.55,
3570380,-0.02,-0.03,1.12,-1.71,5.19,-6.84,919.68,24.53,
3570418,0.0,-0.03,1.14,-1.89,5.07,-6.71,919.69,24.54,
3570508,-0.01,-0.03,1.08,-2.87,6.77,-6.84,919.66,24.52,
3570546,-0.01,-0.02,1.1,-3.11,6.9,-6.96,919.65,24.52,
3570584,-0.02,-0.04,1.08,-3.54,6.96,-7.02,919.59,24.53,
3570622,-0.02,-0.04,1.07,-4.03,7.02,-7.08,919.57,24.54,
3570661,-0.0,-0.04,1.08,-4.03,7.32,-6.96,919.59,24.55,
3570699,-0.0,-0.03,1.05,-4.21,5.92,-7.08,919.53,24.54,
3570749,-0.02,-0.03,1.06,-4.15,5.37,-7.02,919.49,24.53,
3570787,-0.01,-0.04,1.05,-4.21,4.7,-7.02,919.49,24.53,
3570825,-0.0,-0.03,1.08,-4.39,3.05,-7.2,919.43,24.55,
3570863,-0.03,-0.03,1.04,-4.39,2.38,-7.02,919.5,24.55,
3570902,-0.02,-0.03,1.04,-4.64,2.2,-6.84,919.46,24.54,
3570940,0.0,-0.03,1.07,-5.13,1.46,-7.08,919.45,24.54,
3570978,-0.02,-0.03,1.07,-5.68,0.31,-7.08,919.44,24.54,
3571016,-0.03,-0.04,1.08,-5.86,0.31,-7.08,919.41,24.55,
3571055,-0.02,-0.03,1.11,-6.04,0.24,-6.9,919.48,24.55,
3571105,-0.02,-0.02,1.14,-6.23,-0.55,-6.9,919.45,24.54,
3571143,-0.02,-0.02,1.15,-6.04,-0.98,-6.96,919.45,24.54,
3571181,-0.01,-0.02,1.18,-5.92,-1.04,-7.08,919.46,24.55,
3571219,-0.01,-0.01,1.21,-5.31,-0.73,-7.14,919.45,24.55,
3571258,-0.01,-0.0,1.24,-4.7,-0.43,-7.26,919.44,24.54,
3571296,-0.02,-0.02,1.21,-4.15,0.37,-7.32,919.46,24.55,
3571334,-0.01,-0.02,1.22,-3.6,1.1,-7.57,919.45,24.54,
3571372,-0.02,-0.02,1.19,-2.87,1.83,-7.63,919.44,24.55,
3571411,-0.02,-0.02,1.17,-2.5,2.26,-7.51,919.48,24.56,
3571449,-0.02,-0.02,1.12,-2.01,3.05,-7.93,919.44,24.55,
3571499,-0.02,-0.02,1.09,-1.95,2.93,-7.69,919.43,24.54,
3571537,-0.02,-0.03,1.04,-1.89,3.48,-7.69,919.44,24.55,
3571575,-0.02,-0.03,1.01,-2.2,2.69,-7.75,919.43,24.56,
3571614,-0.02,-0.03,1.02,-2.5,2.87,-7.87,919.36,24.56,
3571652,-0.02,-0.03,1.01,-2.93,2.56,-7.75,919.41,24.55,
3571690,-0.01,-0.04,1.04,-3.17,2.2,-7.81,919.39,24.56,
3571728,-0.01,-0.03,1.05,-3.36,2.38,-7.69,919.35,24.54,
3571767,-0.01,-0.03,1.06,-3.42,1.95,-7.63,919.39,24.56,
3571805,-0.02,-0.04,1.03,-3.23,2.2,-7.63,919.36,24.55,
3571855,-0.01,-0.04,1.03,-3.11,2.08,-7.51,919.34,24.54,
3571893,-0.03,-0.04,1.0,-3.05,2.01,-7.51,919.36,24.54,
3571931,-0.02,-0.04,1.03,-2.75,2.32,-7.69,919.38,24.55,
3571970,-0.01,-0.05,1.0,-2.93,2.56,-7.63,919.3,24.54,
3572008,-0.02,-0.05,1.0,-2.81,2.01,-7.63,919.4,24.54,
3572046,-0.04,-0.05,0.94,-2.5,2.32,-7.39,919.37,24.55,
3572084,-0.01,-0.04,0.97,-2.56,2.93,-7.75,919.33,24.53,
3572123,-0.0,-0.04,0.95,-2.69,2.62,-7.81,919.34,24.56,
3572161,-0.03,-0.04,0.94,-2.2,1.71,-7.45,919.35,24.55,
3572211,-0.03,-0.04,0.91,-2.5,2.75,-7.51,919.33,24.55,
3572249,0.0,-0.04,0.93,-2.93,2.5,-7.63,919.3,24.55,
3572287,-0.01,-0.03,0.93,-3.54,1.89,-7.51,919.33,24.55,
3572326,-0.04,-0.04,0.94,-4.09,2.08,-7.32,919.3,24.55,
3572364,-0.02,-0.04,0.96,-4.88,3.3,-7.39,919.32,24.56,
3572402,-0.0,-0.03,1.02,-5.0,2.99,-7.45,919.31,24.54,
3572440,-0.02,-0.03,1.03,-5.86,3.54,-7.51,919.31,24.55,
3572478,-0.02,-0.03,1.05,-6.35,3.85,-7.51,919.22,24.56,
3572517,-0.02,-0.02,1.11,-6.41,4.27,-7.69,919.3,24.55,
3572555,-0.01,-0.02,1.13,-6.47,3.91,-7.57,919.34,24.57,
3572605,-0.03,-0.01,1.14,-6.53,4.03,-7.32,919.28,24.54,
3572643,-0.01,-0.0,1.16,-6.29,4.39,-7.51,919.32,24.55,
3572681,-0.02,-0.0,1.18,-6.29,3.97,-7.2,919.23,24.56,
3572720,-0.02,-0.0,1.18,-6.59,3.97,-7.2,919.25,24.55,
3572758,-0.01,0.0,1.22,-6.65,4.27,-7.32,919.29,24.57,
3572796,-0.02,0.02,1.26,-6.65,4.33,-7.32,919.24,24.56,
3572834,-0.02,0.02,1.29,-6.84,4.27,-7.2,919.29,24.57,
3572873,-0.02,0.02,1.3,-6.9,4.39,-7.2,919.29,24.55,
3572911,-0.01,0.02,1.31,-6.84,4.27,-6.96,919.26,24.57,
3572961,-0.01,0.02,1.3,-6.96,4.39,-7.14,919.32,24.55,
3572999,-0.01,0.03,1.3,-6.71,4.15,-6.96,919.34,24.55,
3573037,-0.01,0.03,1.29,-6.53,4.39,-7.08,919.24,24.56,
3573075,-0.02,0.02,1.29,-6.53,4.21,-6.96,919.27,24.56,
3573113,-0.02,0.02,1.31,-6.59,4.03,-6.96,919.31,24.56,
3573152,-0.02,0.03,1.32,-6.47,4.39,-6.84,919.25,24.56,
3573190,-0.02,0.03,1.33,-6.41,4.52,-6.96,919.3,24.57,
3573228,-0.01,0.03,1.32,-6.23,4.46,-6.84,919.26,24.56,
3573266,-0.01,0.02,1.31,-5.98,4.88,-7.02,919.29,24.57,
3573342,-0.01,0.03,1.3,-5.74,5.37,-7.02,919.29,24.53,
3573380,-0.01,0.03,1.33,-5.31,5.43,-6.96,919.3,24.54,
3573419,-0.01,0.02,1.31,-5.25,6.04,-7.14,919.34,24.56,
3573508,-0.02,0.02,1.31,-4.88,5.92,-6.96,919.34,24.52,
3573547,-0.02,0.02,1.31,-4.82,5.55,-6.84,919.29,24.53,
3573585,-0.02,0.02,1.29,-4.82,6.04,-6.84,919.31,24.54,
3573623,-0.01,0.03,1.32,-4.58,6.41,-6.96,919.29,24.54,
3573661,-0.01,0.03,1.32,-4.76,6.71,-6.9,919.34,24.54,
3573700,-0.04,0.03,1.35,-4.58,6.59,-6.96,919.24,24.52,
3573738,-0.02,0.01,1.33,-4.58,7.51,-7.02,919.3,24.55,
3573788,-0.01,0.03,1.36,-4.39,6.41,-6.71,919.31,24.52,
3573826,-0.01,0.02,1.32,-4.58,6.59,-6.41,919.29,24.54,
3573864,0.0,0.02,1.28,-4.52,5.31,-6.35,919.34,24.55,
3573903,-0.03,0.02,1.26,-4.58,5.43,-6.41,919.3,24.53,
3573941,-0.01,0.01,1.23,-4.21,5.31,-6.29,919.29,24.54,
3573979,0.0,0.02,1.28,-3.91,4.88,-6.35,919.25,24.52,
3574017,-0.0,0.0,1.25,-3.97,4.76,-6.41,919.25,24.53,
3574055,-0.01,0.0,1.22,-4.03,3.72,-6.29,919.27,24.53,
3574094,-0.01,0.0,1.22,-4.21,3.54,-6.16,919.21,24.53,
3574144,0.01,-0.0,1.16,-4.64,2.62,-6.1,919.26,24.53,
3574182,-0.0,0.0,1.19,-4.88,1.89,-6.29,919.19,24.51,
3574220,-0.01,-0.0,1.18,-5.13,1.59,-6.16,919.29,24.53,
3574258,-0.0,-0.01,1.18,-5.43,1.22,-6.29,919.28,24.53,
3574297,-0.0,0.0,1.19,-5.62,0.79,-6.23,919.21,24.53,
3574335,0.01,-0.01,1.24,-5.74,1.1,-6.29,919.15,24.53,
3574373,0.02,-0.0,1.21,-6.23,0.67,-6.41,919.21,24.53,
3574411,-0.02,0.02,1.26,-6.23,0.18,-6.53,919.24,24.54,
3574450,0.0,0.02,1.25,-6.77,0.73,-6.47,919.23,24.54,
3574488,0.01,0.01,1.28,-6.77,1.04,-6.84,919.25,24.54,
3574538,-0.01,0.02,1.31,-6.71,0.06,-6.77,919.27,24.52,
3574576,-0.01,0.01,1.3,-6.84,1.1,-6.77,919.28,24.54,
3574614,0.01,0.01,1.33,-6.41,1.28,-6.96,919.22,24.53,
3574653,0.01,0.02,1.35,-6.29,1.53,-7.08,919.27,24.54,
3574691,-0.0,0.02,1.31,-5.86,1.16,-7.2,919.25,24.54,
3574729,-0.0,0.03,1.33,-5.86,1.34,-7.39,919.26,24.54,
3574767,0.0,0.02,1.31,-5.8,1.34,-7.32,919.3,24.54,
3574805,0.0,0.01,1.33,-5.92,0.24,-7.26,919.19,24.54,
3574844,0.0,0.01,1.31,-5.92,0.31,-7.45,919.21,24.55,
3574882,0.0,0.02,1.28,-5.98,0.24,-7.63,919.27,24.56,
3574932,0.0,0.01,1.29,-5.62,0.18,-7.39,919.2,24.53,
3574970,0.01,0.01,1.26,-5.74,-0.73,-7.63,919.23,24.53,
3575008,0.0,0.0,1.27,-5.62,-0.43,-7.75,919.24,24.54,
3575047,0.0,0.01,1.24,-5.68,-0.37,-7.75,919.24,24.55,
3575085,0.01,0.02,1.26,-5.55,-0.92,-7.93,919.24,24.54,
3575123,0.01,0.01,1.26,-5.8,-0.06,-8.18,919.18,24.55,
3575161,0.0,0.01,1.27,-5.8,0.31,-8.3,919.17,24.55,
3575199,0.01,0.01,1.28,-5.8,1.22,-8.61,919.23,24.56,
3575238,0.01,0.02,1.27,-5.8,2.08,-8.91,919.23,24.56,
3575288,0.0,0.0,1.26,-5.86,3.3,-8.97,919.22,24.53,
3575326,0.01,0.01,1.24,-5.74,3.48,-9.28,919.29,24.55,
3575364,0.01,0.01,1.27,-5.37,4.15,-9.58,919.26,24.55,
3575402,0.01,0.01,1.24,-5.31,4.64,-9.52,919.24,24.54,
3575441,0.0,0.01,1.27,-4.94,4.88,-9.77,919.26,24.55,
3575479,0.0,0.0,1.25,-5.0,5.86,-9.95,919.24,24.54,
3575517,0.01,0.01,1.27,-5.31,6.1,-9.95,919.22,24.53,
3575555,0.01,0.0,1.22,-5.13,6.71,-10.25,919.23,24.54,
3575593,0.01,0.01,1.21,-5.31,6.59,-10.25,919.24,24.54,
3575632,0.01,-0.0,1.14,-5.74,6.9,-10.13,919.26,24.55,
3575681,-0.0,0.0,1.14,-5.55,5.49,-10.38,919.25,24.54,
3575720,0.0,-0.01,1.12,-5.86,6.1,-10.5,919.2,24.54,
3575758,0.02,0.0,1.13,-6.04,5.43,-10.13,919.23,24.53,
3575796,-0.01,-0.0,1.14,-6.41,5.43,-10.31,919.22,24.53,
3575834,0.0,0.0,1.15,-6.71,4.94,-10.13,919.14,24.53,
3575873,0.0,-0.0,1.22,-6.77,5.07,-10.31,919.22,24.54,
3575911,0.0,-0.0,1.19,-7.2,5.43,-10.31,919.27,24.54,
3575949,0.0,0.03,1.24,-7.02,5.07,-10.62,919.19,24.55,
3575987,-0.0,0.03,1.26,-7.32,6.41,-10.68,919.17,24.54,
3576037,0.01,0.02,1.3,-7.39,6.77,-10.74,919.15,24.54,
3576076,-0.0,0.02,1.28,-7.39,6.53,-11.05,919.17,24.54,
3576114,-0.03,0.03,1.31,-7.45,6.29,-10.86,919.18,24.54,
3576152,-0.0,0.04,1.33,-7.45,7.08,-10.8,919.16,24.54,
3576190,-0.0,0.06,1.38,-7.08,6.47,-11.05,919.14,24.54,
3576228,-0.03,0.05,1.42,-7.08,7.51,-10.93,919.16,24.53,
3576267,-0.02,0.05,1.42,-7.26,8.73,-11.11,919.15,24.54,
3576305,-0.01,0.07,1.5,-6.77,8.48,-10.99,919.18,24.53,
3576343,-0.01,0.06,1.47,-7.14,8.85,-10.93,919.14,24.54,
3576419,-0.03,0.05,1.38,-6.41,9.83,-10.44,919.12,24.5,
3576457,-0.01,0.06,1.4,-6.23,8.42,-10.13,919.05,24.52,
3576496,-0.03,0.04,1.36,-6.23,7.69,-9.95,919.08,24.52,
3576585,-0.02,0.04,1.37,-6.1,6.04,-9.28,919.08,24.49,
3576624,-0.02,0.04,1.4,-5.86,3.54,-8.91,919.06,24.51,
3576662,-0.03,0.03,1.36,-6.04,3.48,-8.61,919.08,24.51,
3576700,-0.02,0.03,1.35,-5.98,2.87,-8.48,919.17,24.52,
3576738,-0.0,0.03,1.34,-6.23,1.34,-8.36,919.12,24.52,
3576776,-0.03,0.04,1.32,-6.1,0.06,-8.0,919.08,24.53,
3576815,-0.03,0.03,1.35,-5.98,0.61,-8.12,919.08,24.52,
3576865,-0.0,0.02,1.38,-5.62,-0.18,-7.81,919.11,24.52,
3576903,-0.01,0.01,1.38,-5.62,-0.67,-7.69,919.11,24.54,
3576941,-0.03,0.01,1.33,-5.62,-0.73,-7.69,919.11,24.53,
3576979,-0.01,0.02,1.39,-5.43,-0.37,-7.75,919.06,24.53,
3577017,0.01,0.01,1.32,-5.55,-0.12,-7.69,919.1,24.53,
3577056,-0.03,0.01,1.34,-4.82,-1.34,-7.51,919.09,24.53,
3577094,-0.02,-0.01,1.27,-4.94,-0.06,-7.51,919.05,24.52,
3577132,0.01,0.0,1.29,-4.58,-0.37,-7.75,919.14,24.53,
3577170,-0.0,-0.0,1.28,-4.76,-0.67,-7.63,919.17,24.53,
3577220,-0.01,-0.01,1.22,-4.27,-1.65,-7.69,919.17,24.51,
3577259,0.0,-0.03,1.16,-4.27,-1.1,-7.69,919.1,24.52,
3577297,0.01,-0.02,1.16,-4.27,-1.65,-7.63,919.11,24.53,
3577335,-0.01,-0.03,1.09,-4.09,-1.95,-7.45,919.12,24.54,
3577373,-0.02,-0.01,1.08,-4.15,-2.75,-7.69,919.09,24.53,
3577411,-0.01,-0.01,1.13,-4.52,-2.44,-7.63,919.1,24.53,
3577450,-0.01,-0.03,1.13,-4.33,-2.81,-7.63,919.14,24.53,
3577488,-0.02,-0.03,1.19,-4.52,-2.08,-7.75,919.14,24.53,
3577526,-0.01,-0.04,1.17,-4.64,-1.53,-7.93,919.2,24.54,
3577576,-0.01,-0.03,1.18,-4.52,-1.04,-7.93,919.15,24.53,
3577614,-0.02,-0.03,1.17,-4.15,-0.31,-7.93,919.22,24.53,
3577652,0.01,-0.02,1.15,-3.97,0.18,-7.93,919.24,24.53,
3577691,-0.0,-0.03,1.11,-4.03,0.24,-8.0,919.26,24.54,
3577729,-0.03,-0.04,1.07,-3.66,-0.06,-7.87,919.15,24.54,
3577767,-0.01,-0.04,1.08,-4.21,0.61,-8.0,919.15,24.54,
3577805,0.0,-0.03,1.11,-4.27,0.98,-7.87,919.14,24.53,
3577844,-0.01,-0.02,1.18,-4.09,1.1,-7.81,919.13,24.54,
3577882,-0.01,-0.03,1.16,-4.27,1.71,-8.12,919.17,24.53,
3577920,-0.01,-0.02,1.27,-4.58,1.16,-8.06,919.18,24.54,
3577970,-0.0,-0.03,1.31,-5.0,2.26,-8.0,919.09,24.52,
3578008,-0.01,-0.02,1.31,-5.13,1.95,-8.06,919.2,24.52,
3578046,-0.01,-0.01,1.28,-5.55,2.14,-7.93,919.14,24.53,
3578085,-0.0,-0.01,1.28,-5.37,2.26,-7.81,919.18,24.54,
3578123,0.0,-0.02,1.26,-5.43,2.81,-7.93,919.09,24.52,
3578161,0.01,-0.02,1.29,-5.19,2.81,-7.81,919.16,24.53,
3578199,0.0,-0.03,1.3,-5.07,2.87,-7.81,919.09,24.53,
3578238,-0.0,-0.02,1.29,-5.13,3.11,-8.0,919.18,24.53,
3578276,-0.01,-0.02,1.31,-5.13,3.05,-7.87,919.12,24.52,
3578326,0.01,-0.02,1.3,-5.43,3.3,-8.0,919.13,24.52,
3578364,0.0,-0.02,1.31,-5.19,2.44,-8.12,919.11,24.54,
3578402,-0.0,-0.01,1.32,-5.37,2.69,-8.12,919.16,24.53,
3578440,-0.0,-0.02,1.33,-5.25,2.69,-7.93,919.13,24.52,
3578479,-0.0,-0.02,1.36,-5.37,2.87,-8.18,919.1,24.52,
3578517,-0.01,-0.02,1.35,-5.43,2.87,-8.18,919.14,24.53,
3578555,0.01,-0.01,1.4,-5.49,3.05,-8.24,919.11,24.53,
3578593,0.01,-0.02,1.39,-5.62,3.17,-8.3,919.08,24.52,
3578632,-0.0,-0.01,1.41,-5.74,3.54,-8.24,919.09,24.51,
3578681,0.0,-0.01,1.39,-5.92,3.91,-8.3,919.12,24.51,
3578720,-0.0,-0.0,1.42,-5.98,3.6,-8.24,919.11,24.52,
3578758,-0.0,-0.01,1.43,-5.92,3.42,-8.24,919.12,24.53,
3578796,-0.01,-0.0,1.39,-6.16,3.17,-8.06,919.07,24.52,
3578834,-0.0,-0.0,1.45,-6.16,3.05,-8.0,919.09,24.54,
3578872,0.01,-0.01,1.47,-6.23,2.26,-8.0,919.05,24.53,
3578911,-0.01,-0.01,1.41,-6.35,2.26,-7.81,919.06,24.53,
3578949,0.0,-0.0,1.45,-6.35,1.71,-7.75,919.09,24.53,
3578987,0.0,-0.01,1.48,-6.16,1.22,-7.69,919.02,24.53,
3579025,-0.01,-0.0,1.42,-6.41,0.12,-7.57,919.04,24.53,
3579075,-0.01,-0.0,1.47,-6.1,0.0,-7.51,919.1,24.53,
3579113,0.01,-0.01,1.43,-6.1,-0.37,-7.69,919.11,24.53,
3579151,-0.01,0.01,1.52,-5.74,-0.73,-7.63,919.0,24.52,
3579190,-0.02,-0.02,1.42,-5.8,1.59,-7.63,919.07,24.53,
3579228,-0.01,-0.0,1.47,-5.07,1.04,-7.69,919.09,24.53,
3579266,-0.02,-0.01,1.46,-4.94,2.44,-7.69,919.04,24.53,
3579304,-0.01,-0.03,1.39,-4.52,1.89,-7.32,919.08,24.52,
3579343,0.01,-0.02,1.37,-4.46,2.32,-7.45,919.04,24.53,
3579381,-0.01,-0.02,1.31,-4.39,2.2,-7.51,919.05,24.53,
3579457,0.0,-0.0,1.27,-4.64,2.26,-7.26,919.06,24.5,
3579495,0.0,-0.03,1.31,-4.39,1.77,-7.39,919.09,24.51,
3579533,-0.01,-0.04,1.28,-4.33,2.2,-7.2,919.03,24.52,
3579623,-0.01,-0.05,1.27,-4.21,4.52,-7.26,919.02,24.48,
3579661,-0.01,-0.02,1.28,-4.03,4.03,-7.2,919.01,24.51,
3579699,-0.01,-0.04,1.24,-4.33,5.92,-7.08,919.02,24.48,
3579737,-0.01,-0.03,1.2,-4.52,5.8,-7.14,919.0,24.5,
3579776,-0.01,-0.05,1.21,-4.64,7.02,-7.32,918.96,24.52,
3579814,-0.0,-0.05,1.18,-4.52,6.65,-6.96,919.0,24.51,
3579864,-0.02,-0.05,1.17,-4.03,6.96,-6.9,918.98,24.49,
3579902,0.01,-0.06,1.09,-3.72,7.26,-6.9,919.03,24.52,
3579940,-0.01,-0.05,1.08,-3.72,7.2,-6.77,919.04,24.52,
3579978,-0.0,-0.07,1.02,-3.85,7.39,-6.59,918.96,24.52,
3580017,0.01,-0.06,1.02,-3.85,7.08,-6.71,918.97,24.52,
3580055,0.0,-0.05,1.03,-3.97,7.39,-6.71,918.97,24.52,
3580093,0.02,-0.06,1.02,-4.33,7.93,-6.65,918.97,24.53,
3580131,0.0,-0.06,1.04,-4.46,7.08,-6.77,918.91,24.53,
3580169,0.01,-0.06,1.09,-4.88,6.47,-6.9,918.88,24.52,
3580208,0.01,-0.06,1.16,-5.19,6.96,-7.02,918.86,24.53,
3580258,0.02,-0.04,1.17,-5.62,6.1,-7.2,918.84,24.5,
3580296,-0.0,-0.04,1.19,-5.31,5.37,-7.57,918.88,24.53,
3580334,-0.01,-0.05,1.16,-5.25,5.74,-7.51,918.79,24.51,
3580372,0.0,-0.04,1.22,-4.7,5.07,-7.63,918.82,24.52,
3580411,-0.0,-0.05,1.23,-4.21,5.07,-7.63,918.8,24.53,
3580449,-0.01,-0.05,1.17,-4.21,5.07,-7.81,918.8,24.52,
3580487,-0.01,-0.04,1.18,-3.91,5.43,-7.81,918.76,24.54,
3580525,-0.01,-0.05,1.15,-4.39,5.31,-8.0,918.78,24.53,
3580563,-0.01,-0.06,1.13,-4.52,4.58,-8.0,918.71,24.53,
3580613,-0.01,-0.05,1.12,-5.31,4.76,-8.3,918.72,24.51,
3580652,-0.01,-0.04,1.13,-5.8,5.13,-8.36,918.72,24.53,
3580690,-0.01,-0.05,1.1,-6.35,5.13,-8.24,918.71,24.52,
3580728,-0.0,-0.04,1.16,-6.65,4.64,-8.54,918.73,24.53,
3580766,-0.0,-0.05,1.19,-7.14,5.31,-8.67,918.68,24.52,
3580805,-0.01,-0.05,1.19,-7.51,4.58,-8.73,918.72,24.54,
3580843,-0.01,-0.05,1.21,-7.87,4.27,-8.85,918.66,24.52,
3580881,-0.02,-0.05,1.18,-7.87,4.39,-8.79,918.7,24.52,
3580919,-0.02,-0.05,1.21,-7.75,4.27,-8.85,918.75,24.53,
3580958,-0.01,-0.05,1.19,-7.45,5.0,-8.85,918.77,24.52,
3581008,-0.01,-0.04,1.24,-6.84,5.19,-8.79,918.75,24.52,
3581046,-0.0,-0.04,1.2,-6.65,5.55,-8.79,918.69,24.5,
3581084,-0.03,-0.04,1.21,-6.29,5.0,-8.54,918.72,24.52,
3581122,-0.02,-0.05,1.15,-6.47,4.88,-8.54,918.59,24.5,
3581161,-0.0,-0.04,1.19,-6.29,3.91,-8.61,918.68,24.5,
3581199,-0.01,-0.05,1.14,-6.71,4.94,-8.42,918.6,24.52,
3581237,-0.02,-0.04,1.21,-6.84,4.46,-8.42,918.65,24.51,
3581275,-0.02,-0.04,1.24,-6.96,5.13,-8.3,918.59,24.52,
3581314,-0.02,-0.04,1.25,-7.14,4.88,-8.48,918.6,24.5,
3581364,-0.01,-0.04,1.28,-7.26,4.94,-8.3,918.59,24.49,
3581402,-0.02,-0.04,1.25,-7.08,4.52,-8.18,918.62,24.51,
3581440,-0.02,-0.03,1.26,-7.14,4.46,-8.12,918.59,24.5,
3581478,-0.03,-0.04,1.28,-6.96,4.82,-7.93,918.58,24.51,
3581517,-0.02,-0.05,1.27,-6.65,5.43,-8.0,918.61,24.51,
3581555,-0.04,-0.04,1.25,-6.71,5.62,-7.87,918.59,24.52,
3581593,-0.02,-0.03,1.28,-6.47,5.86,-7.81,918.55,24.5,
3581631,-0.02,-0.04,1.23,-6.41,5.8,-7.87,918.63,24.53,
3581670,-0.03,-0.04,1.24,-6.29,5.25,-7.81,918.58,24.52,
3581720,-0.02,-0.04,1.21,-6.29,5.49,-7.57,918.6,24.5,
3581758,-0.03,-0.02,1.25,-6.1,5.19,-7.51,918.49,24.52,
3581796,-0.03,-0.02,1.25,-5.86,4.94,-7.45,918.52,24.52,
3581834,-0.03,-0.04,1.26,-5.37,4.15,-7.2,918.5,24.51,
3581872,-0.02,-0.04,1.21,-5.55,3.78,-7.39,918.53,24.53,
3581911,-0.02,-0.03,1.18,-5.74,2.32,-7.02,918.48,24.52,
3581949,-0.01,-0.02,1.13,-6.04,1.65,-6.9,918.43,24.51,
3581987,-0.03,-0.03,1.13,-6.04,1.34,-6.9,918.45,24.52,
3582025,-0.05,-0.03,1.14,-6.53,1.4,-6.84,918.44,24.54,
3582075,-0.03,-0.02,1.25,-7.14,0.73,-6.71,918.39,24.52,
3582113,-0.03,-0.02,1.26,-7.81,1.34,-6.77,918.43,24.53,
3582152,-0.02,-0.01,1.31,-7.51,0.67,-6.71,918.41,24.51,
3582190,-0.01,-0.03,1.32,-7.45,2.5,-6.71,918.5,24.54,
3582228,-0.03,-0.01,1.3,-6.9,1.89,-6.53,918.48,24.54,
3582266,-0.04,-0.01,1.28,-6.59,2.56,-6.47,918.49,24.53,
3582305,-0.01,-0.02,1.26,-6.23,2.08,-6.65,918.49,24.54,
3582343,-0.04,-0.02,1.28,-6.29,2.2,-6.53,918.52,24.54,
3582381,-0.01,-0.05,1.22,-6.23,2.44,-6.41,918.52,24.54,
3582419,-0.01,-0.04,1.25,-6.16,1.34,-6.53,918.46,24.54,
3582495,-0.02,-0.02,1.22,-5.8,2.01,-6.29,918.45,24.51,
3582534,-0.0,-0.03,1.23,-5.98,2.38,-6.59,918.41,24.51,
3582572,-0.02,-0.02,1.26,-5.8,1.34,-6.53,918.42,24.52,
3582662,0.01,-0.03,1.32,-6.04,1.1,-6.47,918.46,24.5,
3582700,-0.02,-0.03,1.33,-6.16,1.71,-6.41,918.43,24.5,
3582738,-0.01,-0.04,1.26,-6.1,1.4,-6.29,918.48,24.52,
3582776,0.0,-0.02,1.3,-6.16,1.83,-6.71,918.42,24.51,
3582815,0.0,-0.01,1.27,-6.47,1.16,-6.65,918.41,24.52,
3582853,-0.02,-0.02,1.33,-6.47,0.98,-6.59,918.33,24.52,
3582903,-0.01,-0.03,1.38,-6.84,0.85,-6.71,918.35,24.51,
3582941,0.0,-0.02,1.44,-6.96,0.79,-6.65,918.36,24.52,
3582979,-0.0,-0.01,1.4,-7.08,0.24,-6.71,918.36,24.52,
3583017,-0.01,-0.02,1.4,-6.77,0.55,-6.84,918.34,24.52,
3583056,0.01,-0.02,1.39,-6.71,0.31,-7.08,918.34,24.52,
3583094,-0.0,-0.02,1.42,-6.77,0.31,-7.14,918.41,24.53,
3583132,-0.01,-0.02,1.41,-6.77,0.61,-7.08,918.34,24.53,
3583170,-0.01,-0.01,1.42,-6.59,0.24,-7.26,918.32,24.52,
3583209,-0.01,-0.02,1.41,-6.47,0.61,-7.32,918.24,24.52,
3583259,0.0,-0.03,1.42,-6.47,-0.24,-7.39,918.28,24.52,
3583297,0.01,-0.02,1.4,-6.35,-0.18,-7.57,918.29,24.53,
3583335,-0.0,-0.03,1.4,-5.92,-0.98,-7.39,918.3,24.53,
3583373,-0.01,-0.03,1.38,-5.86,-1.22,-7.32,918.28,24.52,
3583412,-0.01,-0.02,1.34,-5.86,-1.83,-7.39,918.31,24.54,
3583450,-0.02,-0.03,1.33,-5.13,-1.83,-7.57,918.21,24.53,
3583488,-0.03,-0.04,1.3,-4.7,-2.32,-7.45,918.28,24.54,
3583526,-0.01,-0.03,1.32,-4.27,-2.75,-7.63,918.31,24.54,
3583565,-0.02,-0.03,1.29,-3.97,-2.5,-7.63,918.24,24.52,
3583603,-0.03,-0.05,1.22,-3.85,-2.32,-7.63,918.2,24.53,
3583653,-0.03,-0.04,1.2,-4.03,-2.14,-7.57,918.27,24.52,
3583691,-0.02,-0.04,1.18,-4.21,-1.34,-7.75,918.27,24.52,
3583729,-0.03,-0.05,1.15,-4.15,-0.73,-7.39,918.23,24.53,
3583768,-0.01,-0.04,1.19,-4.03,-0.37,-7.63,918.28,24.52,
3583806,-0.03,-0.04,1.16,-4.09,0.43,-7.69,918.26,24.52,
3583844,-0.02,-0.03,1.22,-4.15,0.0,-7.32,918.25,24.51,
3583882,-0.03,-0.04,1.22,-4.39,1.16,-7.51,918.24,24.52,
3583921,-0.03,-0.04,1.23,-4.39,1.65,-7.39,918.24,24.52,
3583959,-0.02,-0.04,1.25,-4.88,2.26,-7.39,918.16,24.52,
3584009,-0.02,-0.03,1.29,-4.27,1.53,-7.2,918.15,24.51,
3584047,-0.03,-0.03,1.23,-4.58,3.05,-7.2,918.2,24.52,
3584085,-0.01,-0.02,1.3,-4.64,3.23,-7.14,918.09,24.52,
3584124,-0.01,-0.02,1.32,-4.7,3.72,-6.96,918.14,24.51,
3584162,-0.03,-0.03,1.29,-4.76,4.21,-7.08,918.19,24.52,
3584200,-0.02,-0.03,1.33,-4.7,4.46,-6.96,918.13,24.52,
3584238,-0.01,-0.03,1.33,-4.64,3.78,-6.9,918.14,24.52,
3584277,-0.01,-0.03,1.33,-4.39,3.72,-6.71,918.11,24.52,
3584315,-0.01,-0.03,1.34,-4.09,4.33,-6.84,918.07,24.52,
3584365,0.01,-0.04,1.31,-4.03,5.19,-6.84,918.07,24.5,
3584403,-0.0,-0.02,1.33,-3.72,4.09,-6.71,918.06,24.52,
3584441,-0.02,-0.03,1.31,-3.48,4.27,-6.47,918.05,24.52,
3584480,0.0,-0.04,1.31,-3.3,4.39,-6.65,918.06,24.52,
3584518,0.02,-0.03,1.35,-3.23,3.48,-6.77,918.04,24.52,
3584556,0.0,-0.03,1.34,-3.05,2.69,-6.47,918.02,24.52,
3584594,-0.0,-0.02,1.29,-3.05,2.69,-6.77,918.0,24.53,
3584633,0.01,-0.01,1.31,-2.93,3.36,-6.77,918.0,24.52,
3584671,0.01,-0.03,1.32,-2.75,3.23,-6.96,918.02,24.53,
3584709,0.0,-0.04,1.28,-2.69,3.6,-6.9,917.95,24.52,
3584759,-0.0,-0.03,1.28,-2.69,3.91,-7.08,917.99,24.52,
3584797,0.0,-0.02,1.25,-2.5,2.81,-7.14,917.95,24.52,
3584836,-0.01,-0.03,1.22,-2.38,2.69,-6.96,917.91,24.53,
3584874,-0.0,-0.04,1.15,-2.5,2.5,-7.08,917.97,24.52,
3584912,-0.0,-0.04,1.14,-2.26,2.69,-7.26,918.0,24.53,
3584950,0.0,-0.04,1.1,-2.38,2.14,-7.14,917.97,24.53,
3584989,0.0,-0.04,1.08,-1.95,1.89,-7.2,917.92,24.52,
3585027,-0.02,-0.05,1.02,-2.08,2.5,-7.26,917.94,24.52,
3585065,-0.0,-0.05,1.05,-1.71,1.71,-7.14,917.83,24.53,
3585115,-0.0,-0.06,0.98,-1.95,0.73,-7.39,917.86,24.52,
3585153,-0.02,-0.05,0.98,-2.08,0.67,-7.39,917.92,24.53,
3585191,0.01,-0.05,0.96,-2.26,1.04,-7.45,917.85,24.52,
3585230,0.01,-0.06,0.93,-2.44,0.61,-7.63,917.88,24.52,
3585268,-0.02,-0.05,0.94,-2.56,0.73,-7.57,917.9,24.52,
3585306,-0.01,-0.06,0.92,-2.69,1.34,-7.57,917.85,24.53,
3585344,-0.01,-0.04,0.97,-2.26,0.79,-7.87,917.89,24.53,
3585383,-0.02,-0.05,0.93,-2.62,0.85,-7.63,917.84,24.53,
3585421,-0.02,-0.05,0.96,-2.44,0.55,-7.81,917.87,24.53,
3585498,-0.02,-0.05,0.95,-2.93,1.53,-8.06,917.85,24.49,
3585536,-0.03,-0.05,0.99,-3.17,1.83,-8.0,917.79,24.49,
3585575,-0.02,-0.06,0.95,-3.97,2.93,-7.93,917.81,24.5,
3585665,-0.03,-0.05,1.0,-4.39,2.87,-7.93,917.71,24.46,
3585703,-0.03,-0.05,1.03,-4.58,3.23,-7.87,917.73,24.47,
3585741,-0.02,-0.03,1.08,-5.0,2.56,-7.87,917.69,24.49,
3585780,-0.04,-0.04,1.13,-4.82,2.14,-7.81,917.72,24.49,
3585818,-0.04,-0.04,1.12,-5.31,2.38,-7.39,917.64,24.49,
3585856,-0.03,-0.03,1.2,-4.82,1.89,-7.45,917.68,24.49,
3585894,-0.03,-0.03,1.18,-5.19,2.87,-7.39,917.74,24.49,
3585944,-0.02,-0.02,1.15,-4.94,1.71,-7.51,917.67,24.47,
3585983,-0.03,-0.04,1.07,-4.94,2.69,-7.45,917.77,24.49,
3586021,-0.04,-0.06,1.05,-4.64,3.05,-7.32,917.68,24.48,
3586059,-0.01,-0.05,1.05,-4.58,3.11,-7.26,917.71,24.49,
3586097,-0.04,-0.04,1.02,-4.39,2.56,-7.02,917.69,24.49,
3586136,-0.04,-0.03,1.0,-4.52,2.44,-7.02,917.65,24.5,
3586174,-0.03,-0.03,1.07,-4.33,3.05,-6.9,917.62,24.48,
3586212,-0.02,-0.04,1.11,-4.39,2.56,-6.9,917.59,24.49,
3586250,-0.02,-0.05,1.16,-4.27,2.2,-6.65,917.7,24.49,
3586300,-0.04,-0.04,1.16,-4.39,2.93,-6.59,917.68,24.48,
3586339,-0.04,-0.04,1.17,-4.58,3.3,-6.47,917.62,24.49,
3586377,-0.02,-0.04,1.19,-4.15,2.81,-6.47,917.66,24.5,
3586415,-0.04,-0.03,1.17,-4.21,2.99,-6.35,917.62,24.49,
3586453,-0.03,-0.03,1.17,-4.27,3.11,-6.41,917.6,24.49,
3586492,-0.03,-0.02,1.21,-4.15,2.87,-6.23,917.61,24.48,
3586530,-0.03,-0.02,1.24,-4.09,2.44,-6.23,917.61,24.48,
3586568,-0.04,-0.02,1.28,-3.78,2.5,-5.98,917.6,24.49,
3586606,-0.03,-0.03,1.29,-3.85,2.93,-5.98,917.6,24.49,
3586656,-0.02,-0.03,1.32,-3.48,2.69,-5.98,917.62,24.48,
3586695,-0.03,-0.02,1.28,-3.17,2.93,-5.8,917.58,24.48,
3586733,-0.04,-0.02,1.26,-3.05,3.72,-5.86,917.6,24.49,
3586771,-0.02,-0.02,1.25,-3.05,4.03,-5.74,917.61,24.49,
3586809,-0.03,-0.03,1.2,-3.05,3.97,-5.74,917.6,24.49,
3586848,-0.05,-0.03,1.21,-2.81,3.78,-5.55,917.65,24.5,
3586886,-0.03,-0.03,1.18,-2.62,4.27,-5.55,917.61,24.51,
3586924,-0.02,-0.02,1.2,-2.14,4.09,-5.55,917.61,24.5,
3586962,-0.03,-0.03,1.19,-1.65,4.15,-5.49,917.59,24.5,
3587001,-0.03,-0.04,1.19,-1.4,3.66,-5.49,917.62,24.5,
3587051,-0.03,-0.04,1.12,-1.28,4.27,-5.19,917.56,24.49,
3587089,-0.02,-0.03,1.12,-1.46,3.97,-5.43,917.53,24.49,
3587127,-0.03,-0.04,1.1,-1.83,4.15,-5.31,917.57,24.49,
3587165,-0.03,-0.04,1.11,-1.83,4.21,-5.37,917.58,24.49,
3587203,-0.02,-0.04,1.12,-1.83,4.88,-5.49,917.57,24.5,
3587242,-0.01,-0.04,1.15,-1.4,4.27,-5.43,917.59,24.51,
3587280,-0.03,-0.04,1.11,-1.16,4.21,-5.07,917.63,24.51,
3587318,-0.02,-0.05,1.06,-0.73,4.33,-5.19,917.59,24.5,
3587356,-0.01,-0.04,1.05,-0.55,4.21,-5.37,917.55,24.51,
3587406,-0.01,-0.04,1.01,-0.49,4.46,-5.31,917.55,24.49,
3587445,-0.01,-0.05,1.02,-0.79,4.46,-5.49,917.51,24.5,
3587483,-0.02,-0.05,1.02,-1.1,4.58,-5.37,917.58,24.49,
3587521,-0.02,-0.06,1.01,-1.46,4.09,-5.43,917.56,24.51,
3587559,-0.02,-0.05,1.03,-1.65,4.21,-5.49,917.5,24.51,
3587598,-0.01,-0.05,1.01,-2.2,4.27,-5.49,917.56,24.51,
3587636,-0.01,-0.04,1.02,-2.38,3.54,-5.43,917.6,24.51,
3587674,-0.01,-0.05,1.02,-2.62,3.72,-5.43,917.58,24.51,
3587712,-0.01,-0.05,1.02,-2.62,3.36,-5.49,917.52,24.51,
3587762,-0.01,-0.05,1.04,-2.87,3.11,-5.49,917.59,24.49,
3587800,-0.01,-0.05,1.03,-2.93,2.69,-5.55,917.55,24.49,
3587839,-0.0,-0.05,1.04,-3.54,2.75,-5.62,917.54,24.51,
3587877,-0.0,-0.05,1.04,-4.09,2.5,-5.55,917.47,24.49,
3587915,0.0,-0.04,1.06,-4.94,2.14,-5.8,917.5,24.49,
3587953,-0.01,-0.04,1.07,-5.43,2.14,-5.74,917.52,24.5,
3587992,-0.0,-0.04,1.09,-6.1,2.56,-5.74,917.52,24.5,
3588030,0.01,-0.04,1.13,-6.23,2.69,-5.92,917.56,24.5,
3588068,0.0,-0.04,1.17,-6.16,2.56,-6.1,917.52,24.5,
3588106,0.0,-0.03,1.17,-6.16,3.17,-6.1,917.54,24.5,
3588156,0.0,-0.03,1.2,-5.98,3.23,-6.1,917.55,24.48,
3588194,-0.0,-0.04,1.18,-5.86,3.6,-6.16,917.49,24.48,
3588233,0.0,-0.03,1.19,-5.8,3.3,-6.47,917.56,24.5,
3588271,0.0,-0.03,1.18,-5.68,3.78,-6.41,917.54,24.5,
3588309,0.01,-0.03,1.18,-5.43,3.48,-6.53,917.57,24.49,
3588347,0.01,-0.03,1.2,-5.13,3.6,-6.41,917.58,24.5,
3588385,0.01,-0.03,1.18,-4.88,3.48,-6.71,917.61,24.5,
3588423,-0.01,-0.02,1.18,-4.46,3.3,-6.71,917.54,24.5,
3588462,0.01,-0.03,1.18,-4.09,3.17,-6.9,917.51,24.5,
3588537,0.01,-0.03,1.17,-3.6,3.11,-6.96,917.54,24.47,
3588576,0.01,-0.03,1.15,-3.42,2.87,-7.2,917.53,24.49,
3588614,0.01,-0.02,1.15,-3.11,2.38,-7.32,917.57,24.5,
3588703,0.01,-0.03,1.14,-3.17,1.83,-7.63,917.52,24.45,
3588742,0.01,-0.03,1.13,-3.23,1.04,-7.51,917.52,24.47,
3588780,0.0,-0.03,1.12,-3.54,0.55,-7.75,917.51,24.48,
3588818,0.01,-0.03,1.11,-3.72,0.24,-7.81,917.47,24.48,
3588856,0.01,-0.02,1.12,-4.03,-0.31,-8.0,917.5,24.49,
3588895,0.01,-0.03,1.09,-4.21,-0.73,-7.93,917.47,24.49,
3588944,-0.01,-0.03,1.12,-4.7,-1.4,-8.12,917.54,24.49,
3588983,0.0,-0.02,1.14,-4.82,-1.16,-8.12,917.51,24.48,
3589021,0.01,-0.02,1.17,-5.0,-1.89,-8.18,917.49,24.49,
3589059,0.01,-0.02,1.19,-5.13,-1.89,-8.06,917.52,24.49,
3589097,0.0,-0.03,1.19,-5.25,-2.08,-8.24,917.49,24.49,
3589136,-0.0,-0.02,1.22,-5.19,-1.95,-8.18,917.48,24.48,
3589174,0.01,-0.01,1.24,-5.19,-2.08,-8.24,917.49,24.49,
3589212,-0.0,-0.01,1.27,-5.25,-2.87,-8.54,917.48,24.47,
3589250,-0.01,-0.01,1.27,-5.19,-2.87,-8.42,917.48,24.49,
3589289,0.01,-0.01,1.29,-5.19,-3.05,-8.54,917.51,24.48,
3589339,0.0,-0.01,1.3,-5.07,-2.5,-8.54,917.55,24.47,
3589377,-0.01,-0.0,1.29,-4.76,-2.81,-8.79,917.53,24.48,
3589415,-0.01,-0.01,1.31,-4.46,-2.2,-8.67,917.52,24.48,
3589453,-0.01,-0.01,1.28,-4.39,-1.89,-8.91,917.54,24.5,
3589491,-0.01,-0.0,1.29,-3.91,-1.4,-8.97,917.49,24.48,
3589530,-0.02,-0.01,1.26,-3.78,-0.67,-9.03,917.49,24.49,
3589568,-0.02,-0.0,1.28,-3.3,-0.49,-9.22,917.59,24.49,
3589606,-0.01,0.0,1.27,-3.17,0.73,-9.46,917.47,24.5,
3589644,-0.02,-0.0,1.21,-3.17,1.46,-9.46,917.55,24.5,
3589694,-0.02,-0.0,1.23,-2.69,2.62,-9.52,917.45,24.48,
3589732,-0.02,-0.02,1.18,-2.81,3.54,-9.52,917.45,24.49,
3589771,-0.03,0.01,1.24,-2.87,2.5,-9.28,917.45,24.49,
3589809,-0.02,0.0,1.26,-2.81,2.38,-9.28,917.47,24.49,
3589847,-0.04,-0.01,1.24,-2.62,2.44,-9.16,917.48,24.5,
3589885,-0.03,-0.01,1.27,-2.14,2.5,-8.79,917.52,24.5,
3589924,-0.02,-0.01,1.25,-1.83,2.38,-8.79,917.54,24.5,
3589962,-0.03,-0.0,1.22,-1.46,1.77,-8.36,917.49,24.5,
3590000,-0.02,-0.0,1.2,-1.16,2.38,-8.42,917.54,24.51,
3590050,-0.02,-0.02,1.17,-0.67,2.26,-8.24,917.54,24.49,
3590088,-0.03,-0.02,1.15,-0.24,1.83,-8.12,917.59,24.5,
3590126,-0.03,-0.03,1.13,0.06,2.01,-8.0,917.52,24.49,
3590165,-0.01,-0.03,1.09,0.12,2.56,-8.12,917.54,24.5,
3590203,-0.02,-0.03,1.13,0.49,2.14,-8.06,917.48,24.51,
3590241,-0.03,-0.03,1.11,0.31,2.26,-7.93,917.49,24.5,
3590279,-0.02,-0.03,1.14,0.24,2.2,-8.0,917.5,24.5,
3590318,-0.02,-0.03,1.13,-0.18,3.17,-8.06,917.44,24.5,
3590356,-0.02,-0.03,1.11,-0.24,2.75,-7.87,917.52,24.51,
3590394,-0.03,-0.03,1.08,-0.43,3.54,-7.87,917.51,24.51,
3590444,-0.02,-0.03,1.06,-0.37,4.03,-7.87,917.47,24.49,
3590482,-0.02,-0.04,1.05,-0.37,4.21,-7.87,917.5,24.5,
3590520,-0.03,-0.03,1.08,-0.55,4.33,-8.06,917.42,24.5,
3590559,-0.02,-0.04,1.1,-0.61,4.39,-7.81,917.47,24.5,
3590597,-0.02,-0.04,1.07,-0.79,4.33,-7.93,917.48,24.5,
3590635,-0.03,-0.03,1.12,-0.73,3.78,-7.81,917.4,24.5,
3590673,-0.02,-0.04,1.03,-1.1,4.33,-7.87,917.43,24.5,
3590712,-0.03,-0.03,1.03,-0.73,3.54,-7.75,917.49,24.51,
3590750,-0.03,-0.05,0.99,-1.04,3.97,-7.63,917.45,24.51,
3590800,-0.03,-0.05,0.96,-1.34,3.05,-7.57,917.45,24.5,
3590838,-0.04,-0.05,0.95,-2.5,2.56,-7.45,917.41,24.49,
3590876,-0.04,-0.04,1.0,-3.36,1.22,-7.26,917.38,24.51,
3590915,-0.03,-0.05,0.99,-4.09,1.22,-7.14,917.41,24.5,
3590953,-0.05,-0.03,1.04,-4.76,0.49,-7.02,917.43,24.51,
3590991,-0.03,-0.04,1.07,-5.07,0.24,-6.77,917.44,24.52,
3591029,-0.03,-0.03,1.11,-5.37,-0.55,-6.77,917.41,24.51,
3591068,-0.05,-0.03,1.13,-5.62,-0.67,-6.65,917.44,24.53,
3591106,-0.03,-0.04,1.17,-5.74,-0.79,-6.47,917.39,24.51,
3591156,-0.04,-0.03,1.2,-5.43,-1.28,-6.23,917.5,24.51,
3591194,-0.04,-0.02,1.18,-5.43,-0.98,-6.29,917.45,24.51,
3591232,-0.03,-0.02,1.23,-5.19,-0.98,-6.23,917.43,24.51,
3591271,-0.02,-0.02,1.22,-5.07,-1.04,-6.23,917.38,24.51,
3591309,-0.04,-0.02,1.24,-4.82,-0.92,-5.98,917.41,24.51,
3591347,-0.03,-0.02,1.29,-4.76,-0.49,-5.8,917.4,24.51,
3591385,-0.02,-0.01,1.3,-4.64,-0.79,-5.74,917.41,24.5,
3591424,-0.04,-0.0,1.3,-4.7,-1.04,-5.68,917.41,24.5,
3591462,-0.03,0.0,1.36,-4.58,-1.04,-5.37,917.41,24.5,
3591538,-0.03,0.01,1.4,-4.15,-0.55,-5.25,917.43,24.48,
3591576,-0.03,0.01,1.4,-4.27,1.22,-5.37,917.45,24.49,
3591614,-0.03,0.02,1.38,-3.97,1.4,-5.37,917.47,24.49,
3591704,-0.03,0.0,1.34,-3.17,2.44,-5.19,917.45,24.44,
3591742,-0.03,-0.0,1.32,-2.69,3.54,-5.25,917.46,24.47,
3591781,-0.01,-0.0,1.29,-2.56,3.66,-5.31,917.45,24.48,
3591819,-0.04,-0.01,1.26,-2.01,3.66,-5.07,917.46,24.47,
3591857,-0.03,-0.02,1.21,-1.71,3.85,-4.88,917.43,24.49,
3591895,-0.04,-0.02,1.19,-1.65,4.27,-5.13,917.39,24.48,
3591934,-0.01,-0.02,1.18,-1.28,4.33,-4.94,917.39,24.48,
3591984,-0.02,-0.02,1.13,-1.04,4.33,-4.7,917.43,24.48,
3592022,-0.03,-0.03,1.1,-0.98,4.09,-4.94,917.38,24.48,
3592060,-0.02,-0.04,1.05,-0.92,4.64,-4.94,917.45,24.49,
3592098,-0.01,-0.05,1.02,-0.67,4.58,-5.0,917.38,24.47,
3592137,-0.02,-0.03,0.99,-0.79,4.27,-5.0,917.38,24.49,
3592175,-0.03,-0.04,0.97,-0.24,4.27,-5.07,917.39,24.48,
3592213,-0.01,-0.05,0.93,-0.24,5.0,-5.07,917.44,24.5,
3592251,-0.01,-0.03,0.96,0.0,4.15,-5.0,917.46,24.49,
3592290,-0.01,-0.05,0.9,-0.12,5.31,-5.0,917.45,24.5,
3592340,-0.02,-0.04,0.94,0.18,5.0,-5.07,917.39,24.48,
3592378,-0.0,-0.05,0.92,0.0,5.62,-5.13,917.42,24.5,
3592416,-0.01,-0.04,0.92,-0.24,5.19,-5.0,917.41,24.49,
3592454,-0.0,-0.05,0.91,-0.31,5.98,-5.13,917.46,24.49,
3592492,-0.01,-0.04,0.89,-0.43,5.31,-5.13,917.41,24.5,
3592531,-0.01,-0.05,0.89,-0.24,4.64,-4.82,917.42,24.5,
3592569,-0.0,-0.05,0.88,-0.98,4.33,-5.13,917.4,24.51,
3592607,-0.01,-0.04,0.93,-0.98,3.66,-5.43,917.34,24.5,
3592645,0.0,-0.05,0.9,-1.53,3.42,-5.13,917.37,24.49,
3592695,-0.01,-0.04,0.95,-1.71,2.08,-5.43,917.35,24.48,
3592734,0.0,-0.04,0.94,-2.32,2.44,-5.49,917.31,24.49,
3592772,0.01,-0.03,0.98,-2.2,1.59,-5.55,917.37,24.5,
3592810,-0.01,-0.03,0.96,-2.69,2.01,-5.74,917.36,24.5,
3592848,-0.01,-0.03,1.01,-2.26,1.59,-5.92,917.4,24.5,
3592887,-0.02,-0.03,1.04,-2.2,1.77,-5.92,917.35,24.5,
3592925,-0.02,-0.03,1.01,-1.95,1.22,-5.86,917.31,24.51,
3592963,-0.01,-0.03,1.05,-2.14,1.65,-6.1,917.34,24.51,
3593001,-0.01,-0.02,1.04,-2.01,1.71,-6.16,917.37,24.51,
3593039,-0.0,-0.03,1.07,-2.01,1.65,-6.1,917.33,24.53,
3593089,-0.01,-0.03,1.04,-2.14,1.65,-6.16,917.38,24.5,
3593128,-0.01,-0.02,1.05,-1.89,1.46,-6.29,917.38,24.51,
3593166,-0.01,-0.02,1.03,-2.2,1.65,-6.29,917.34,24.51,
3593204,-0.0,-0.02,1.06,-1.95,0.92,-6.53,917.36,24.51,
3593242,-0.01,-0.03,1.04,-2.08,1.1,-6.41,917.29,24.5,
3593281,-0.01,-0.03,1.07,-2.14,0.73,-6.53,917.36,24.51,
3593319,-0.01,-0.03,1.07,-2.26,1.1,-6.65,917.37,24.51,
3593357,-0.01,-0.02,1.05,-2.32,0.85,-6.77,917.31,24.51,
3593395,-0.01,-0.02,1.07,-2.2,0.92,-6.65,917.37,24.51,
3593445,-0.01,-0.02,1.07,-2.32,0.55,-6.77,917.38,24.5,
3593484,-0.01,-0.02,1.1,-2.14,0.49,-6.84,917.33,24.5,
3593522,-0.01,-0.02,1.08,-2.5,0.49,-6.71,917.31,24.5,
3593560,-0.01,-0.01,1.11,-2.38,0.12,-6.9,917.33,24.51,
3593598,-0.02,-0.01,1.09,-2.5,0.43,-7.08,917.33,24.5,
3593637,-0.02,-0.0,1.12,-2.56,0.0,-6.96,917.34,24.5,
3593675,-0.03,-0.01,1.12,-2.69,0.55,-7.08,917.32,24.5,
3593713,-0.02,-0.01,1.14,-2.32,0.73,-7.08,917.3,24.5,
3593751,-0.02,-0.01,1.15,-2.44,1.4,-6.9,917.28,24.52,
3593801,-0.01,-0.0,1.17,-2.26,1.59,-7.02,917.39,24.5,
3593840,-0.03,-0.0,1.17,-2.2,2.69,-6.96,917.35,24.5,
3593878,-0.03,-0.0,1.18,-1.95,2.93,-6.96,917.37,24.5,
3593916,-0.01,0.0,1.19,-1.89,2.93,-7.02,917.38,24.5,
3593954,-0.01,0.0,1.18,-1.71,3.17,-6.96,917.33,24.5,
3593993,-0.01,0.0,1.2,-1.46,3.3,-6.71,917.35,24.5,
3594031,-0.01,-0.01,1.18,-1.53,4.09,-6.9,917.37,24.5,
3594069,-0.02,-0.0,1.17,-1.4,4.03,-6.84,917.4,24.52,
3594107,-0.02,-0.0,1.19,-1.16,3.97,-6.84,917.33,24.5,
3594146,-0.02,-0.0,1.14,-1.16,4.33,-6.65,917.33,24.49,
3594196,-0.01,-0.0,1.18,-0.85,4.27,-6.65,917.37,24.5,
3594234,-0.01,-0.01,1.13,-0.98,4.15,-6.71,917.35,24.5,
3594272,-0.02,-0.0,1.14,-0.85,3.91,-6.59,917.4,24.51,
3594310,-0.01,-0.01,1.15,-0.79,4.39,-6.71,917.42,24.51,
3594348,-0.01,-0.0,1.15,-0.79,4.03,-6.77,917.38,24.51,
3594387,-0.03,-0.01,1.14,-0.55,4.27,-6.47,917.4,24.5,
3594425,-0.02,-0.0,1.13,-0.55,4.58,-6.53,917.39,24.52,
3594463,-0.02,-0.0,1.15,-0.73,5.0,-6.35,917.36,24.51,
3594501,-0.02,0.01,1.15,-0.55,4.58,-6.29,917.38,24.51,
3594577,-0.02,0.01,1.18,-1.1,5.13,-5.8,917.35,24.48,
3594616,-0.02,0.01,1.2,-1.28,4.64,-5.49,917.41,24.49,
3594654,-0.02,0.01,1.2,-1.59,4.33,-5.37,917.29,24.48,
3594743,0.0,0.02,1.25,-1.59,3.78,-4.88,917.35,24.46,
3594782,-0.01,0.01,1.2,-1.46,3.85,-4.82,917.35,24.48,
3594820,-0.0,0.02,1.24,-1.04,3.3,-4.7,917.4,24.48,
3594858,-0.0,0.01,1.24,-0.85,3.78,-4.76,917.37,24.49,
3594896,0.0,0.01,1.24,-0.43,3.42,-4.76,917.31,24.48,
3594934,-0.02,0.0,1.2,-0.12,4.39,-4.76,917.36,24.49,
3594973,0.01,0.0,1.2,0.18,4.15,-4.82,917.35,24.49,
3595023,-0.01,-0.01,1.12,0.55,5.43,-5.0,917.39,24.48,
3595061,-0.01,0.0,1.11,1.04,5.37,-5.07,917.36,24.49,
3595099,0.01,-0.02,1.11,1.4,7.26,-5.07,917.31,24.5,
3595137,0.0,-0.01,1.07,1.53,6.16,-5.13,917.35,24.49,
3595175,-0.01,-0.01,1.09,1.83,6.84,-5.07,917.33,24.5,
3595214,0.01,-0.02,1.04,1.53,7.39,-5.19,917.33,24.49,
3595252,-0.0,-0.02,1.06,1.59,6.47,-4.94,917.3,24.5,
3595290,-0.01,-0.02,1.03,1.16,6.47,-5.13,917.33,24.5,
3595328,-0.01,-0.02,1.04,1.04,6.29,-5.07,917.33,24.5,
3595378,0.0,-0.03,1.02,0.55,5.62,-5.07,917.33,24.49,
3595416,-0.01,-0.03,1.02,0.24,5.37,-5.0,917.27,24.5,
3595455,-0.0,-0.02,1.06,0.18,5.49,-5.07,917.25,24.5,
3595493,-0.01,-0.02,1.05,-0.18,5.13,-4.88,917.32,24.5,
3595531,-0.0,-0.02,1.12,-0.06,4.27,-4.82,917.31,24.51,
3595569,-0.0,-0.02,1.11,-0.55,4.82,-4.82,917.3,24.5,
3595608,-0.0,-0.03,1.1,-0.85,5.49,-4.88,917.31,24.5,
3595646,0.0,-0.02,1.11,-1.1,5.74,-4.88,917.32,24.5,
3595684,0.0,-0.02,1.12,-1.4,6.47,-4.94,917.35,24.52,
3595722,-0.01,-0.02,1.11,-1.59,7.69,-4.82,917.29,24.52,
3595772,-0.0,-0.03,1.11,-1.89,9.16,-4.76,917.23,24.49,
3595810,-0.0,-0.03,1.1,-2.32,9.03,-4.7,917.3,24.51,
3595849,0.01,-0.03,1.14,-2.56,9.4,-4.7,917.27,24.51,
3595887,0.02,-0.04,1.12,-2.81,10.44,-4.64,917.25,24.5,
3595925,0.01,-0.04,1.1,-2.93,10.62,-4.58,917.24,24.51,
3595963,0.01,-0.03,1.13,-3.17,10.62,-4.58,917.24,24.5,
3596001,0.01,-0.03,1.1,-3.42,10.56,-4.46,917.22,24.5,
3596040,0.02,-0.04,1.12,-3.6,10.07,-4.64,917.21,24.51,
3596078,0.03,-0.05,1.1,-3.78,10.44,-4.82,917.23,24.51,
3596128,0.03,-0.04,1.1,-4.33,9.7,-4.52,917.18,24.49,
3596166,0.03,-0.04,1.12,-4.94,9.28,-4.94,917.18,24.5,
3596204,0.03,-0.04,1.11,-5.37,8.67,-5.0,917.22,24.5,
3596243,0.03,-0.04,1.14,-5.98,7.69,-5.07,917.21,24.51,
3596281,0.02,-0.04,1.13,-6.47,7.63,-5.13,917.2,24.5,
3596319,0.02,-0.03,1.14,-7.02,7.14,-5.37,917.18,24.5,
3596357,0.02,-0.03,1.21,-7.02,6.71,-5.55,917.15,24.51,
3596396,0.02,-0.04,1.22,-7.39,6.59,-5.68,917.2,24.51,
3596434,0.02,-0.03,1.27,-7.57,6.23,-6.04,917.16,24.51,
3596484,0.01,-0.02,1.26,-7.63,7.14,-6.04,917.24,24.51,
3596522,0.02,-0.02,1.3,-7.45,6.71,-6.35,917.2,24.5,
3596560,0.02,-0.02,1.3,-7.26,6.9,-6.47,917.22,24.51,
3596598,0.0,-0.02,1.33,-6.84,6.53,-6.65,917.15,24.52,
3596637,0.02,-0.02,1.33,-6.35,7.2,-6.65,917.24,24.5,
3596675,0.03,-0.02,1.33,-5.86,6.77,-6.9,917.17,24.51,
3596713,0.01,-0.03,1.29,-5.74,6.71,-6.77,917.22,24.52,
3596751,0.01,-0.02,1.27,-5.19,6.41,-6.77,917.24,24.52,
3596790,0.02,-0.03,1.27,-4.88,6.47,-7.08,917.11,24.51,
3596828,0.02,-0.03,1.24,-4.52,5.98,-7.14,917.17,24.52,
3596878,0.02,-0.03,1.24,-4.21,4.94,-7.02,917.17,24.5,
3596916,0.0,-0.03,1.2,-3.97,4.64,-7.08,917.16,24.51,
3596954,0.01,-0.04,1.21,-3.85,3.78,-7.14,917.19,24.52,
3596993,0.01,-0.04,1.21,-3.66,3.66,-7.32,917.15,24.51,
3597031,0.01,-0.04,1.19,-3.66,3.3,-7.39,917.18,24.5,
3597069,0.01,-0.04,1.16,-3.66,3.97,-7.51,917.17,24.5,
3597107,0.02,-0.05,1.14,-3.91,3.78,-7.87,917.17,24.51,
3597146,0.0,-0.05,1.11,-3.91,3.78,-7.81,917.19,24.52,
3597184,0.01,-0.04,1.1,-4.03,3.78,-8.0,917.11,24.52,
3597234,0.01,-0.04,1.07,-4.46,3.97,-8.18,917.21,24.5,
3597272,0.0,-0.05,1.08,-4.64,3.6,-8.3,917.16,24.5,
3597310,0.01,-0.05,1.11,-5.0,3.85,-8.48,917.14,24.52,
3597348,0.01,-0.04,1.12,-5.31,4.27,-8.61,917.18,24.5,
3597387,-0.01,-0.03,1.15,-5.68,4.7,-8.54,917.08,24.49,
3597425,-0.0,-0.04,1.16,-5.92,5.49,-8.67,917.2,24.51,
3597463,0.01,-0.04,1.17,-6.23,6.16,-8.79,917.09,24.51,
3597501,-0.01,-0.04,1.18,-6.41,7.08,-8.79,917.14,24.5,
3597540,-0.0,-0.03,1.19,-6.29,7.51,-8.73,917.13,24.52,
3597578,0.01,-0.03,1.21,-6.53,7.81,-8.85,917.14,24.52,
3597654,-0.0,-0.04,1.25,-6.53,7.81,-8.79,917.05,24.48,
3597692,-0.0,-0.03,1.24,-6.77,8.06,-8.91,917.11,24.51,
3597730,0.0,-0.02,1.28,-6.71,7.14,-9.09,917.06,24.51,
3597820,0.0,-0.03,1.26,-6.84,6.47,-8.85,917.06,24.47,
3597858,-0.01,-0.02,1.28,-6.96,6.29,-8.91,917.02,24.47,
3597896,-0.01,-0.02,1.3,-7.14,6.16,-8.91,917.09,24.49,
3597935,-0.01,-0.02,1.3,-7.2,6.16,-8.79,917.01,24.47,
3597973,0.0,-0.02,1.34,-6.96,6.1,-8.91,917.07,24.5,
3598011,-0.01,-0.03,1.31,-7.14,6.65,-8.79,917.01,24.5,
3598061,0.0,-0.02,1.31,-7.45,6.53,-8.67,917.0,24.47,
3598099,-0.02,-0.01,1.29,-7.26,6.65,-8.85,916.99,24.48,
3598138,-0.01,-0.02,1.29,-7.14,6.53,-8.73,916.98,24.49,
3598176,0.0,-0.02,1.3,-7.08,6.47,-8.73,916.97,24.5,
3598214,-0.0,-0.02,1.3,-7.39,6.59,-8.91,916.93,24.49,
3598252,-0.01,-0.02,1.3,-7.45,6.1,-8.85,916.98,24.49,
3598291,-0.01,-0.02,1.34,-7.81,5.55,-8.79,916.94,24.5,
3598329,-0.01,-0.03,1.33,-7.69,5.25,-8.85,916.95,24.5,
3598367,-0.04,-0.02,1.32,-7.87,5.37,-8.79,917.01,24.5,
3598417,-0.02,-0.01,1.35,-7.93,5.19,-8.85,916.94,24.49,
3598455,-0.01,-0.01,1.33,-8.42,5.13,-8.73,916.95,24.49,
3598494,-0.03,-0.01,1.36,-8.24,4.39,-8.67,916.95,24.5,
3598532,-0.03,-0.01,1.37,-8.06,5.19,-8.36,916.96,24.49,
3598570,-0.03,-0.0,1.38,-7.69,4.88,-8.36,916.93,24.49,
3598608,-0.04,-0.01,1.39,-7.32,4.82,-8.12,916.95,24.5,
3598646,-0.04,-0.01,1.35,-7.26,4.88,-8.12,916.91,24.5,
3598685,-0.04,-0.01,1.35,-6.9,5.25,-8.0,916.9,24.49,
3598723,-0.03,-0.02,1.33,-6.71,5.13,-8.0,916.9,24.49,
3598761,-0.03,-0.02,1.32,-6.65,4.76,-7.63,916.84,24.49,
3598811,-0.04,-0.01,1.28,-6.65,4.82,-7.2,916.89,24.48,
3598849,-0.03,-0.02,1.28,-6.59,4.27,-7.26,916.82,24.48,
3598888,-0.04,-0.02,1.25,-7.08,3.48,-7.08,916.87,24.48,
3598926,-0.03,-0.02,1.27,-7.14,3.3,-6.84,916.86,24.49,
3598964,-0.03,-0.02,1.27,-7.51,3.97,-6.84,916.9,24.49,
3599002,-0.03,-0.01,1.31,-7.26,3.48,-6.77,916.86,24.49,
3599041,-0.04,-0.03,1.28,-6.96,3.72,-6.71,916.89,24.5,
3599079,-0.03,-0.02,1.29,-7.02,3.42,-6.59,916.88,24.49,
3599117,-0.03,-0.02,1.26,-6.77,3.97,-6.59,916.87,24.51,
3599167,-0.02,-0.01,1.26,-6.71,3.17,-6.41,916.84,24.5,
3599205,-0.04,-0.02,1.26,-6.53,3.6,-6.35,916.88,24.5,
3599244,-0.02,-0.03,1.25,-6.77,2.93,-6.41,916.83,24.5,
3599282,-0.03,-0.01,1.27,-7.08,3.11,-6.23,916.89,24.51,
3599320,-0.02,-0.02,1.26,-7.14,2.81,-6.04,916.82,24.5,
3599358,-0.03,-0.02,1.26,-7.39,2.56,-6.23,916.84,24.51,
3599397,-0.04,-0.02,1.25,-7.2,2.62,-5.92,916.82,24.49,
3599435,-0.02,-0.01,1.25,-7.08,2.44,-5.8,916.88,24.51,
3599473,-0.02,-0.01,1.28,-6.59,1.89,-5.98,916.88,24.5,
3599523,-0.03,-0.02,1.26,-6.35,1.59,-5.68,916.78,24.5,
3599561,-0.03,-0.02,1.28,-6.16,1.28,-5.62,916.8,24.49,
3599600,-0.02,-0.01,1.27,-5.98,0.98,-5.55,916.77,24.5,
3599638,-0.01,-0.02,1.27,-5.92,0.85,-5.49,916.8,24.49,
3599676,-0.02,-0.02,1.25,-5.92,1.16,-5.43,916.79,24.5,
3599714,-0.02,-0.01,1.24,-5.92,1.1,-5.37,916.82,24.5,
3599753,-0.01,-0.02,1.23,-5.8,1.34,-5.55,916.87,24.51,
3599791,-0.02,-0.02,1.23,-5.43,1.4,-5.43,916.83,24.5,
3599829,-0.01,-0.02,1.24,-5.43,2.38,-5.62,916.86,24.5,
3599867,-0.01,-0.02,1.23,-5.07,2.44,-5.68,916.85,24.52,
3599917,-0.01,-0.02,1.24,-4.76,2.99,-5.92,916.85,24.5,
3599955,-0.01,-0.02,1.2,-4.58,3.54,-5.92,916.88,24.51,
3599994,-0.0,-0.03,1.2,-4.46,3.85,-5.92,916.89,24.5,
3600032,-0.01,-0.02,1.17,-4.46,3.91,-5.92,916.82,24.51,
3600070,-0.01,-0.03,1.18,-4.58,3.72,-6.1,916.74,24.51,
3600108,0.0,-0.03,1.18,-4.64,3.85,-6.04,916.77,24.51,
3600146,0.0,-0.02,1.2,-4.94,3.54,-5.92,916.81,24.52,
3600185,0.0,-0.02,1.19,-5.19,3.3,-5.92,916.76,24.51,
3600223,0.0,-0.01,1.23,-5.74,2.87,-6.04,916.79,24.5,
3600273,0.01,-0.02,1.25,-5.62,2.81,-6.1,916.77,24.5,
3600311,-0.01,-0.02,1.24,-5.19,2.44,-6.1,916.76,24.5,
3600349,-0.0,-0.01,1.24,-5.07,1.89,-6.1,916.79,24.5,
3600388,0.01,-0.02,1.23,-4.7,1.59,-6.23,916.78,24.51,
3600426,0.0,-0.01,1.22,-4.46,1.53,-6.35,916.78,24.51,
3600464,0.01,-0.02,1.23,-4.15,1.71,-6.41,916.79,24.51,
3600502,0.01,-0.02,1.21,-4.03,1.53,-6.53,916.8,24.51,
3600541,0.0,-0.02,1.22,-3.78,1.1,-6.59,916.77,24.51,
3600579,-0.01,-0.02,1.18,-3.66,0.98,-6.59,916.76,24.51,
3600617,0.02,-0.02,1.19,-3.6,0.49,-6.71,916.8,24.5,
3600693,0.0,-0.02,1.18,-3.91,-0.18,-6.65,916.75,24.47,
3600731,-0.01,-0.02,1.15,-4.33,-0.12,-6.71,916.73,24.48,
3600769,0.0,-0.01,1.19,-4.52,-0.24,-6.84,916.78,24.49,
3600859,0.01,-0.01,1.23,-5.07,0.0,-6.77,916.74,24.45,
3600897,0.01,0.0,1.23,-5.55,-0.06,-6.96,916.76,24.47,
3600935,0.0,0.01,1.26,-5.68,-0.37,-7.02,916.78,24.48,
3600973,0.0,0.0,1.22,-6.04,-0.24,-7.14,916.73,24.47,
3601012,0.0,0.01,1.27,-6.1,-0.79,-7.08,916.78,24.47,
3601050,0.0,0.0,1.23,-6.16,-0.24,-6.9,916.75,24.46,
3601100,-0.01,-0.0,1.2,-5.68,-0.61,-7.14,916.8,24.47,
3601138,0.0,-0.03,1.13,-5.55,0.73,-7.32,916.79,24.47,
3601176,0.01,-0.01,1.13,-4.88,0.31,-7.39,916.76,24.48,
3601214,0.01,-0.02,1.09,-4.58,1.65,-7.57,916.8,24.47,
3601253,-0.0,-0.01,1.09,-4.03,1.71,-7.87,916.76,24.48,
3601291,0.0,-0.02,1.11,-3.72,2.5,-7.81,916.79,24.47,
3601329,0.0,-0.03,1.11,-3.54,2.08,-7.87,916.74,24.48,
3601367,0.0,-0.01,1.16,-3.78,2.32,-8.12,916.74,24.48,
3601406,0.01,-0.01,1.2,-3.97,2.69,-8.12,916.77,24.49,
3601456,0.01,-0.02,1.21,-4.15,2.81,-8.24,916.71,24.47,
3601494,0.0,-0.0,1.23,-4.09,2.56,-8.12,916.72,24.48,
3601532,0.01,-0.0,1.22,-4.21,2.56,-8.24,916.79,24.49,
3601570,0.02,-0.01,1.24,-4.27,2.44,-8.24,916.78,24.49,
3601608,0.0,-0.01,1.22,-4.21,2.32,-8.24,916.74,24.49,
3601647,0.0,-0.01,1.2,-3.85,2.5,-8.42,916.8,24.5,
3601685,0.01,-0.01,1.2,-3.78,2.62,-8.42,916.77,24.49,
3601723,0.0,-0.01,1.18,-3.66,2.32,-8.61,916.78,24.49,
3601761,0.0,-0.01,1.17,-3.6,2.08,-8.61,916.7,24.49,
3601800,0.0,-0.02,1.16,-3.85,2.26,-8.85,916.76,24.49,
3601850,0.01,-0.02,1.15,-4.09,2.2,-8.79,916.79,24.48,
3601888,0.0,-0.02,1.14,-4.27,2.14,-8.85,916.76,24.49,
3601926,0.0,-0.02,1.13,-4.58,2.08,-9.09,916.77,24.49,
3601964,0.0,-0.02,1.13,-4.46,2.26,-8.85,916.76,24.5,
3602003,0.01,-0.02,1.14,-4.52,2.14,-9.03,916.78,24.49,
3602041,-0.0,-0.02,1.13,-4.58,2.38,-9.09,916.76,24.48,
3602079,0.0,-0.02,1.14,-4.7,2.38,-9.16,916.76,24.48,
3602117,0.01,-0.02,1.15,-4.64,2.5,-9.4,916.77,24.49,
3602156,-0.0,-0.02,1.15,-4.76,2.26,-9.22,916.81,24.49,
3602205,0.0,-0.02,1.15,-5.07,2.75,-9.46,916.82,24.48,
3602244,-0.0,-0.02,1.16,-4.94,2.5,-9.46,916.74,24.48,
3602282,0.0,-0.02,1.17,-4.88,2.62,-9.46,916.78,24.48,
3602320,-0.0,-0.02,1.16,-5.43,2.69,-9.7,916.76,24.48,
3602358,-0.0,-0.01,1.17,-5.31,2.99,-9.83,916.8,24.5,
3602397,-0.01,-0.02,1.16,-5.49,3.91,-9.83,916.76,24.48,
3602435,0.0,-0.02,1.19,-5.31,3.78,-9.89,916.77,24.48,
3602473,-0.01,-0.01,1.24,-5.31,4.33,-9.89,916.77,24.48,
3602511,-0.02,-0.02,1.21,-5.07,4.82,-9.95,916.79,24.49,
3602550,-0.01,-0.0,1.25,-5.49,5.07,-10.07,916.77,24.49,
3602600,-0.03,-0.0,1.26,-5.19,5.25,-9.95,916.8,24.47,
3602638,-0.01,-0.01,1.27,-5.74,5.31,-9.58,916.78,24.48,
3602676,-0.01,-0.01,1.3,-5.68,5.13,-9.95,916.73,24.47,
3602714,-0.01,0.01,1.32,-6.1,5.31,-9.83,916.75,24.47,
3602753,-0.01,0.01,1.33,-6.1,5.19,-9.58,916.74,24.48,
3602791,-0.01,0.01,1.34,-6.41,5.13,-9.77,916.76,24.47,
3602829,-0.01,0.01,1.35,-6.47,4.82,-9.52,916.78,24.48,
3602867,-0.01,0.01,1.34,-6.59,4.21,-9.64,916.74,24.46,
3602906,-0.01,0.0,1.32,-6.47,4.27,-9.7,916.74,24.47,
3602956,-0.02,0.02,1.35,-6.29,3.42,-9.58,916.76,24.45,
3602994,-0.01,0.01,1.33,-6.35,3.42,-9.52,916.75,24.47,
3603032,-0.01,0.02,1.35,-6.23,3.3,-9.64,916.72,24.47,
3603070,-0.02,0.01,1.35,-5.98,2.93,-9.4,916.74,24.47,
3603108,-0.02,0.01,1.34,-5.98,2.38,-9.09,916.78,24.49,
3603147,-0.03,0.01,1.35,-5.55,2.08,-9.03,916.79,24.48,
3603185,-0.03,0.0,1.33,-5.55,2.08,-9.09,916.73,24.48,
3603223,-0.02,0.01,1.33,-5.49,1.77,-9.09,916.74,24.48,
3603261,-0.02,0.01,1.31,-5.62,1.71,-8.97,916.74,24.49,
3603299,-0.03,-0.0,1.29,-5.68,1.89,-8.73,916.81,24.49,
3603349,-0.03,-0.0,1.27,-5.8,1.83,-8.73,916.82,24.48,
3603388,-0.02,0.0,1.27,-5.68,1.83,-8.67,916.82,24.48,
3603426,-0.02,-0.0,1.26,-5.8,2.01,-8.54,916.82,24.48,
3603464,-0.03,-0.0,1.26,-5.86,1.95,-8.36,916.81,24.49,
3603502,-0.03,-0.01,1.25,-5.74,2.14,-8.48,916.81,24.48,
3603541,-0.03,0.0,1.25,-5.74,1.95,-8.3,916.81,24.49,
3603579,-0.04,-0.0,1.25,-5.74,2.08,-8.18,916.81,24.49,
3603617,-0.02,-0.01,1.25,-5.92,2.26,-8.0,916.79,24.49,
3603655,-0.02,-0.0,1.28,-5.86,1.77,-8.0,916.8,24.5,
3603733,-0.03,-0.01,1.28,-5.86,2.08,-7.93,916.79,24.46,
3603771,-0.03,-0.0,1.26,-5.8,2.26,-7.81,916.87,24.47,
3603809,-0.02,-0.01,1.25,-5.92,2.14,-7.63,916.81,24.48,
3603899,-0.02,-0.0,1.26,-5.68,1.65,-7.51,916.79,24.44,
3603937,-0.01,0.0,1.29,-5.68,1.4,-7.32,916.78,24.45,
3603975,-0.02,-0.0,1.28,-5.74,1.28,-7.26,916.79,24.47,
3604013,-0.02,0.0,1.3,-5.49,0.79,-7.2,916.79,24.47,
3604052,-0.03,-0.0,1.3,-5.74,0.61,-6.96,916.83,24.47,
3604090,-0.02,0.01,1.29,-5.68,0.49,-7.02,916.8,24.47,
3604140,-0.01,0.0,1.29,-5.68,0.67,-6.84,916.8,24.46,
3604178,-0.01,0.0,1.29,-5.68,0.12,-6.9,916.84,24.48,
3604216,-0.01,-0.0,1.28,-5.62,0.43,-7.02,916.84,24.47,
3604255,-0.02,0.0,1.27,-5.8,0.67,-6.96,916.84,24.48,
3604293,-0.01,0.01,1.31,-5.74,0.24,-6.96,916.82,24.48,
3604331,-0.02,-0.01,1.28,-5.92,0.43,-7.02,916.85,24.48,
3604369,-0.02,0.0,1.28,-6.04,0.85,-7.08,916.83,24.47,
3604408,-0.0,0.01,1.32,-5.86,1.28,-7.02,916.83,24.47,
3604446,-0.01,-0.0,1.3,-5.8,0.92,-6.96,916.84,24.48,
3604484,-0.02,0.01,1.32,-5.55,0.98,-7.02,916.84,24.48,
3604534,-0.02,0.01,1.35,-5.31,1.89,-7.02,916.82,24.47,
3604572,-0.01,0.01,1.33,-5.37,2.32,-7.2,916.82,24.47,
3604611,-0.02,0.01,1.36,-5.19,2.26,-7.14,916.84,24.49,
3604649,-0.01,0.0,1.36,-5.43,2.87,-7.14,916.81,24.48,
3604687,0.0,0.01,1.35,-5.37,3.23,-7.26,916.81,24.49,
3604725,-0.02,0.02,1.36,-5.37,3.6,-7.2,916.84,24.5,
3604763,-0.01,0.01,1.33,-5.19,4.09,-7.08,916.82,24.49,
3604802,-0.01,0.02,1.35,-5.13,4.15,-7.26,916.83,24.49,
3604840,-0.01,0.01,1.36,-4.82,4.52,-7.2,916.83,24.49,
3604890,-0.01,0.01,1.36,-4.88,4.39,-7.02,916.8,24.48,
3604928,-0.0,0.02,1.38,-4.52,4.46,-7.14,916.72,24.48,
3604966,-0.01,0.01,1.34,-4.58,4.27,-7.26,916.85,24.49,
3605005,-0.0,0.01,1.33,-4.52,4.58,-7.14,916.81,24.5,
3605043,-0.0,0.0,1.33,-4.15,4.46,-7.2,916.84,24.5,
3605081,-0.01,0.01,1.31,-4.15,4.21,-7.08,916.8,24.49,
3605119,-0.01,0.01,1.31,-4.03,3.97,-7.14,916.74,24.49,
3605158,0.0,0.01,1.32,-4.09,4.52,-7.2,916.78,24.5,
3605196,0.0,0.02,1.35,-4.09,4.27,-7.26,916.75,24.5,
3605234,-0.01,0.01,1.34,-4.27,4.76,-7.45,916.72,24.49,
3605284,-0.01,0.03,1.38,-4.39,5.74,-7.63,916.73,24.5,
3605322,-0.0,0.02,1.33,-4.7,6.77,-7.93,916.66,24.48,
3605360,-0.0,0.02,1.32,-4.82,6.77,-8.0,916.69,24.49,
3605399,-0.01,0.01,1.3,-5.25,8.42,-8.18,916.74,24.5,
3605437,0.03,0.01,1.26,-5.49,8.97,-8.18,916.7,24.5,
3605475,-0.0,0.02,1.29,-5.07,8.12,-8.18,916.75,24.5,
3605513,-0.02,0.01,1.23,-4.82,8.97,-8.12,916.69,24.5,
3605551,-0.01,0.0,1.25,-4.58,8.85,-8.12,916.75,24.5,
3605590,-0.01,-0.01,1.23,-4.64,8.36,-8.0,916.65,24.49,
3605640,-0.02,-0.01,1.2,-4.76,7.69,-7.93,916.59,24.47,
3605678,-0.01,-0.01,1.15,-5.0,8.24,-7.87,916.64,24.48,
3605716,0.01,-0.0,1.14,-5.19,7.63,-8.06,916.64,24.49,
3605754,-0.01,-0.02,1.07,-5.55,7.87,-7.87,916.66,24.48,
3605792,0.0,-0.01,1.06,-5.68,7.57,-8.12,916.63,24.5,
3605831,0.0,-0.02,1.1,-5.62,8.0,-8.12,916.67,24.49,
3605869,0.0,-0.03,1.04,-5.86,6.71,-8.12,916.61,24.5,
3605907,0.0,-0.02,1.09,-5.07,5.55,-7.69,916.58,24.49,
3605945,0.0,-0.03,1.03,-5.43,5.37,-7.87,916.63,24.5,
3605984,0.02,-0.01,1.08,-4.76,2.99,-7.69,916.66,24.5,
3606034,0.0,-0.02,1.05,-5.19,2.32,-7.63,916.55,24.48,
3606072,-0.0,-0.02,1.12,-5.31,1.1,-7.51,916.57,24.49,
3606110,0.0,-0.02,1.16,-5.74,1.59,-7.45,916.57,24.49,
3606148,0.01,-0.01,1.2,-5.8,0.79,-7.51,916.6,24.49,
3606186,0.01,-0.01,1.22,-6.04,0.55,-7.57,916.59,24.5,
3606225,0.01,-0.01,1.23,-6.16,0.31,-7.39,916.55,24.49,
3606263,0.0,-0.01,1.18,-6.29,0.49,-7.57,916.6,24.48,
3606301,0.0,-0.0,1.22,-6.04,-0.43,-7.81,916.6,24.49,
3606339,0.01,-0.02,1.18,-6.35,-0.06,-7.75,916.64,24.51,
3606389,0.0,-0.01,1.17,-5.86,-1.16,-7.93,916.65,24.49,
3606427,-0.0,-0.03,1.14,-5.74,0.0,-7.87,916.58,24.47,
3606466,0.02,-0.03,1.19,-5.19,-0.79,-8.06,916.6,24.49,
3606504,-0.02,-0.03,1.13,-5.19,0.0,-8.24,916.67,24.49,
3606542,-0.02,-0.01,1.11,-5.19,0.18,-8.3,916.6,24.49,
3606580,0.0,-0.02,1.23,-5.25,1.28,-8.54,916.56,24.48,
3606619,-0.01,-0.03,1.19,-5.49,1.34,-8.36,916.55,24.47,
3606657,-0.01,-0.01,1.25,-5.13,0.43,-8.61,916.6,24.49,
3606695,-0.01,-0.02,1.2,-5.86,1.4,-8.67,916.61,24.48,
3606771,-0.02,-0.01,1.26,-5.86,0.79,-8.48,916.59,24.46,
3606809,-0.02,-0.02,1.3,-5.74,0.31,-8.61,916.62,24.46,
3606847,-0.02,-0.01,1.31,-5.8,1.1,-8.42,916.57,24.48,
3606937,-0.01,-0.0,1.34,-5.74,1.16,-8.48,916.61,24.43,
3606975,-0.02,0.01,1.38,-5.37,1.28,-8.54,916.58,24.43,
3607014,-0.01,0.01,1.43,-5.55,2.75,-8.73,916.59,24.45,
3607052,-0.01,0.02,1.39,-5.8,4.58,-8.97,916.62,24.46,
3607090,-0.01,0.04,1.5,-5.37,4.94,-9.28,916.6,24.46,
3607128,-0.02,0.02,1.49,-5.86,7.08,-9.52,916.55,24.45,
3607167,-0.03,0.03,1.51,-6.29,7.14,-9.64,916.57,24.46,
3607217,-0.01,0.03,1.47,-6.35,8.0,-9.22,916.5,24.44,
3607255,-0.01,0.04,1.48,-6.77,5.92,-9.16,916.57,24.46,
3607293,-0.04,0.06,1.5,-6.84,6.47,-8.61,916.51,24.46,
3607331,-0.02,0.04,1.48,-6.47,6.59,-8.54,916.52,24.46,
3607369,-0.01,0.02,1.5,-6.16,6.29,-8.12,916.52,24.46,
3607408,-0.03,0.02,1.5,-5.92,5.68,-7.87,916.57,24.46,
3607446,-0.02,0.01,1.48,-5.0,5.0,-7.69,916.54,24.46,
3607484,0.0,0.01,1.45,-5.07,5.37,-7.75,916.58,24.48,
3607522,-0.0,0.01,1.4,-4.7,4.58,-7.51,916.53,24.46,
3607572,-0.02,-0.01,1.32,-4.52,4.52,-7.14,916.5,24.46,
3607611,-0.02,-0.01,1.28,-4.88,4.03,-7.2,916.52,24.47,
3607649,0.0,-0.01,1.32,-4.7,3.66,-7.2,916.51,24.48,
3607687,0.0,-0.02,1.25,-4.88,3.11,-7.02,916.54,24.47,
3607725,-0.01,-0.01,1.27,-5.25,2.44,-7.08,916.51,24.47,
3607763,0.01,-0.03,1.28,-5.37,2.93,-7.14,916.54,24.47,
3607802,0.01,-0.03,1.28,-5.62,2.5,-7.14,916.52,24.47,
3607840,0.0,-0.02,1.3,-5.68,0.92,-7.02,916.53,24.47,
3607878,-0.01,-0.02,1.25,-5.86,0.85,-7.08,916.46,24.47,
3607916,0.01,-0.01,1.26,-5.86,0.43,-7.2,916.47,24.47,
3607966,0.01,-0.04,1.23,-6.04,0.43,-7.2,916.46,24.46,
3608005,-0.0,-0.04,1.22,-5.98,0.24,-7.26,916.45,24.47,
3608043,-0.0,-0.04,1.24,-6.04,1.34,-7.51,916.41,24.47,
3608081,0.01,-0.03,1.27,-5.98,0.31,-7.32,916.48,24.47,
3608119,0.01,-0.03,1.27,-5.92,0.43,-7.26,916.39,24.46,
3608158,-0.0,-0.03,1.31,-6.16,0.37,-7.57,916.4,24.48,
3608196,0.02,-0.04,1.33,-6.16,0.0,-7.51,916.44,24.49,
3608234,0.02,-0.03,1.32,-6.23,-0.67,-7.63,916.37,24.47,
3608272,-0.01,-0.02,1.32,-6.16,-0.79,-7.57,916.44,24.48,
3608322,0.01,-0.04,1.25,-6.41,0.31,-7.87,916.41,24.47,
3608360,0.01,-0.03,1.28,-6.1,0.0,-8.12,916.38,24.47,
3608399,0.0,-0.04,1.22,-6.23,0.43,-8.24,916.37,24.47,
3608437,0.01,-0.03,1.22,-6.23,0.67,-8.3,916.36,24.47,
3608475,0.01,-0.03,1.27,-6.04,0.43,-8.36,916.39,24.49,
3608513,0.01,-0.04,1.26,-6.1,0.98,-8.3,916.4,24.47,
3608552,0.0,-0.04,1.27,-6.1,0.67,-8.36,916.4,24.48,
3608590,-0.0,-0.04,1.28,-5.8,1.22,-8.54,916.35,24.48,
3608628,0.0,-0.04,1.26,-6.16,1.04,-8.67,916.33,24.47,
3608678,-0.01,-0.04,1.26,-6.47,1.59,-8.73,916.34,24.46,
3608716,0.0,-0.04,1.24,-6.71,2.44,-8.91,916.34,24.47,
3608754,-0.0,-0.02,1.3,-7.02,2.81,-8.97,916.38,24.48,
3608793,0.0,-0.03,1.29,-7.45,3.23,-8.91,916.25,24.47,
3608831,-0.02,-0.02,1.35,-7.51,3.3,-8.91,916.27,24.47,
3608869,-0.01,-0.03,1.34,-7.39,3.97,-8.97,916.28,24.48,
3608907,-0.01,-0.03,1.36,-7.57,3.23,-9.03,916.25,24.48,
3608946,-0.0,-0.02,1.39,-7.2,3.05,-8.97,916.29,24.48,
3608984,-0.02,-0.02,1.33,-7.45,3.11,-8.85,916.22,24.47,
3609022,-0.01,-0.01,1.37,-7.32,3.05,-8.79,916.26,24.48,
3609072,-0.01,-0.03,1.38,-7.02,2.69,-8.97,916.26,24.47,
3609110,-0.02,-0.01,1.39,-7.08,2.56,-8.97,916.23,24.47,
3609148,-0.0,-0.02,1.4,-6.71,2.87,-8.97,916.27,24.47,
3609187,-0.01,-0.01,1.37,-6.53,2.87,-8.79,916.19,24.49,
3609225,-0.02,-0.02,1.35,-6.41,2.99,-8.85,916.29,24.48,
3609263,-0.02,-0.03,1.31,-6.41,3.54,-9.09,916.22,24.47,
3609301,-0.01,-0.02,1.3,-6.23,4.33,-8.97,916.21,24.48,
3609340,-0.02,-0.02,1.29,-6.1,3.78,-9.03,916.19,24.47,
3609378,-0.02,-0.02,1.32,-5.86,3.48,-8.67,916.17,24.48,
3609428,-0.02,-0.02,1.3,-5.68,3.6,-9.09,916.22,24.47,
3609466,-0.0,-0.03,1.29,-5.98,4.15,-8.97,916.19,24.47,
3609504,-0.02,-0.02,1.32,-5.62,3.78,-8.97,916.16,24.47,
3609542,-0.02,-0.03,1.28,-5.92,4.27,-9.03,916.18,24.47,
3609581,-0.01,-0.02,1.33,-5.68,3.85,-9.22,916.13,24.46,
3609619,-0.02,-0.03,1.27,-6.04,4.39,-8.97,916.06,24.47,
3609657,-0.02,-0.02,1.25,-6.16,3.97,-9.16,916.11,24.47,
3609695,-0.02,-0.01,1.3,-6.1,3.97,-9.16,916.14,24.48,
3609734,-0.01,-0.02,1.29,-6.04,4.15,-9.09,916.04,24.47,
3609810,-0.02,-0.02,1.37,-5.98,4.39,-8.91,916.04,24.46,
3609848,-0.03,-0.03,1.37,-5.74,4.21,-9.22,916.12,24.47,
3609886,-0.03,-0.02,1.38,-5.62,4.21,-8.91,916.06,24.47,
3609976,-0.02,-0.02,1.27,-5.31,4.33,-8.79,916.04,24.43,
3610014,-0.03,-0.04,1.19,-5.0,4.27,-8.79,916.04,24.44,
3610052,-0.03,-0.04,1.17,-4.82,4.52,-8.61,915.97,24.45,
3610090,-0.02,-0.05,1.14,-4.76,4.58,-8.54,915.99,24.45,
3610129,-0.04,-0.06,1.06,-4.21,4.27,-8.36,916.01,24.45,
3610167,-0.03,-0.05,1.02,-4.46,3.42,-8.48,915.97,24.45,
3610205,-0.02,-0.04,1.02,-4.58,3.54,-8.24,915.97,24.46,
3610255,-0.02,-0.05,0.96,-5.13,2.32,-7.93,915.9,24.43,
3610293,-0.03,-0.06,0.99,-5.25,2.38,-8.06,915.9,24.44,
3610332,-0.03,-0.06,0.98,-5.8,2.32,-8.06,915.93,24.44,
3610370,-0.02,-0.05,1.05,-5.68,0.98,-7.87,915.9,24.44,
3610408,-0.02,-0.04,1.03,-6.23,0.55,-7.81,915.89,24.44,
3610446,-0.03,-0.04,1.06,-6.23,-0.06,-7.69,915.89,24.46,
3610485,-0.03,-0.06,1.04,-6.65,0.55,-7.69,915.83,24.45,
3610523,-0.02,-0.04,1.08,-6.59,-0.37,-7.69,915.82,24.45,
3610561,-0.02,-0.04,1.11,-6.9,-0.37,-7.69,915.83,24.46,
3610611,-0.03,-0.04,1.09,-6.9,-0.61,-7.45,915.87,24.45,
3610649,-0.03,-0.03,1.13,-7.14,-0.85,-7.39,915.8,24.46,
3610688,-0.03,-0.04,1.15,-7.08,-0.92,-7.45,915.85,24.46,
3610726,-0.04,-0.03,1.18,-7.14,-0.73,-7.39,915.81,24.46,
3610764,-0.04,-0.03,1.21,-7.08,0.18,-7.51,915.84,24.47,
3610802,-0.04,-0.03,1.24,-6.9,0.18,-7.39,915.85,24.47,
3610841,-0.03,-0.03,1.24,-6.77,0.85,-7.51,915.79,24.46,
3610879,-0.03,-0.02,1.26,-6.53,0.92,-7.39,915.8,24.46,
3610917,-0.04,-0.02,1.24,-6.59,1.53,-7.39,915.76,24.46,
3610967,-0.02,-0.02,1.25,-6.1,1.22,-7.39,915.81,24.46,
3611005,-0.03,-0.02,1.22,-6.16,1.95,-7.32,915.77,24.48,
3611043,-0.02,-0.02,1.24,-5.92,1.59,-7.51,915.71,24.46,
3611082,-0.03,-0.02,1.21,-5.98,2.32,-7.32,915.78,24.46,
3611120,-0.03,-0.01,1.23,-5.62,0.73,-7.26,915.78,24.47,
3611158,-0.03,-0.01,1.24,-5.62,0.49,-7.08,915.73,24.48,
3611196,-0.03,-0.02,1.21,-5.86,-0.31,-6.96,915.72,24.47,
3611235,-0.03,-0.01,1.25,-5.62,-0.85,-6.84,915.67,24.46,
3611273,-0.02,-0.01,1.25,-5.62,-1.4,-6.65,915.62,24.47,
3611323,-0.04,-0.01,1.23,-5.86,-0.85,-6.47,915.65,24.46,
3611361,-0.02,-0.0,1.28,-5.49,-1.65,-6.65,915.62,24.45,
3611399,-0.04,-0.02,1.22,-5.8,-0.98,-6.65,915.71,24.47,
3611438,-0.04,-0.0,1.28,-5.49,-1.77,-6.47,915.63,24.47,
3611476,-0.02,-0.0,1.28,-5.68,-0.98,-6.53,915.61,24.47,
3611514,-0.04,-0.0,1.26,-5.68,-0.79,-6.41,915.63,24.47,
3611552,-0.04,-0.0,1.33,-5.55,0.18,-6.47,915.64,24.46,
3611590,-0.03,-0.01,1.3,-5.8,0.73,-6.71,915.58,24.46,
3611629,-0.04,0.0,1.4,-5.62,0.67,-6.59,915.63,24.47,
3611667,-0.07,0.01,1.33,-5.92,2.32,-6.53,915.59,24.47,
3611717,-0.02,0.01,1.39,-5.92,4.21,-6.53,915.61,24.46,
3611755,-0.04,0.02,1.38,-5.74,3.23,-6.41,915.58,24.48,
3611793,-0.05,0.01,1.39,-5.62,5.37,-6.29,915.59,24.46,
3611831,-0.02,0.01,1.32,-5.49,6.29,-6.41,915.55,24.46,
3611870,-0.03,0.01,1.44,-4.39,6.1,-6.35,915.61,24.47,
3611908,-0.02,-0.01,1.33,-4.64,7.51,-6.29,915.51,24.46,
3611946,-0.03,0.02,1.43,-3.66,6.47,-6.47,915.57,24.47,
3611984,-0.01,-0.0,1.38,-3.78,8.73,-6.35,915.62,24.47,
3612023,-0.02,0.0,1.32,-3.48,7.69,-6.16,915.55,24.46,
3612073,-0.02,0.0,1.32,-3.48,8.73,-6.29,915.58,24.47,
3612111,-0.02,-0.01,1.3,-3.17,8.48,-6.29,915.55,24.45,
3612149,-0.01,-0.0,1.3,-3.66,8.36,-6.23,915.57,24.47,
3612187,-0.01,0.01,1.3,-3.54,7.69,-6.29,915.54,24.47,
3612225,0.0,0.01,1.32,-3.48,7.57,-6.29,915.52,24.47,
3612264,-0.01,0.01,1.29,-3.54,6.53,-6.04,915.48,24.47,
3612302,-0.03,0.01,1.3,-3.78,5.86,-5.86,915.44,24.47,
3612340,-0.01,0.01,1.29,-3.78,5.49,-6.04,915.38,24.47,
3612378,-0.03,0.01,1.3,-3.78,4.27,-5.8,915.43,24.47,
3612417,-0.0,-0.01,1.23,-3.97,3.36,-5.68,915.36,24.46,
3612467,-0.01,-0.0,1.19,-4.09,1.22,-5.31,915.39,24.45,
3612505,-0.03,-0.01,1.13,-4.15,0.43,-5.0,915.36,24.46,
3612543,-0.03,-0.02,1.12,-3.66,-0.92,-4.76,915.34,24.45,
3612581,-0.02,-0.03,1.09,-3.23,-0.79,-4.94,915.36,24.46,
3612620,-0.04,-0.03,1.09,-2.81,-1.53,-4.88,915.36,24.45,
3612658,-0.02,-0.04,1.06,-2.08,-0.67,-4.64,915.33,24.44,
3612696,-0.02,-0.03,1.06,-1.77,-0.73,-5.07,915.31,24.45,
3612734,-0.02,-0.04,1.07,-1.53,0.43,-5.0,915.3,24.45,
3612773,-0.02,-0.04,1.0,-1.71,1.4,-5.07,915.28,24.45,
3612849,-0.02,-0.03,0.96,-1.89,2.87,-5.25,915.3,24.42,
3612887,-0.02,-0.02,1.04,-1.95,2.2,-5.25,915.34,24.45,
3612925,-0.02,-0.03,1.05,-1.71,2.75,-5.37,915.32,24.44,
3613015,-0.01,-0.03,1.03,-1.04,2.99,-5.13,915.2,24.39,
3613053,0.0,-0.03,1.06,-0.55,1.1,-5.13,915.25,24.41,
3613091,-0.01,-0.04,1.01,-0.31,0.85,-5.19,915.3,24.44,
3613129,-0.01,-0.03,0.96,0.0,0.31,-5.25,915.26,24.42,
3613167,0.0,-0.03,0.95,0.31,-0.06,-5.13,915.21,24.43,
3613206,0.0,-0.04,0.91,0.24,-0.85,-4.82,915.22,24.43,
3613256,-0.01,-0.04,0.93,0.79,-2.93,-4.88,915.16,24.42,
3613294,-0.01,-0.05,0.91,0.49,-2.75,-4.88,915.16,24.44,
3613332,-0.01,-0.04,0.93,0.55,-3.72,-4.94,915.2,24.43,
3613370,0.01,-0.04,0.93,0.55,-3.6,-5.13,915.19,24.43,
3613408,-0.02,-0.04,0.91,0.55,-4.15,-5.07,915.16,24.44,
3613447,-0.0,-0.04,0.94,0.55,-3.05,-5.25,915.26,24.44,
3613485,-0.0,-0.03,0.9,0.24,-2.5,-5.49,915.27,24.45,
3613523,-0.0,-0.03,0.97,0.55,-2.93,-5.43,915.21,24.45,
3613561,0.0,-0.05,0.93,0.12,-2.2,-5.49,915.25,24.46,
3613600,0.0,-0.03,0.94,0.0,-2.87,-5.8,915.18,24.45,
3613649,0.01,-0.03,0.95,-0.06,-2.81,-5.86,915.19,24.44,
3613688,-0.0,-0.03,0.95,-0.06,-2.75,-5.92,915.2,24.44,
3613726,0.0,-0.03,0.99,0.06,-2.14,-6.1,915.21,24.46,
3613764,0.01,-0.04,0.99,-0.06,-1.34,-6.1,915.17,24.44,
3613802,-0.0,-0.04,1.03,0.24,-1.4,-6.35,915.18,24.45,
3613841,-0.0,-0.03,1.02,0.18,-0.06,-6.65,915.19,24.45,
3613879,0.01,-0.03,1.0,0.18,1.34,-6.71,915.16,24.45,
3613917,0.01,-0.02,1.0,0.24,1.83,-6.96,915.19,24.46,
3613955,-0.01,-0.03,0.96,0.43,1.89,-6.96,915.16,24.46,
3614005,0.0,-0.04,0.98,0.31,3.54,-7.02,915.17,24.44,
3614043,0.02,-0.0,0.97,0.31,3.6,-7.26,915.19,24.44,
3614081,0.0,-0.03,0.97,0.24,3.48,-7.32,915.23,24.45,
3614120,-0.0,-0.04,0.95,0.31,3.78,-7.26,915.15,24.45,
3614158,0.01,-0.03,0.98,0.43,3.6,-7.57,915.15,24.45,
3614196,0.0,-0.03,1.0,0.18,3.42,-7.45,915.14,24.46,
3614234,0.01,-0.04,1.0,-0.24,2.62,-7.39,915.16,24.46,
3614273,0.01,-0.03,1.02,-0.43,1.1,-7.45,915.21,24.47,
3614311,-0.01,-0.04,1.0,-0.98,1.04,-7.45,915.17,24.46,
3614349,0.01,-0.03,0.99,-1.34,0.67,-7.39,915.2,24.47,
3614399,0.0,-0.04,1.0,-1.34,0.0,-7.32,915.13,24.44,
3614437,0.0,-0.03,0.97,-1.95,-0.06,-7.69,915.13,24.46,
3614475,-0.0,-0.05,0.99,-2.56,0.55,-7.81,915.19,24.46,
3614514,0.0,-0.04,1.01,-3.05,0.98,-7.93,915.21,24.47,
3614552,0.0,-0.03,1.04,-3.23,1.1,-8.12,915.2,24.44,
3614590,-0.01,-0.03,1.02,-3.48,1.89,-8.12,915.14,24.45,
3614628,-0.01,-0.04,1.06,-3.05,1.83,-8.24,915.19,24.46,
3614667,0.0,-0.04,1.06,-3.05,2.2,-8.3,915.19,24.45,
3614705,-0.0,-0.04,1.03,-3.05,2.2,-8.48,915.2,24.46,
3614755,-0.0,-0.04,1.09,-3.05,3.23,-8.54,915.2,24.44,
3614793,-0.01,-0.03,1.11,-3.23,3.85,-8.73,915.21,24.45,
3614831,-0.01,-0.03,1.17,-3.05,3.85,-8.48,915.21,24.44,
3614869,-0.01,-0.03,1.13,-3.48,4.52,-8.48,915.09,24.44,
3614908,-0.01,-0.01,1.18,-3.17,4.39,-8.67,915.15,24.44,
3614946,-0.01,-0.02,1.19,-3.66,4.88,-8.48,915.1,24.44,
3614984,-0.01,-0.02,1.19,-3.66,4.15,-8.61,915.15,24.45,
3615022,-0.01,-0.0,1.25,-3.54,4.21,-8.54,915.13,24.45,
3615061,-0.02,-0.03,1.22,-3.91,4.52,-8.61,915.11,24.45,
3615111,-0.03,-0.0,1.3,-3.54,3.91,-8.48,915.09,24.44,
3615149,-0.02,-0.01,1.28,-3.17,5.0,-8.54,915.13,24.44,
3615187,-0.01,0.01,1.32,-2.75,4.39,-8.73,915.13,24.45,
3615225,-0.02,0.02,1.4,-2.69,4.27,-8.36,915.1,24.45,
3615263,-0.02,-0.0,1.35,-2.62,4.46,-8.0,915.1,24.45,
3615302,-0.02,0.01,1.39,-2.56,3.97,-8.18,915.06,24.45,
3615340,-0.01,0.01,1.4,-2.5,4.27,-8.12,915.09,24.45,
3615378,-0.03,0.01,1.38,-2.14,3.66,-7.93,915.1,24.45,
3615416,-0.01,0.0,1.38,-2.08,3.66,-7.63,915.1,24.45,
3615455,-0.02,-0.01,1.34,-1.77,2.87,-7.75,915.14,24.47,
3615504,-0.04,-0.01,1.3,-1.71,2.2,-7.57,915.11,24.44,
3615543,-0.03,-0.0,1.26,-1.77,1.77,-7.63,915.16,24.46,
3615581,-0.02,-0.01,1.26,-1.4,0.67,-7.39,915.11,24.46,
3615619,-0.03,-0.03,1.22,-1.4,0.0,-7.14,915.03,24.45,
3615657,-0.02,-0.02,1.19,-1.16,-0.98,-7.14,915.07,24.47,
3615695,-0.03,-0.03,1.16,-1.1,-1.1,-7.02,915.06,24.46,
3615734,-0.02,-0.03,1.12,-1.22,-1.89,-7.02,915.09,24.46,
3615772,-0.04,-0.03,1.12,-1.04,-2.2,-6.84,915.15,24.47,
3615810,-0.04,-0.05,1.05,-0.98,-1.83,-7.02,915.05,24.46,
3615886,-0.02,-0.04,1.03,-1.1,-1.46,-7.02,915.06,24.43,
3615924,-0.01,-0.04,1.01,-1.28,-1.4,-6.84,915.13,24.45,
3615963,-0.04,-0.05,0.98,-1.22,-0.67,-7.08,915.08,24.45,
3616052,-0.04,-0.05,0.91,-1.4,0.37,-6.9,915.17,24.43,
3616091,-0.03,-0.04,0.85,-2.2,0.98,-7.08,915.05,24.43,
3616129,-0.02,-0.05,0.87,-2.2,0.43,-7.02,915.1,24.44,
3616167,-0.04,-0.07,0.8,-3.36,1.46,-6.77,915.05,24.44,
3616205,-0.03,-0.04,0.86,-2.87,1.1,-6.77,915.06,24.44,
3616244,-0.03,-0.06,0.84,-3.36,2.14,-6.71,915.1,24.45,
3616293,-0.04,-0.04,0.9,-3.36,1.4,-6.65,915.11,24.43,
3616332,-0.04,-0.05,0.9,-3.6,2.87,-6.84,915.15,24.45,
3616370,-0.03,-0.05,0.93,-3.36,2.14,-6.71,915.12,24.45,
3616408,-0.04,-0.05,0.91,-3.05,1.77,-6.53,915.13,24.46,
3616446,-0.04,-0.05,0.91,-2.93,2.08,-6.23,915.13,24.45,
3616485,-0.04,-0.05,0.92,-2.93,2.38,-6.35,915.1,24.46,
3616523,-0.04,-0.05,0.94,-2.75,2.08,-6.29,915.11,24.45,
3616561,-0.05,-0.05,0.95,-2.62,1.89,-6.1,915.11,24.47,
3616599,-0.03,-0.04,0.98,-2.75,2.14,-5.92,915.09,24.44,
3616649,-0.05,-0.04,1.0,-2.44,1.59,-5.62,915.09,24.45,
3616687,-0.03,-0.04,1.0,-2.56,1.95,-5.68,915.09,24.46,
3616726,-0.03,-0.04,1.03,-2.5,2.44,-5.55,915.07,24.46,
3616764,-0.03,-0.03,1.12,-2.26,2.56,-5.37,915.15,24.47,
3616802,-0.03,-0.02,1.14,-2.5,3.3,-5.25,915.09,24.45,
3616840,-0.05,-0.0,1.23,-2.14,3.3,-5.19,915.15,24.46,
3616879,-0.02,-0.03,1.25,-2.2,4.52,-5.0,915.08,24.46,
3616917,-0.03,-0.02,1.27,-1.95,4.52,-5.07,915.16,24.46,
3616955,-0.03,-0.01,1.34,-1.89,4.88,-4.88,915.14,24.47,
3616993,-0.02,-0.01,1.28,-1.77,5.8,-5.0,915.15,24.47,
3617043,-0.02,0.0,1.31,-1.1,5.31,-4.7,915.13,24.45,
3617081,-0.03,-0.02,1.26,-0.92,5.13,-4.39,915.1,24.46,
3617120,-0.02,-0.01,1.25,-0.37,4.03,-4.21,915.15,24.46,
3617158,-0.03,-0.01,1.24,-0.37,3.72,-4.21,915.14,24.47,
3617196,-0.01,-0.01,1.2,-0.12,1.95,-3.97,915.1,24.46,
3617234,-0.01,-0.02,1.22,0.18,0.73,-3.85,915.18,24.47,
3617272,-0.01,-0.03,1.15,0.18,0.31,-3.91,915.12,24.45,
3617311,-0.02,-0.01,1.18,0.49,-0.85,-3.97,915.09,24.46,
3617349,-0.01,-0.02,1.15,0.37,-1.22,-3.72,915.17,24.47,
3617399,-0.01,-0.02,1.17,0.85,-2.99,-3.85,915.08,24.46,
3617437,-0.01,-0.03,1.13,0.79,-2.2,-3.91,915.17,24.46,
3617475,-0.0,-0.03,1.16,1.28,-2.38,-3.85,915.21,24.47,
3617513,0.0,-0.03,1.11,1.4,-1.95,-3.97,915.19,24.47,
3617552,-0.02,-0.03,1.09,1.59,-2.26,-3.97,915.21,24.46,
3617590,-0.02,-0.04,1.1,1.65,-0.92,-4.09,915.2,24.47,
3617628,-0.0,-0.05,1.03,1.53,-0.37,-4.33,915.2,24.47,
3617666,-0.01,-0.04,1.06,1.4,0.18,-4.52,915.21,24.47,
3617704,-0.03,-0.05,0.98,1.1,1.59,-4.39,915.21,24.47,
3617754,-0.02,-0.04,1.01,1.1,2.14,-4.7,915.23,24.46,
3617792,-0.02,-0.05,0.98,1.04,2.81,-4.52,915.19,24.46,
3617831,-0.03,-0.05,0.96,0.67,2.62,-4.64,915.24,24.47,
3617869,-0.01,-0.06,0.91,-0.12,3.91,-4.7,915.21,24.47,
3617907,-0.01,-0.05,0.93,-0.49,3.3,-5.0,915.22,24.46,
3617945,-0.02,-0.05,0.91,-1.16,3.85,-4.88,915.17,24.46,
3617983,-0.02,-0.05,0.91,-2.01,4.33,-5.0,915.21,24.47,
3618022,-0.02,-0.05,0.98,-2.08,4.39,-5.13,915.2,24.47,
3618060,-0.02,-0.05,0.98,-2.99,4.15,-5.13,915.18,24.47,
3618098,-0.01,-0.04,1.07,-2.93,3.85,-5.25,915.17,24.47,
3618148,-0.03,-0.03,1.1,-3.72,4.52,-5.13,915.1,24.45,
3618186,-0.02,-0.03,1.17,-3.11,4.39,-5.13,915.19,24.46,
3618224,-0.02,-0.02,1.15,-3.6,5.07,-5.37,915.17,24.47,
3618263,-0.03,-0.01,1.22,-3.42,5.68,-5.37,915.15,24.47,
3618301,-0.03,-0.02,1.14,-3.97,6.23,-5.31,915.18,24.48,
3618339,-0.05,-0.03,1.15,-3.42,5.07,-5.31,915.21,24.47,
3618377,-0.03,-0.04,1.06,-3.97,5.8,-5.13,915.17,24.47,
3618416,-0.02,-0.02,1.06,-3.72,4.58,-4.94,915.17,24.47,
3618454,-0.04,-0.03,1.06,-3.66,4.94,-5.0,915.18,24.47,
3618504,-0.03,-0.02,1.17,-3.11,4.15,-4.76,915.28,24.46,
3618542,-0.03,-0.03,1.19,-3.3,5.0,-4.88,915.21,24.46,
3618580,-0.03,-0.01,1.27,-2.62,4.58,-4.88,915.17,24.46,
3618618,-0.02,-0.01,1.3,-2.44,6.35,-4.88,915.18,24.46,
3618657,-0.03,-0.0,1.29,-1.83,6.16,-4.7,915.19,24.47,
3618695,-0.03,-0.02,1.25,-1.71,8.12,-4.7,915.21,24.46,
3618733,-0.03,-0.03,1.17,-1.28,8.36,-4.52,915.23,24.47,
3618771,-0.02,-0.03,1.14,-0.98,8.73,-4.39,915.31,24.46,
3618810,-0.03,-0.03,1.09,-0.49,9.09,-4.27,915.25,24.46,
3618885,-0.01,-0.03,1.08,0.0,7.26,-3.97,915.22,24.44,
3618924,0.0,-0.05,1.03,0.0,7.02,-4.09,915.24,24.44,
3618962,-0.0,-0.03,1.06,0.06,5.68,-4.15,915.26,24.46,
3619052,-0.01,-0.03,1.09,-0.31,4.21,-3.97,915.21,24.43,
3619090,-0.01,-0.04,1.09,-0.55,4.15,-3.91,915.25,24.44,
3619128,-0.02,-0.05,1.02,-0.85,4.03,-4.09,915.24,24.44,
3619166,0.01,-0.04,1.04,-0.61,3.6,-4.52,915.24,24.45,
3619205,0.01,-0.03,1.05,-0.79,3.42,-4.27,915.26,24.46,
3619243,0.0,-0.05,1.02,-0.73,3.54,-4.33,915.26,24.44,
3619281,0.0,-0.05,1.02,-1.22,3.66,-4.94,915.24,24.46,
3619331,-0.01,-0.05,1.06,-1.22,3.91,-5.0,915.22,24.46,
3619369,-0.01,-0.03,1.11,-1.46,3.23,-5.37,915.23,24.45,
3619407,0.0,-0.04,1.15,-1.65,3.48,-5.55,915.26,24.46,
3619446,-0.0,-0.04,1.11,-2.32,3.66,-5.68,915.26,24.46,
3619484,-0.0,-0.04,1.14,-2.69,3.48,-5.86,915.27,24.46,
3619522,0.01,-0.04,1.1,-3.17,3.78,-5.98,915.23,24.46,
3619560,-0.0,-0.03,1.12,-3.17,3.3,-6.1,915.25,24.46,
3619599,-0.0,-0.03,1.11,-3.48,3.72,-6.35,915.22,24.46,
3619637,-0.01,-0.04,1.12,-3.54,3.11,-6.35,915.2,24.47,
3619687,-0.0,-0.04,1.13,-3.91,2.93,-6.59,915.23,24.46,
3619725,0.0,-0.03,1.16,-4.09,2.93,-6.84,915.18,24.45,
3619763,-0.0,-0.02,1.19,-4.15,2.44,-6.71,915.25,24.45,
3619802,-0.0,-0.03,1.21,-3.97,2.2,-6.84,915.21,24.46,
3619840,-0.01,-0.03,1.21,-4.33,2.08,-6.96,915.21,24.45,
3619878,-0.01,-0.03,1.2,-4.27,2.01,-7.02,915.26,24.47,
3619916,0.0,-0.01,1.2,-4.27,2.2,-7.2,915.25,24.47,
3619955,0.0,-0.02,1.19,-4.33,1.89,-7.45,915.25,24.47,
3619993,0.0,-0.02,1.19,-4.27,2.75,-7.63,915.28,24.46,
3620031,0.0,-0.02,1.21,-4.09,2.56,-7.81,915.32,24.48,
3620081,0.0,-0.03,1.2,-4.27,3.42,-8.0,915.25,24.46,
3620119,-0.01,-0.02,1.22,-3.78,3.42,-8.18,915.24,24.45,
3620158,0.0,-0.03,1.2,-3.72,4.09,-8.42,915.25,24.47,
3620196,0.0,-0.03,1.18,-3.85,4.15,-8.61,915.25,24.47,
3620234,0.0,-0.02,1.17,-3.66,4.33,-8.79,915.23,24.46,
3620272,-0.01,-0.02,1.16,-3.6,4.15,-8.73,915.19,24.46,
3620310,-0.01,-0.03,1.16,-3.6,3.6,-8.79,915.24,24.47,
3620349,-0.01,-0.03,1.15,-3.36,3.17,-8.91,915.26,24.47,
3620387,-0.01,-0.03,1.16,-3.36,3.17,-9.03,915.26,24.47,
3620437,-0.0,-0.02,1.12,-3.11,2.99,-9.03,915.27,24.46,
3620475,-0.01,-0.02,1.14,-2.93,2.87,-8.91,915.24,24.46,
3620513,-0.02,-0.04,1.12,-2.93,3.97,-8.79,915.29,24.46,
3620552,-0.02,-0.03,1.14,-2.44,4.39,-8.91,915.27,24.47,
3620590,-0.02,-0.02,1.15,-2.2,4.94,-9.09,915.26,24.46,
3620628,-0.02,-0.03,1.16,-2.14,5.68,-8.97,915.33,24.47,
3620666,-0.01,-0.02,1.16,-1.77,6.35,-8.91,915.27,24.47,
3620705,-0.01,-0.03,1.15,-1.71,7.2,-9.03,915.28,24.47,
3620743,-0.02,-0.03,1.13,-1.71,6.96,-8.79,915.3,24.47,
3620793,-0.02,-0.03,1.11,-1.71,7.26,-8.73,915.28,24.46,
3620831,-0.02,-0.03,1.1,-1.46,7.63,-8.48,915.25,24.46,
3620869,-0.02,-0.04,1.08,-1.59,7.26,-8.54,915.33,24.48,
3620908,-0.02,-0.04,1.08,-1.4,7.26,-8.54,915.24,24.46,
3620946,-0.02,-0.04,1.07,-1.46,7.26,-8.3,915.25,24.46,
3620984,-0.02,-0.03,1.07,-1.59,7.02,-8.42,915.25,24.46,
3621022,-0.02,-0.03,1.08,-1.4,7.45,-7.93,915.26,24.46,
3621061,-0.02,-0.03,1.06,-1.65,7.75,-8.06,915.25,24.46,
3621099,-0.02,-0.03,1.06,-1.65,8.0,-8.12,915.26,24.46,
3621137,-0.01,-0.03,1.08,-1.83,8.73,-8.0,915.25,24.46,
3621187,-0.02,-0.04,1.0,-2.14,9.03,-7.81,915.27,24.46,
3621225,-0.01,-0.03,1.07,-2.44,9.03,-7.75,915.22,24.46,
3621264,-0.01,-0.04,1.02,-3.17,8.61,-7.51,915.22,24.46,
3621302,-0.02,-0.03,1.05,-3.66,7.02,-7.45,915.24,24.47,
3621340,-0.02,-0.06,1.09,-4.15,7.57,-7.08,915.22,24.46,
3621378,0.0,-0.02,1.13,-4.88,6.77,-7.14,915.17,24.46,
3621417,-0.01,-0.0,1.22,-5.31,5.8,-6.71,915.2,24.46,
3621455,-0.02,0.0,1.28,-5.98,4.76,-6.41,915.16,24.46,
3621493,-0.01,-0.01,1.41,-5.98,4.64,-6.41,915.15,24.46,
3621543,-0.0,0.0,1.44,-6.35,4.94,-6.41,915.18,24.46,
3621581,-0.02,0.03,1.47,-6.23,4.27,-6.23,915.12,24.45,
3621620,0.0,0.02,1.44,-6.16,4.33,-6.23,915.19,24.47,
3621658,0.02,0.01,1.49,-5.74,4.21,-6.35,915.18,24.46,
3621696,-0.0,0.01,1.47,-5.68,5.19,-6.29,915.16,24.46,
3621734,-0.03,0.02,1.51,-4.82,5.13,-6.16,915.17,24.46,
3621773,-0.0,0.02,1.47,-4.64,5.68,-6.47,915.14,24.47,
3621811,-0.03,0.03,1.5,-4.46,5.37,-6.16,915.18,24.46,
3621849,-0.02,0.0,1.47,-4.33,5.55,-6.23,915.18,24.47,
3621887,-0.02,0.02,1.44,-4.46,4.7,-6.04,915.17,24.47,
3621963,-0.01,0.02,1.39,-4.64,5.68,-5.49,915.12,24.43,
3622002,-0.02,0.01,1.37,-4.88,5.74,-5.49,915.1,24.45,
3622040,-0.01,0.0,1.41,-5.07,6.84,-5.43,915.19,24.44,
3622078,0.0,0.01,1.41,-5.19,7.63,-5.37,915.18,24.45,
3622169,-0.02,0.01,1.45,-4.58,8.48,-5.19,915.18,24.43,
3622208,0.0,-0.01,1.42,-4.46,9.7,-5.19,915.16,24.44,
3622246,0.02,-0.0,1.39,-3.85,9.28,-5.13,915.13,24.45,
3622284,0.01,-0.0,1.36,-3.48,9.95,-4.94,915.2,24.45,
3622322,0.0,-0.0,1.34,-3.11,9.64,-5.0,915.15,24.45,
3622372,0.01,-0.01,1.33,-3.23,8.79,-5.0,915.09,24.43,
3622411,0.01,-0.02,1.34,-2.93,7.75,-4.94,915.12,24.45,
3622449,0.01,-0.01,1.35,-3.05,7.45,-5.13,915.0,24.44,
3622487,0.02,-0.01,1.33,-3.3,8.3,-5.19,915.04,24.43,
3622525,0.04,-0.02,1.31,-3.66,7.57,-5.25,915.08,24.46,
3622564,0.02,-0.02,1.3,-3.91,7.14,-5.25,915.0,24.46,
3622602,0.02,-0.03,1.27,-3.91,7.45,-5.31,915.04,24.46,
3622640,0.02,-0.03,1.28,-4.15,7.14,-5.68,915.01,24.46,
3622678,0.02,-0.02,1.28,-4.15,7.2,-5.8,915.0,24.46,
3622728,0.01,-0.02,1.27,-4.58,7.69,-5.98,915.01,24.45,
3622767,0.03,-0.02,1.29,-4.88,8.24,-6.1,915.0,24.45,
3622805,0.02,-0.02,1.31,-4.94,8.48,-6.16,914.97,24.46,
3622843,0.02,-0.02,1.32,-4.94,8.48,-6.16,914.98,24.46,
3622881,0.01,-0.02,1.31,-5.07,9.22,-6.16,914.96,24.46,
3622920,0.03,-0.02,1.33,-5.07,8.97,-6.41,914.98,24.48,
3622958,0.03,-0.01,1.32,-5.31,8.61,-6.47,914.96,24.47,
3622996,0.02,-0.01,1.29,-5.55,8.18,-6.53,914.89,24.46,
3623034,0.02,-0.02,1.3,-5.8,7.69,-6.59,914.91,24.47,
3623073,0.02,-0.02,1.28,-6.16,7.02,-6.59,914.88,24.48,
3623123,0.01,-0.01,1.26,-6.53,6.71,-6.53,914.87,24.46,
3623161,0.03,-0.01,1.28,-6.65,6.35,-6.71,914.83,24.46,
3623199,0.03,-0.02,1.27,-7.02,6.41,-6.84,914.8,24.47,
3623237,0.02,-0.02,1.27,-7.14,6.16,-7.2,914.82,24.48,
3623275,0.01,-0.02,1.29,-7.57,6.59,-7.39,914.75,24.46,
3623314,0.02,-0.02,1.31,-7.63,6.59,-7.63,914.81,24.47,
3623352,0.03,-0.0,1.31,-7.75,6.59,-7.69,914.78,24.47,
3623390,0.01,-0.01,1.31,-7.81,7.32,-8.12,914.77,24.46,
3623428,0.02,-0.01,1.33,-7.87,7.45,-8.12,914.72,24.46,
3623478,0.03,-0.01,1.33,-7.87,7.32,-8.24,914.81,24.45,
3623517,0.02,-0.01,1.31,-7.63,7.32,-8.48,914.73,24.46,
3623555,0.02,-0.01,1.33,-7.63,7.51,-8.73,914.63,24.45,
3623593,0.01,-0.01,1.31,-7.2,7.51,-8.91,914.69,24.46,
3623631,0.01,-0.02,1.29,-7.02,7.39,-9.09,914.73,24.47,
3623670,0.03,-0.01,1.31,-6.9,7.51,-9.4,914.7,24.47,
3623708,0.04,-0.01,1.3,-6.59,7.75,-9.4,914.7,24.49,
3623746,0.02,-0.01,1.28,-6.29,7.26,-9.58,914.67,24.47,
3623784,0.02,-0.01,1.25,-6.16,7.81,-9.77,914.67,24.47,
3623823,0.01,-0.01,1.25,-6.04,7.14,-10.07,914.63,24.46,
3623873,0.0,-0.02,1.22,-5.92,7.39,-10.38,914.69,24.46,
3623911,0.02,-0.02,1.21,-5.92,6.96,-10.5,914.63,24.46,
3623949,0.0,-0.02,1.22,-5.86,6.84,-10.74,914.64,24.47,
3623987,0.01,-0.03,1.19,-5.98,6.65,-10.74,914.64,24.46,
3624026,-0.01,-0.02,1.18,-5.92,6.96,-10.68,914.66,24.47,
3624064,0.0,-0.03,1.14,-6.1,6.53,-10.56,914.61,24.47,
3624102,0.0,-0.02,1.13,-6.04,5.31,-10.86,914.53,24.46,
3624140,-0.0,-0.02,1.13,-6.16,4.52,-10.86,914.54,24.46,
3624179,0.0,-0.03,1.09,-6.84,3.85,-10.62,914.54,24.46,
3624229,0.0,-0.02,1.14,-7.39,3.17,-10.8,914.55,24.45,
3624267,-0.02,-0.02,1.15,-8.06,2.32,-10.68,914.46,24.45,
3624305,-0.02,-0.02,1.19,-8.48,1.71,-10.62,914.47,24.46,
3624343,-0.01,-0.02,1.2,-8.91,1.46,-10.56,914.49,24.46,
3624382,-0.03,-0.01,1.23,-8.73,1.28,-10.56,914.51,24.46,
3624420,-0.01,-0.01,1.23,-8.91,1.53,-10.44,914.46,24.45,
3624458,-0.01,0.0,1.28,-8.85,0.92,-10.5,914.48,24.46,
3624496,-0.02,0.0,1.31,-9.03,1.46,-10.13,914.44,24.44,
3624535,-0.03,-0.01,1.32,-9.09,1.46,-10.25,914.41,24.46,
3624585,-0.02,0.0,1.37,-9.22,1.28,-10.25,914.44,24.45,
3624623,-0.03,0.01,1.37,-9.22,1.46,-10.25,914.43,24.45,
3624661,-0.02,-0.0,1.35,-9.22,1.83,-10.25,914.46,24.45,
3624699,-0.01,0.0,1.36,-9.16,2.08,-10.38,914.36,24.45,
3624738,-0.0,-0.0,1.34,-9.52,2.32,-10.31,914.46,24.46,
3624776,-0.03,0.01,1.33,-9.22,2.32,-10.31,914.37,24.46,
3624814,-0.03,0.0,1.34,-9.28,3.23,-10.31,914.34,24.44,
3624852,-0.01,-0.0,1.35,-9.03,2.32,-10.44,914.4,24.45,
3624891,-0.02,-0.0,1.35,-8.85,1.89,-10.31,914.38,24.45,
3624929,-0.03,-0.0,1.29,-8.91,2.01,-10.13,914.35,24.46,
3625005,-0.01,-0.0,1.32,-8.91,1.71,-9.95,914.29,24.43,
3625043,-0.05,-0.0,1.27,-9.16,1.28,-9.83,914.3,24.43,
3625081,-0.03,0.0,1.32,-8.97,0.73,-9.77,914.24,24.44,
3625171,-0.02,0.01,1.35,-9.03,0.85,-9.52,914.26,24.41,
3625209,-0.02,-0.0,1.31,-9.28,1.34,-9.52,914.29,24.43,
3625247,-0.02,0.0,1.31,-9.58,1.4,-9.46,914.24,24.43,
3625286,-0.02,0.0,1.33,-9.46,1.71,-9.28,914.24,24.44,
3625324,-0.04,-0.0,1.28,-9.64,1.59,-9.22,914.22,24.45,
3625362,-0.02,-0.01,1.29,-9.46,2.2,-9.46,914.26,24.44,
3625412,-0.02,-0.01,1.28,-9.34,2.08,-9.46,914.23,24.43,
3625450,-0.01,0.0,1.31,-9.34,1.89,-9.34,914.23,24.43,
3625489,-0.03,0.0,1.28,-9.58,2.2,-9.28,914.17,24.44,
3625527,-0.04,0.02,1.32,-9.64,1.65,-9.16,914.23,24.44,
3625565,-0.02,-0.0,1.33,-9.77,1.28,-8.85,914.15,24.44,
3625603,-0.03,0.0,1.29,-10.07,0.61,-9.09,914.16,24.45,
3625642,-0.02,0.02,1.33,-10.31,0.85,-8.91,914.14,24.44,
3625680,-0.02,0.02,1.33,-10.5,1.16,-8.67,914.11,24.44,
3625718,-0.01,0.03,1.38,-10.56,-0.06,-8.42,914.12,24.44,
3625768,-0.04,0.02,1.42,-10.74,-0.12,-8.24,914.1,24.43,
3625806,-0.03,0.05,1.49,-10.62,-0.12,-8.36,914.15,24.44,
3625845,-0.02,0.05,1.5,-10.38,0.24,-8.18,914.2,24.45,
3625883,-0.03,0.05,1.51,-10.25,-0.18,-8.24,914.09,24.44,
3625921,-0.04,0.04,1.57,-9.7,0.37,-8.18,914.1,24.43,
3625959,-0.02,0.05,1.55,-9.58,1.16,-8.18,914.13,24.44,
3625997,-0.02,0.05,1.51,-9.77,1.65,-7.93,914.08,24.43,
3626036,-0.03,0.05,1.52,-9.09,1.4,-8.12,914.06,24.43,
3626074,-0.03,0.03,1.45,-9.16,2.99,-8.18,914.09,24.42,
3626112,-0.02,0.04,1.5,-8.61,2.93,-8.24,914.13,24.44,
3626162,-0.02,0.04,1.47,-8.12,3.42,-8.0,914.06,24.41,
3626200,-0.03,0.03,1.45,-7.69,3.54,-8.06,914.07,24.43,
3626238,-0.03,0.04,1.49,-7.45,3.6,-8.06,914.09,24.42,
3626277,-0.03,0.03,1.49,-7.2,4.21,-7.93,914.1,24.43,
3626315,-0.03,0.04,1.45,-7.2,4.15,-7.87,914.02,24.41,
3626353,-0.02,0.06,1.49,-7.08,4.15,-7.69,914.03,24.43,
3626391,-0.02,0.05,1.47,-6.71,4.94,-7.63,914.06,24.42,
3626429,-0.02,0.03,1.46,-6.65,6.16,-7.57,914.03,24.42,
3626468,-0.02,0.03,1.46,-6.23,6.59,-7.45,914.04,24.44,
3626518,-0.02,0.04,1.42,-6.04,7.39,-7.51,914.08,24.43,
3626556,-0.02,0.05,1.41,-5.74,8.12,-7.39,913.96,24.42,
3626594,-0.01,0.04,1.41,-5.19,8.18,-7.39,913.96,24.44,
3626632,-0.02,0.04,1.43,-5.0,7.69,-7.02,913.98,24.43,
3626670,-0.02,0.03,1.41,-4.94,7.51,-6.9,913.99,24.44,
3626709,-0.02,0.04,1.42,-4.7,6.9,-6.71,913.92,24.42,
3626747,-0.01,0.03,1.4,-4.58,6.71,-6.65,913.91,24.43,
3626785,-0.02,0.03,1.37,-4.64,6.59,-6.41,913.95,24.43,
3626823,-0.02,0.02,1.34,-4.33,6.16,-6.35,913.94,24.42,
3626862,-0.02,0.02,1.34,-4.15,5.86,-6.16,913.89,24.43,
3626912,-0.01,0.02,1.28,-4.27,5.92,-6.16,913.84,24.42,
3626950,0.0,0.01,1.26,-4.33,5.86,-6.16,913.83,24.42,
3626988,-0.01,0.0,1.22,-4.7,5.37,-6.04,913.83,24.44,
3627026,-0.02,0.01,1.24,-4.33,4.64,-5.92,913.85,24.43,
3627065,0.0,0.0,1.22,-4.46,4.88,-6.23,913.84,24.44,
3627103,-0.0,0.01,1.21,-4.39,4.21,-6.16,913.81,24.43,
3627141,-0.01,0.01,1.2,-4.27,4.27,-6.04,913.79,24.44,
3627179,-0.0,0.01,1.2,-4.03,4.03,-5.98,913.76,24.43,
3627217,-0.0,-0.0,1.21,-3.91,3.85,-5.98,913.76,24.44,
3627267,-0.01,0.0,1.18,-3.85,3.11,-5.92,913.76,24.43,
3627305,-0.01,-0.01,1.16,-3.78,3.42,-6.16,913.76,24.44,
3627344,0.01,-0.01,1.12,-3.97,3.36,-6.16,913.77,24.44,
3627382,0.0,0.0,1.16,-4.03,2.75,-6.29,913.79,24.45,
3627420,-0.0,-0.01,1.13,-4.21,2.81,-6.23,913.68,24.44,
3627458,-0.01,-0.01,1.14,-4.21,2.56,-6.29,913.74,24.45,
3627496,-0.0,-0.01,1.15,-4.58,2.69,-6.1,913.67,24.44,
3627535,-0.0,-0.01,1.12,-4.58,2.38,-6.16,913.66,24.43,
3627573,-0.0,-0.01,1.12,-4.7,1.83,-6.41,913.65,24.44,
3627611,0.01,-0.03,1.11,-4.7,1.65,-6.35,913.75,24.44,
3627661,0.0,-0.02,1.09,-4.76,1.89,-6.35,913.62,24.43,
3627699,0.0,-0.02,1.08,-4.58,2.26,-6.47,913.63,24.44,
3627737,0.01,-0.03,1.07,-4.52,2.38,-6.71,913.66,24.45,
3627776,-0.0,-0.04,1.09,-4.27,2.44,-6.9,913.65,24.45,
3627814,-0.0,-0.04,1.02,-4.82,3.48,-7.02,913.63,24.43,
3627852,0.01,-0.02,1.04,-4.52,1.71,-7.26,913.61,24.44,
3627890,0.01,-0.04,0.99,-4.52,2.5,-6.96,913.58,24.44,
3627928,0.01,-0.04,1.0,-4.82,0.67,-7.08,913.54,24.44,
3627967,0.0,-0.05,1.01,-4.64,0.0,-7.14,913.56,24.44,
3628042,0.0,-0.03,0.99,-5.31,-1.28,-7.26,913.56,24.4,
3628081,0.01,-0.05,0.93,-6.16,-0.43,-7.45,913.61,24.44,
3628119,-0.0,-0.04,0.93,-6.29,-0.98,-7.57,913.54,24.43,
3628209,-0.0,-0.04,0.98,-6.77,-0.24,-7.81,913.51,24.39,
3628247,-0.0,-0.03,1.02,-6.96,0.24,-7.87,913.57,24.42,
3628285,-0.0,-0.04,1.05,-7.14,0.55,-8.18,913.58,24.42,
3628323,0.0,-0.04,1.09,-7.57,1.1,-8.3,913.51,24.42,
3628362,0.0,-0.03,1.11,-7.69,0.92,-8.24,913.52,24.42,
3628400,0.0,-0.03,1.13,-7.63,1.22,-8.3,913.55,24.42,
3628450,0.0,-0.02,1.14,-8.0,0.92,-8.61,913.53,24.42,
3628488,-0.0,-0.01,1.19,-7.81,0.98,-8.48,913.51,24.43,
3628526,0.01,-0.01,1.2,-7.93,0.98,-8.54,913.47,24.43,
3628564,-0.01,0.0,1.24,-7.87,0.61,-8.61,913.5,24.42,
3628603,-0.0,0.0,1.28,-7.93,0.73,-8.67,913.46,24.42,
3628641,0.01,-0.0,1.31,-8.0,0.92,-8.61,913.51,24.43,
3628679,-0.0,-0.0,1.28,-8.06,0.43,-8.73,913.5,24.43,
3628717,-0.01,0.0,1.27,-8.0,0.49,-8.67,913.51,24.42,
3628755,0.0,0.01,1.23,-8.0,0.92,-8.67,913.48,24.42,
3628794,0.01,0.01,1.25,-7.93,0.79,-8.91,913.53,24.44,
3628844,-0.01,-0.0,1.22,-8.12,0.98,-8.97,913.5,24.41,
3628882,0.0,0.01,1.26,-8.06,0.73,-9.03,913.49,24.43,
3628920,0.01,0.0,1.29,-7.87,0.55,-9.09,913.47,24.44,
3628958,-0.01,0.0,1.27,-8.0,0.31,-8.97,913.48,24.43,
3628997,-0.01,0.0,1.28,-7.75,-15.62,-8.97,913.5,24.45,
3629035,-0.01,0.0,1.24,-7.51,0.43,-8.97,913.45,24.43,
3629073,-0.0,0.0,1.21,-7.45,0.06,-8.91,913.4,24.43,
3629111,-0.01,0.0,1.22,-7.63,0.43,-8.97,913.51,24.44,
3629150,-0.0,-0.02,1.17,-7.81,0.92,-9.16,913.43,24.42,
3629200,-0.01,-0.01,1.16,-7.87,1.28,-9.09,913.53,24.44,
3629238,0.0,-0.01,1.13,-8.24,2.38,-9.34,913.47,24.44,
3629276,-0.0,-0.0,1.18,-8.12,1.65,-9.52,913.48,24.44,
3629314,-0.02,-0.02,1.13,-8.12,2.26,-9.34,913.45,24.44,
3629352,-0.0,-0.01,1.15,-7.87,2.08,-9.58,913.47,24.45,
3629391,-0.01,-0.0,1.16,-8.06,3.23,-9.7,913.45,24.43,
3629429,-0.0,0.01,1.2,-8.0,3.42,-9.89,913.5,24.45,
3629467,-0.01,0.03,1.3,-7.87,5.43,-10.5,913.47,24.44,
3629505,-0.0,0.03,1.36,-8.12,7.93,-10.62,913.4,24.43,
3629544,-0.01,0.04,1.45,-8.24,8.0,-10.86,913.4,24.43,
3629594,-0.02,0.05,1.44,-8.85,10.19,-11.17,913.38,24.41,
3629632,-0.02,0.08,1.42,-9.03,10.13,-10.99,913.38,24.44,
3629670,-0.02,0.08,1.45,-9.09,10.5,-10.74,913.44,24.44,
3629708,-0.01,0.05,1.41,-9.28,10.13,-10.56,913.38,24.43,
3629747,-0.02,0.08,1.48,-8.97,9.83,-10.38,913.39,24.43,
3629785,-0.02,0.08,1.5,-8.54,10.25,-10.07,913.42,24.44,
3629823,-0.02,0.08,1.51,-8.06,8.61,-9.52,913.39,24.42,
3629861,-0.03,0.08,1.54,-7.39,7.75,-9.34,913.37,24.44,
3629900,-0.03,0.06,1.49,-6.9,8.18,-9.09,913.38,24.44,
3629950,-0.0,0.07,1.51,-6.53,7.57,-8.48,913.46,24.43,
3629988,-0.01,0.08,1.46,-6.29,6.53,-8.3,913.37,24.44,
3630026,-0.02,0.07,1.45,-6.04,6.16,-8.06,913.38,24.43,
3630064,-0.02,0.05,1.41,-5.98,5.86,-7.87,913.36,24.43,
3630103,-0.01,0.06,1.46,-5.92,4.27,-7.75,913.37,24.43,
3630141,-0.02,0.05,1.45,-5.92,4.27,-7.51,913.35,24.44,
3630179,-0.02,0.05,1.43,-5.86,3.66,-7.26,913.33,24.43,
3630217,-0.01,0.04,1.44,-5.92,2.99,-7.08,913.33,24.43,
3630255,-0.01,0.02,1.4,-5.98,2.93,-7.08,913.38,24.44,
3630305,-0.01,0.03,1.35,-5.86,2.93,-7.14,913.31,24.42,
3630344,-0.01,0.03,1.33,-5.86,2.99,-7.14,913.33,24.43,
3630382,0.01,0.03,1.31,-5.74,2.81,-7.39,913.3,24.43,
3630420,-0.0,0.02,1.31,-5.86,2.44,-7.32,913.31,24.43,
3630458,-0.01,0.0,1.31,-6.04,2.26,-7.2,913.33,24.43,
3630497,-0.01,0.01,1.29,-6.23,2.62,-7.2,913.33,24.44,
3630535,-0.03,0.01,1.29,-6.35,2.38,-7.39,913.3,24.42,
3630573,-0.0,0.01,1.25,-6.65,2.38,-7.2,913.32,24.44,
3630611,0.0,0.0,1.25,-6.53,2.01,-7.26,913.32,24.43,
3630650,0.01,0.0,1.24,-6.77,2.01,-7.51,913.31,24.44,
3630700,0.0,0.01,1.25,-6.65,1.65,-7.39,913.35,24.43,
3630738,0.0,0.01,1.26,-6.77,1.65,-7.51,913.29,24.44,
3630776,0.01,-0.0,1.28,-6.77,1.53,-7.75,913.35,24.44,
3630814,-0.0,-0.0,1.27,-7.02,1.1,-7.81,913.28,24.44,
3630853,-0.01,0.02,1.29,-7.14,0.92,-7.81,913.29,24.44,
3630891,0.01,0.02,1.28,-7.14,1.34,-8.0,913.29,24.42,
3630929,0.02,0.01,1.29,-7.14,0.73,-7.93,913.26,24.44,
3630967,-0.01,0.01,1.28,-7.2,0.98,-7.93,913.35,24.45,
3631006,-0.0,0.02,1.29,-7.2,1.1,-8.0,913.29,24.44,
3631082,0.0,0.02,1.31,-6.96,0.92,-8.3,913.3,24.41,
3631120,-0.01,0.01,1.31,-6.71,1.16,-8.3,913.33,24.43,
3631158,0.0,0.0,1.26,-6.53,1.77,-8.54,913.25,24.43,
3631248,0.0,-0.0,1.16,-6.47,1.71,-8.67,913.32,24.4,
3631286,-0.01,-0.0,1.22,-5.92,0.98,-8.85,913.34,24.41,
3631324,0.0,-0.03,1.11,-6.71,2.87,-8.67,913.31,24.41,
3631362,0.02,-0.0,1.14,-6.84,0.85,-8.73,913.36,24.42,
3631401,-0.02,-0.02,1.11,-6.65,1.46,-8.54,913.35,24.42,
3631439,-0.01,-0.03,1.03,-7.39,1.59,-8.79,913.34,24.42,
3631477,-0.01,-0.01,1.16,-6.71,0.79,-9.03,913.31,24.43,
3631527,0.0,-0.02,1.07,-7.32,1.04,-8.79,913.31,24.42,
3631565,-0.01,-0.01,1.12,-7.14,0.49,-8.97,913.27,24.44,
3631604,0.01,-0.01,1.09,-8.0,2.62,-9.16,913.26,24.43,
3631642,0.01,-0.01,1.16,-7.75,1.71,-9.28,913.32,24.43,
3631680,-0.01,-0.02,1.13,-8.0,2.2,-9.16,913.27,24.43,
3631718,-0.01,-0.0,1.17,-7.69,1.95,-9.34,913.28,24.44,
3631757,0.0,-0.01,1.15,-8.18,3.48,-9.64,913.32,24.45,
3631795,0.01,0.01,1.2,-8.06,2.26,-9.64,913.28,24.44,
3631833,-0.01,0.01,1.22,-8.3,2.56,-9.4,913.34,24.45,
3631883,0.0,0.01,1.22,-8.36,3.05,-9.77,913.26,24.43,
3631921,0.01,0.01,1.28,-8.42,3.17,-9.7,913.3,24.44,
3631960,-0.0,0.0,1.28,-8.42,2.56,-9.7,913.3,24.44,
3631998,-0.01,0.02,1.32,-8.12,2.56,-9.77,913.32,24.43,
3632036,-0.0,0.02,1.3,-8.3,3.48,-9.77,913.31,24.45,
3632074,0.0,0.03,1.33,-8.3,3.42,-9.95,913.22,24.44,
3632113,-0.01,0.03,1.35,-8.24,3.48,-9.95,913.3,24.43,
3632151,-0.01,0.03,1.35,-8.0,3.3,-9.89,913.32,24.44,
3632189,-0.01,0.03,1.35,-7.69,3.36,-9.77,913.32,24.44,
3632227,-0.01,0.03,1.33,-7.51,3.3,-9.7,913.28,24.44,
3632277,-0.0,0.02,1.3,-6.96,2.75,-9.58,913.34,24.43,
3632316,-0.0,0.01,1.27,-6.96,2.56,-9.64,913.31,24.44,
3632354,-0.0,0.01,1.25,-6.84,2.01,-9.58,913.34,24.45,
3632392,-0.01,0.02,1.21,-6.96,1.83,-9.58,913.35,24.44,
3632430,-0.01,0.01,1.22,-6.77,2.08,-9.34,913.31,24.45,
3632469,0.0,-0.0,1.21,-6.84,2.32,-9.58,913.3,24.43,
3632507,-0.0,0.0,1.23,-6.77,2.32,-9.58,913.34,24.43,
3632545,-0.01,0.01,1.24,-6.77,2.38,-9.52,913.27,24.43,
3632583,0.0,0.01,1.27,-6.9,2.5,-9.7,913.36,24.43,
3632633,-0.0,0.01,1.24,-6.9,3.48,-9.58,913.32,24.42,
