timestamp,acc_x,acc_y,acc_z,rot_x,rot_y,rot_z,qfe,temp,Unnamed: 10
2931548,0.03,-0.0,0.63,4.09,14.34,5.49,937.47,25.84,
2931587,0.06,-0.01,0.57,3.97,14.53,4.88,937.44,25.85,
2931625,0.03,-0.03,0.52,2.69,13.98,4.39,937.46,25.85,
2931663,0.06,-0.03,0.46,1.4,13.0,4.03,937.4,25.84,
2931701,0.07,-0.02,0.61,0.67,9.03,3.48,937.43,25.86,
2931739,0.1,-0.06,0.58,-0.24,9.34,2.93,937.33,25.85,
2931777,0.08,-0.04,0.69,-1.77,7.81,2.2,937.38,25.86,
2931816,0.05,-0.06,0.68,-2.26,7.57,1.46,937.36,25.85,
2931854,0.07,-0.04,0.63,-4.03,8.12,1.22,937.3,25.86,
2931892,0.07,-0.04,0.76,-3.23,9.46,0.31,937.23,25.84,
2931942,0.07,-0.06,0.68,-5.0,9.46,-0.18,937.26,25.84,
2931980,0.03,-0.03,0.83,-5.62,7.08,-0.43,937.13,25.83,
2932018,0.05,-0.07,0.9,-7.45,8.18,-0.98,937.12,25.85,
2932056,0.09,-0.05,1.04,-9.22,6.9,-1.71,937.14,25.85,
2932095,0.04,-0.05,1.12,-9.95,5.62,-2.08,937.17,25.85,
2932133,0.04,-0.05,1.17,-10.31,5.37,-2.26,937.11,25.86,
2932171,0.09,-0.02,1.41,-9.95,4.64,-3.11,937.1,25.86,
2932209,0.05,-0.02,1.49,-9.4,3.48,-3.3,937.03,25.84,
2932247,0.03,-0.02,1.6,-7.51,1.71,-3.3,937.07,25.84,
2932297,0.05,-0.02,1.58,-5.68,1.89,-4.39,937.04,25.84,
2932336,0.06,0.01,1.62,-4.21,0.85,-5.07,937.05,25.85,
2932374,0.08,-0.01,1.53,-2.62,0.61,-5.43,936.95,25.85,
2932412,0.05,0.01,1.47,-1.77,0.18,-5.92,936.94,25.86,
2932450,0.06,0.01,1.52,-1.16,0.24,-6.1,936.92,25.86,
2932488,0.06,-0.02,1.38,-1.16,-0.18,-6.53,936.87,25.85,
2932526,0.02,0.01,1.39,0.31,-2.93,-6.96,936.83,25.86,
2932564,0.0,-0.01,1.28,0.67,0.67,-7.51,936.84,25.85,
2932603,0.06,0.03,1.27,0.55,-0.12,-8.3,936.81,25.86,
2932641,0.01,0.04,1.29,1.65,-0.12,-8.61,936.82,25.85,
2932691,-0.04,0.01,1.18,1.4,1.95,-8.85,936.83,25.85,
2932729,0.0,0.05,1.2,0.55,4.21,-9.34,936.79,25.84,
2932767,-0.04,0.07,1.2,-0.18,5.13,-9.83,936.75,25.84,
2932805,-0.09,0.07,1.26,-0.24,5.07,-9.95,936.77,25.86,
2932843,-0.05,0.07,1.31,-0.79,8.18,-10.25,936.69,25.86,
2932882,-0.08,0.07,1.42,-1.4,10.01,-10.5,936.69,25.85,
2932920,-0.05,0.08,1.45,-1.28,10.93,-9.95,936.66,25.85,
2932958,-0.09,0.11,1.45,-0.61,10.68,-9.64,936.63,25.84,
2932996,-0.15,0.09,1.37,0.06,13.49,-9.28,936.58,25.85,
2933046,-0.09,0.11,1.33,0.61,12.45,-8.73,936.51,25.86,
2933084,-0.1,0.1,1.29,1.1,11.29,-8.06,936.44,25.86,
2933123,-0.09,0.09,1.27,1.46,10.62,-7.69,936.42,25.87,
2933161,-0.09,0.11,1.29,1.53,10.93,-7.02,936.37,25.86,
2933199,-0.11,0.08,1.39,2.32,9.34,-6.65,936.35,25.86,
2933237,-0.09,0.07,1.34,2.38,10.62,-6.16,936.41,25.88,
2933276,-0.1,0.09,1.41,3.17,11.05,-5.86,936.41,25.86,
2933314,-0.09,0.07,1.21,3.36,12.39,-5.13,936.34,25.86,
2933352,-0.1,0.08,1.17,3.91,10.68,-5.07,936.35,25.87,
2933390,-0.06,0.06,1.12,4.33,12.08,-4.82,936.24,25.86,
2933466,-0.06,0.07,1.0,4.76,10.38,-3.72,936.18,25.83,
2933504,-0.07,0.05,0.93,4.76,8.61,-3.42,936.13,25.84,
2933542,-0.07,0.05,0.9,4.76,6.53,-3.23,936.0,25.85,
2933632,-0.06,0.04,0.82,5.86,0.12,-2.62,935.87,25.82,
2933670,-0.06,0.03,0.78,5.86,-0.49,-2.5,935.84,25.83,
2933708,-0.06,0.03,0.73,5.92,-1.65,-2.14,935.85,25.84,
2933747,-0.08,0.02,0.74,6.35,-2.32,-2.2,935.85,25.83,
2933785,-0.11,0.0,0.64,6.35,-1.04,-1.89,935.84,25.84,
2933823,-0.07,0.02,0.65,5.55,-0.49,-1.89,935.84,25.83,
2933873,-0.07,-0.0,0.57,4.82,2.69,-1.59,935.8,25.84,
2933911,-0.03,0.0,0.6,3.85,2.99,-1.46,935.78,25.85,
2933949,-0.08,-0.01,0.59,3.54,3.97,-1.16,935.76,25.85,
2933987,-0.07,-0.02,0.58,2.01,4.27,-1.04,935.73,25.84,
2934026,-0.03,-0.01,0.69,1.34,2.93,-0.98,935.68,25.84,
2934064,-0.05,-0.02,0.65,-0.06,2.75,-0.85,935.64,25.84,
2934102,-0.06,-0.01,0.79,-0.55,2.44,-0.79,935.57,25.84,
2934140,-0.03,-0.0,0.83,-0.85,3.05,-0.55,935.59,25.84,
2934178,-0.02,0.0,0.92,-1.22,2.69,-0.73,935.48,25.85,
2934217,-0.08,-0.0,0.95,-1.34,1.59,-0.61,935.45,25.84,
2934267,-0.06,-0.01,0.92,-1.95,1.22,-0.55,935.52,25.82,
2934305,-0.03,-0.0,0.9,-1.77,0.73,-0.67,935.43,25.83,
2934343,-0.02,0.01,0.87,-1.71,-1.71,-0.73,935.43,25.84,
2934381,-0.05,0.01,0.89,-0.67,-1.95,-0.55,935.36,25.84,
2934419,-0.05,-0.03,0.86,-0.73,-1.65,-0.67,935.34,25.84,
2934457,-0.08,0.0,0.96,-0.06,-2.87,-0.55,935.31,25.83,
2934496,-0.1,-0.02,0.97,-0.12,-0.61,-0.37,935.33,25.84,
2934534,-0.08,-0.01,0.97,-0.73,1.04,-0.55,935.32,25.85,
2934572,-0.05,0.01,1.0,-0.67,3.05,-0.67,935.31,25.84,
2934622,-0.05,-0.01,0.95,-1.04,5.62,-0.43,935.29,25.84,
2934660,-0.05,0.03,1.05,-0.79,6.84,-0.37,935.27,25.86,
2934698,-0.04,0.01,1.02,-0.92,10.5,-0.18,935.23,25.84,
2934736,-0.02,0.03,1.07,-0.79,9.89,-0.24,935.2,25.84,
2934775,-0.08,0.03,1.13,0.24,9.83,-0.24,935.22,25.83,
2934813,-0.06,0.02,1.09,-0.31,11.11,-0.37,935.21,25.83,
2934851,-0.02,0.04,1.12,0.37,10.25,-0.49,935.22,25.84,
2934889,-0.01,0.05,1.12,0.31,9.46,-0.49,935.16,25.85,
2934927,-0.04,0.06,1.08,0.61,9.34,-0.31,935.16,25.85,
2934977,-0.04,0.05,1.09,0.37,9.09,-0.49,935.05,25.83,
2935015,-0.05,0.05,1.06,-0.24,8.12,-0.67,935.03,25.84,
2935054,-0.06,0.06,1.01,-0.79,7.57,-0.79,935.01,25.85,
2935092,-0.03,0.08,1.1,-0.92,6.84,-1.22,934.96,25.84,
2935130,-0.01,0.06,1.09,-1.53,7.2,-1.34,935.0,25.84,
2935168,-0.03,0.07,1.13,-1.28,5.86,-1.4,934.89,25.84,
2935206,-0.03,0.06,1.15,-1.46,7.2,-1.53,934.86,25.84,
2935245,-0.03,0.07,1.15,-1.34,7.51,-1.95,934.95,25.85,
2935283,-0.04,0.08,1.21,-0.92,7.2,-2.08,934.91,25.85,
2935321,-0.04,0.08,1.14,-0.98,7.81,-2.69,934.86,25.85,
2935371,-0.04,0.08,1.2,-0.43,7.63,-2.69,934.78,25.83,
2935409,-0.04,0.07,1.22,-0.37,8.24,-3.11,934.73,25.84,
2935447,-0.04,0.08,1.29,0.06,8.24,-3.17,934.74,25.85,
2935485,-0.07,0.07,1.24,-0.12,9.58,-3.42,934.73,25.85,
2935524,-0.05,0.08,1.33,0.37,9.58,-3.66,934.67,25.84,
2935562,-0.05,0.07,1.29,0.24,11.05,-3.91,934.63,25.84,
2935600,-0.04,0.08,1.34,0.67,10.13,-3.97,934.65,25.84,
2935638,-0.05,0.06,1.31,0.73,12.39,-4.27,934.65,25.85,
2935677,-0.04,0.06,1.27,0.98,12.27,-4.09,934.59,25.85,
2935726,-0.05,0.06,1.27,1.53,12.82,-4.27,934.55,25.83,
2935765,-0.06,0.03,1.17,2.14,12.39,-4.21,934.52,25.83,
2935803,-0.04,0.04,1.18,2.26,11.41,-4.33,934.47,25.84,
2935841,-0.04,0.03,1.01,2.38,11.6,-4.39,934.36,25.84,
2935879,-0.04,0.02,1.04,3.3,9.28,-4.64,934.36,25.84,
2935918,-0.05,0.02,0.97,2.75,7.87,-4.7,934.29,25.84,
2935956,-0.05,0.02,1.0,3.17,5.43,-4.7,934.19,25.85,
2935994,-0.04,-0.01,0.94,2.81,4.58,-4.7,934.21,25.84,
2936032,-0.05,0.02,0.91,2.26,1.95,-5.13,934.18,25.85,
2936070,-0.07,0.02,0.94,2.87,0.85,-5.0,934.07,25.84,
2936120,-0.09,-0.01,0.88,2.75,0.61,-5.0,934.02,25.84,
2936158,-0.08,0.01,0.95,3.05,0.67,-4.82,934.04,25.84,
2936196,-0.06,0.0,0.89,2.75,0.31,-4.7,933.96,25.83,
2936235,-0.11,-0.01,0.9,2.99,0.24,-4.52,934.01,25.84,
2936273,-0.09,-0.02,0.87,3.17,0.79,-4.58,933.97,25.83,
2936311,-0.08,0.0,0.95,3.66,0.0,-4.7,934.0,25.85,
2936349,-0.07,-0.0,0.91,4.15,0.55,-4.46,933.91,25.83,
2936387,-0.07,-0.02,0.88,4.09,1.34,-4.33,933.9,25.84,
2936426,-0.07,-0.01,0.91,4.64,2.08,-4.46,933.9,25.84,
2936501,-0.06,-0.01,0.9,5.19,0.43,-4.52,933.77,25.82,
2936540,-0.05,-0.01,0.8,4.58,2.26,-4.58,933.85,25.83,
2936578,-0.06,-0.01,0.89,5.86,-0.06,-4.76,933.82,25.83,
2936667,-0.09,0.01,0.8,6.29,0.06,-4.7,933.8,25.79,
2936706,-0.06,-0.03,0.65,5.37,2.5,-4.82,933.82,25.81,
2936744,-0.06,0.01,0.64,4.76,2.99,-5.07,933.81,25.81,
2936782,-0.09,-0.01,0.61,5.0,4.03,-4.94,933.79,25.83,
2936820,-0.04,-0.01,0.55,3.66,5.98,-5.0,933.72,25.81,
2936858,-0.03,-0.0,0.49,2.32,8.42,-5.31,933.81,25.83,
2936897,-0.08,-0.01,0.42,1.4,7.87,-4.94,933.69,25.81,
2936947,-0.09,-0.01,0.44,0.98,9.34,-5.19,933.7,25.8,
2936985,-0.05,-0.0,0.43,-0.43,7.81,-4.76,933.75,25.81,
2937023,-0.01,0.01,0.5,-0.18,4.94,-5.0,933.74,25.81,
2937061,-0.05,-0.02,0.45,0.12,4.94,-5.07,933.66,25.81,
2937099,-0.05,-0.0,0.6,0.24,3.66,-4.82,933.69,25.82,
2937137,-0.01,-0.03,0.58,0.55,3.72,-4.64,933.66,25.81,
2937176,-0.04,-0.01,0.59,0.49,1.22,-4.82,933.67,25.81,
2937214,-0.08,-0.02,0.56,0.61,-0.06,-4.7,933.65,25.83,
2937252,-0.04,-0.04,0.55,0.12,-0.24,-4.58,933.59,25.83,
2937302,-0.03,-0.04,0.55,-0.92,-0.85,-4.88,933.59,25.82,
2937340,-0.04,-0.03,0.57,-1.65,-1.4,-4.7,933.6,25.84,
2937378,-0.04,-0.02,0.63,-2.32,-1.1,-4.7,933.54,25.83,
2937416,-0.04,-0.05,0.68,-3.54,-1.04,-4.64,933.53,25.83,
2937455,-0.06,-0.04,0.76,-4.21,-1.34,-4.82,933.5,25.83,
2937493,-0.06,-0.05,0.75,-5.37,-0.49,-4.82,933.46,25.83,
2937531,-0.04,-0.03,0.84,-6.47,-0.73,-4.94,933.41,25.83,
2937569,-0.05,-0.04,0.94,-7.57,0.37,-4.76,933.42,25.82,
2937608,-0.04,-0.04,0.97,-8.73,1.22,-4.76,933.44,25.83,
2937646,-0.06,-0.03,1.15,-8.79,2.08,-4.94,933.49,25.83,
2937696,-0.07,-0.04,1.24,-9.4,3.97,-4.88,933.59,25.83,
2937734,-0.05,-0.02,1.35,-8.73,4.21,-5.07,933.62,25.84,
2937772,-0.05,-0.01,1.38,-7.81,5.98,-5.13,933.64,25.83,
2937810,-0.05,-0.01,1.45,-6.47,6.47,-5.07,933.64,25.82,
2937849,-0.06,-0.01,1.41,-5.07,7.32,-4.76,933.64,25.83,
2937887,-0.07,-0.0,1.42,-3.42,6.59,-4.76,933.59,25.82,
2937925,-0.07,-0.01,1.36,-2.87,7.02,-4.52,933.57,25.82,
2937963,-0.08,-0.02,1.31,-2.26,6.77,-4.21,933.58,25.83,
2938001,-0.05,-0.01,1.29,-2.26,5.98,-4.21,933.57,25.84,
2938051,-0.07,-0.02,1.22,-2.38,5.0,-3.97,933.52,25.82,
2938089,-0.06,-0.0,1.23,-3.11,4.21,-3.85,933.46,25.83,
2938127,-0.05,-0.01,1.22,-3.66,4.09,-3.66,933.48,25.82,
2938166,-0.07,0.0,1.25,-3.97,3.66,-3.85,933.37,25.82,
2938204,-0.06,-0.01,1.25,-4.52,4.52,-3.72,933.39,25.84,
2938242,-0.04,0.0,1.36,-4.33,4.39,-3.72,933.43,25.84,
2938280,-0.05,-0.0,1.33,-4.7,5.07,-3.66,933.34,25.83,
2938318,-0.07,0.02,1.4,-4.46,4.21,-3.6,933.44,25.84,
2938357,-0.05,0.01,1.45,-4.09,5.0,-3.48,933.41,25.83,
2938406,-0.06,0.03,1.43,-3.05,4.46,-3.42,933.45,25.83,
2938445,-0.05,0.02,1.43,-2.26,5.19,-3.36,933.46,25.84,
2938483,-0.07,0.03,1.45,-1.04,4.03,-3.11,933.46,25.84,
2938521,-0.05,0.01,1.35,-0.61,5.31,-2.87,933.48,25.82,
2938559,-0.05,0.02,1.38,0.61,4.52,-3.05,933.41,25.84,
2938597,-0.02,0.02,1.28,0.73,5.62,-2.99,933.39,25.84,
2938635,-0.03,0.03,1.26,0.92,3.66,-3.05,933.36,25.82,
2938674,-0.05,0.03,1.24,1.53,3.6,-3.05,933.34,25.84,
2938712,-0.02,0.01,1.13,1.28,3.66,-3.3,933.29,25.83,
2938750,-0.04,0.02,1.16,1.59,2.93,-3.3,933.25,25.84,
2938800,-0.03,0.03,1.05,0.85,3.17,-3.23,933.24,25.83,
2938838,-0.02,0.03,1.06,0.98,2.08,-3.6,933.19,25.83,
2938876,-0.03,0.02,1.0,0.18,1.89,-3.36,933.13,25.83,
2938914,-0.02,0.02,1.06,-0.12,0.24,-3.36,933.14,25.83,
2938952,-0.03,0.02,1.0,-0.98,0.31,-3.48,933.19,25.84,
2938991,-0.03,0.04,1.05,-1.16,-0.31,-3.85,933.14,25.83,
2939029,-0.02,0.02,1.02,-1.46,0.67,-3.66,933.14,25.84,
2939067,-0.03,0.02,1.0,-1.28,-0.06,-3.6,933.11,25.83,
2939105,-0.03,0.02,0.97,-1.28,1.22,-4.03,933.17,25.84,
2939155,-0.02,0.03,1.02,-0.85,1.71,-4.15,933.12,25.82,
2939193,-0.03,0.02,0.99,-0.98,2.87,-4.09,933.16,25.84,
2939231,-0.02,0.0,1.06,-0.24,2.32,-4.27,933.11,25.83,
2939270,-0.04,0.01,1.03,-0.18,2.93,-4.46,933.08,25.82,
2939308,-0.03,0.02,1.09,0.0,1.83,-4.58,933.13,25.83,
2939346,-0.03,0.01,1.08,0.24,2.38,-4.46,933.06,25.82,
2939384,-0.03,0.02,1.02,0.31,2.2,-4.58,933.08,25.83,
2939422,-0.04,0.01,1.04,0.61,1.34,-4.39,933.02,25.83,
2939460,-0.05,0.0,0.97,0.37,1.22,-4.39,932.99,25.83,
2939498,-0.06,0.01,1.02,0.92,-0.06,-4.27,932.97,25.83,
2939574,-0.06,-0.01,1.02,0.85,0.24,-4.27,932.97,25.81,
2939612,-0.06,0.0,1.06,1.28,0.61,-4.21,932.96,25.81,
2939651,-0.06,0.0,1.0,1.16,0.24,-3.97,933.01,25.83,
2939740,-0.05,-0.0,1.06,0.49,-0.85,-3.17,932.91,25.78,
2939779,-0.07,-0.03,1.03,0.31,-0.73,-3.11,932.87,25.8,
2939817,-0.07,-0.02,0.99,-0.43,-1.22,-2.87,932.89,25.81,
2939855,-0.05,-0.02,1.07,-0.49,-2.2,-2.75,932.88,25.81,
2939893,-0.04,-0.03,1.0,-1.16,-2.2,-2.69,932.89,25.82,
2939931,-0.06,-0.03,0.99,-1.28,-2.01,-2.62,932.88,25.82,
2939981,-0.03,-0.04,1.03,-1.77,-1.16,-2.69,932.87,25.81,
2940019,-0.02,-0.03,1.01,-2.14,-1.16,-2.62,932.83,25.81,
2940057,-0.03,-0.04,1.06,-1.83,-1.04,-2.62,932.85,25.81,
2940095,-0.03,-0.05,1.07,-1.65,-1.22,-2.62,932.86,25.83,
2940134,-0.03,-0.04,1.15,-1.22,-1.77,-2.62,932.84,25.82,
2940172,-0.03,-0.04,1.15,-1.46,-1.53,-2.56,932.81,25.81,
2940210,-0.04,-0.03,1.14,-1.4,-1.95,-2.44,932.86,25.82,
2940248,-0.05,-0.03,1.14,-1.77,-2.08,-2.26,932.81,25.83,
2940286,-0.0,-0.04,1.22,-1.65,-2.56,-2.44,932.83,25.82,
2940336,-0.02,-0.05,1.13,-2.32,-3.3,-2.32,932.82,25.81,
2940374,-0.02,-0.03,1.18,-1.95,-4.09,-2.5,932.78,25.82,
2940413,-0.03,-0.03,1.14,-2.14,-2.99,-2.56,932.81,25.83,
2940451,-0.03,-0.02,1.18,-1.28,-3.11,-2.69,932.79,25.82,
2940489,-0.02,-0.04,1.2,-1.04,-3.17,-2.62,932.8,25.84,
2940527,-0.07,-0.05,1.12,-0.37,-2.69,-2.44,932.81,25.82,
2940565,-0.07,-0.0,1.17,0.0,-2.32,-2.69,932.76,25.83,
2940603,-0.05,-0.01,1.17,0.55,1.53,-2.75,932.79,25.83,
2940641,-0.04,-0.01,1.17,0.61,2.2,-2.69,932.83,25.83,
2940679,-0.04,-0.03,1.31,1.53,3.66,-2.62,932.86,25.83,
2940729,-0.06,-0.01,1.11,0.31,6.16,-2.38,932.83,25.81,
2940767,-0.05,0.01,1.23,1.59,7.2,-2.5,932.84,25.82,
2940805,-0.06,-0.03,1.05,0.18,9.95,-2.26,932.81,25.82,
2940844,-0.05,0.01,1.19,1.1,5.74,-1.83,932.81,25.83,
2940882,-0.07,-0.04,1.05,0.0,7.63,-1.65,932.8,25.83,
2940920,-0.04,-0.01,1.13,-0.49,5.86,-1.59,932.75,25.83,
2940958,-0.02,-0.03,1.07,-0.67,5.86,-1.28,932.74,25.84,
2940996,-0.06,-0.01,1.09,-1.16,2.99,-0.98,932.72,25.83,
2941034,-0.06,-0.01,1.13,-0.85,2.14,-0.61,932.68,25.84,
2941084,-0.03,-0.02,1.12,-1.28,0.61,-0.73,932.64,25.82,
2941122,-0.05,-0.01,1.17,-0.73,-1.28,-0.24,932.68,25.83,
2941160,-0.06,-0.02,1.14,-1.22,-0.49,-0.49,932.67,25.83,
2941198,-0.03,-0.0,1.18,-0.73,-0.73,-0.37,932.71,25.84,
2941237,-0.04,-0.02,1.17,-0.73,-0.24,-0.12,932.71,25.83,
2941275,-0.03,-0.03,1.12,0.06,0.12,-0.06,932.67,25.83,
2941313,-0.06,-0.01,1.01,-0.06,0.61,-0.06,932.73,25.84,
2941351,-0.02,-0.0,1.01,0.43,0.06,-0.06,932.7,25.84,
2941389,-0.05,-0.01,0.9,0.06,1.59,0.18,932.68,25.83,
2941439,-0.04,-0.0,0.91,-0.18,1.34,0.18,932.67,25.83,
2941477,-0.01,-0.02,0.88,-0.49,1.65,0.06,932.68,25.83,
2941515,-0.02,0.0,0.9,-0.55,1.28,0.12,932.63,25.82,
2941553,-0.02,-0.0,0.91,-0.31,2.01,0.24,932.63,25.84,
2941592,-0.03,0.0,0.91,-1.1,2.32,0.24,932.67,25.83,
2941630,-0.03,-0.0,0.98,-1.16,2.69,0.18,932.58,25.83,
2941668,-0.01,-0.0,0.98,-1.65,3.42,0.18,932.58,25.84,
2941706,-0.01,-0.01,0.99,-1.4,4.09,0.12,932.59,25.84,
2941744,0.0,0.01,1.03,-1.4,4.15,0.24,932.58,25.83,
2941782,0.0,0.0,1.06,-1.22,4.27,0.18,932.47,25.83,
2941832,-0.01,0.0,1.06,-1.04,4.46,0.12,932.6,25.82,
2941870,-0.01,0.02,1.15,-0.61,3.54,-0.12,932.52,25.83,
2941908,0.0,-0.01,1.18,-0.06,3.6,0.0,932.56,25.84,
2941947,0.01,0.0,1.19,0.18,2.99,-0.31,932.5,25.82,
2941985,-0.01,0.0,1.2,0.79,3.72,-0.49,932.51,25.83,
2942023,0.02,0.01,1.11,0.49,2.81,-0.37,932.41,25.83,
2942061,-0.0,0.02,1.17,1.46,3.11,-0.67,932.44,25.84,
2942099,-0.01,-0.01,1.09,0.98,4.09,-0.55,932.46,25.84,
2942138,0.01,0.01,1.11,1.53,2.44,-1.04,932.42,25.82,
2942176,-0.0,-0.0,1.1,1.16,3.05,-1.1,932.47,25.84,
2942225,0.03,0.0,1.1,1.1,3.66,-1.28,932.38,25.83,
2942264,0.04,0.0,1.1,0.73,3.85,-1.59,932.41,25.83,
2942302,0.02,-0.02,1.01,0.37,3.85,-1.71,932.4,25.84,
2942340,0.01,-0.01,1.03,0.55,3.48,-2.01,932.35,25.83,
2942378,0.01,-0.0,0.99,-0.49,4.52,-2.14,932.3,25.83,
2942416,0.02,-0.0,1.03,-0.67,3.72,-2.56,932.36,25.84,
2942455,0.01,-0.01,1.03,-0.98,4.33,-2.69,932.36,25.84,
2942493,0.01,-0.01,1.07,-1.28,4.33,-2.75,932.38,25.84,
2942531,0.01,-0.01,1.1,-1.16,5.31,-2.99,932.28,25.83,
2942607,0.0,-0.0,1.11,-0.79,5.43,-3.3,932.25,25.8,
2942645,0.04,-0.02,1.08,-0.92,6.04,-3.6,932.32,25.81,
2942683,0.02,-0.0,1.09,-0.67,4.15,-3.91,932.31,25.82,
2942773,0.02,-0.01,1.02,-0.06,2.62,-4.27,932.29,25.79,
2942811,0.02,-0.01,1.01,-0.43,0.98,-4.39,932.22,25.8,
2942849,0.01,-0.01,0.98,-0.24,-0.49,-4.52,932.14,25.81,
2942887,-0.0,-0.01,0.98,-0.37,-1.1,-4.82,932.14,25.81,
2942926,0.01,-0.0,1.06,-0.18,-0.92,-5.13,932.11,25.81,
2942964,0.0,-0.01,1.05,-0.55,-1.59,-5.19,932.15,25.83,
2943002,-0.01,-0.0,1.06,-0.55,-2.32,-5.55,932.15,25.82,
2943052,-0.0,-0.01,1.07,-1.04,-1.53,-5.74,932.06,25.81,
2943090,0.0,-0.0,1.1,-1.04,-1.59,-5.92,932.04,25.83,
2943128,0.01,-0.01,1.05,-1.22,-0.98,-6.1,932.13,25.83,
2943166,-0.02,-0.0,1.08,-1.16,-0.92,-6.23,932.13,25.82,
2943204,-0.01,0.0,1.08,-1.53,0.06,-6.1,932.09,25.83,
2943243,-0.0,0.02,1.13,-1.46,0.0,-6.23,932.06,25.82,
2943281,-0.02,0.01,1.11,-1.71,0.98,-6.35,932.06,25.83,
2943319,-0.03,0.01,1.14,-1.95,1.22,-6.41,932.07,25.83,
2943357,-0.01,0.0,1.17,-1.71,1.59,-6.41,932.05,25.84,
2943407,-0.01,0.01,1.17,-1.59,2.08,-6.59,932.03,25.82,
2943445,-0.02,0.02,1.17,-1.34,2.44,-6.35,932.0,25.83,
2943483,-0.02,0.02,1.19,-1.28,2.01,-6.35,931.96,25.83,
2943521,-0.03,0.02,1.19,-1.34,1.65,-6.41,931.94,25.83,
2943560,-0.01,0.02,1.24,-0.92,0.98,-6.41,932.01,25.85,
2943598,-0.03,0.01,1.22,-0.92,0.73,-6.16,931.97,25.83,
2943636,-0.02,0.02,1.2,-0.92,0.49,-6.35,931.99,25.83,
2943674,-0.02,0.04,1.17,-0.79,-0.18,-6.35,931.95,25.84,
2943712,-0.04,0.04,1.18,-0.43,-0.24,-6.16,931.92,25.84,
2943762,-0.03,0.04,1.15,-0.49,-0.31,-6.35,931.92,25.82,
2943800,-0.05,0.04,1.16,0.06,0.24,-6.35,931.98,25.83,
2943839,-0.05,0.03,1.12,0.24,0.92,-6.1,931.88,25.83,
2943877,-0.06,0.04,1.12,0.37,1.77,-6.04,931.85,25.83,
2943915,-0.07,0.05,1.09,0.55,2.44,-5.92,931.84,25.83,
2943953,-0.07,0.04,1.1,0.49,3.3,-5.74,931.83,25.83,
2943991,-0.07,0.04,1.06,0.24,5.07,-5.43,931.81,25.83,
2944030,-0.04,0.06,1.05,0.61,5.07,-5.49,931.81,25.83,
2944068,-0.05,0.06,1.0,0.49,6.16,-5.37,931.79,25.83,
2944106,-0.05,0.05,0.92,0.31,5.98,-4.94,931.82,25.84,
2944156,-0.07,0.05,0.96,0.49,7.39,-4.88,931.77,25.82,
2944194,-0.04,0.05,1.03,0.31,7.39,-4.94,931.82,25.83,
2944232,-0.04,0.04,1.09,0.43,8.36,-4.82,931.77,25.84,
2944270,-0.07,0.05,1.09,0.06,7.93,-4.33,931.71,25.82,
2944308,-0.07,0.04,1.13,0.55,8.97,-4.15,931.71,25.84,
2944347,-0.05,0.05,1.08,0.18,9.58,-4.21,931.68,25.83,
2944385,-0.05,0.07,1.11,0.73,8.79,-4.03,931.63,25.82,
2944423,-0.05,0.05,1.04,0.61,9.7,-3.3,931.61,25.84,
2944461,-0.04,0.05,1.06,1.28,9.46,-3.42,931.6,25.84,
2944499,-0.03,0.04,1.06,0.98,9.89,-3.23,931.62,25.83,
2944549,-0.05,0.04,1.05,1.34,9.09,-2.5,931.62,25.82,
2944588,-0.02,0.03,1.02,1.28,9.7,-2.62,931.57,25.83,
2944626,-0.02,0.04,1.09,1.16,9.28,-2.81,931.6,25.83,
2944664,-0.04,0.03,1.09,1.22,9.58,-2.5,931.57,25.83,
2944702,-0.01,0.03,1.1,1.4,9.09,-2.5,931.55,25.83,
2944740,-0.03,0.04,1.09,1.34,8.67,-2.32,931.53,25.82,
2944778,-0.04,0.02,1.08,1.65,8.48,-2.5,931.42,25.83,
2944816,-0.03,0.02,1.05,1.04,9.52,-2.44,931.44,25.83,
2944855,-0.02,0.03,1.09,1.59,8.61,-2.69,931.5,25.85,
2944905,-0.04,0.01,0.99,1.71,9.95,-2.38,931.48,25.83,
2944943,-0.03,0.04,1.06,1.83,9.58,-2.69,931.37,25.83,
2944981,-0.02,0.02,0.96,1.89,10.93,-2.56,931.46,25.83,
2945019,-0.04,0.03,0.94,1.59,8.48,-2.44,931.43,25.83,
2945057,-0.04,0.03,0.97,2.26,8.73,-2.5,931.4,25.84,
2945095,0.0,0.02,0.9,0.73,8.79,-2.62,931.38,25.85,
2945134,-0.02,0.05,1.0,1.4,6.23,-2.87,931.32,25.84,
2945172,-0.02,0.02,0.92,0.49,5.98,-2.75,931.28,25.84,
2945210,-0.01,0.03,1.08,0.24,4.52,-2.87,931.28,25.86,
2945248,-0.06,0.02,1.07,0.06,5.62,-3.05,931.29,25.86,
2945298,-0.03,0.03,1.11,-0.12,3.91,-3.11,931.23,25.82,
2945336,-0.05,0.02,1.08,-0.37,5.19,-3.6,931.27,25.85,
2945374,-0.04,0.05,1.12,-0.85,5.0,-3.48,931.35,25.85,
2945413,-0.02,0.03,1.13,-0.85,5.98,-3.72,931.27,25.85,
2945451,-0.03,0.03,1.11,-1.46,5.98,-3.91,931.2,25.85,
2945489,-0.04,0.04,1.2,-1.22,5.74,-3.97,931.25,25.85,
2945527,-0.04,0.03,1.18,-1.4,6.23,-3.78,931.3,25.86,
2945565,-0.05,0.05,1.21,-1.1,4.94,-4.09,931.24,25.84,
2945604,-0.05,0.03,1.21,-0.98,5.49,-4.21,931.19,25.84,
2945642,-0.03,0.03,1.16,-0.92,4.82,-4.15,931.22,25.86,
2945718,-0.02,0.02,1.09,-0.12,5.25,-4.33,931.15,25.83,
2945756,-0.02,0.04,1.1,-0.37,3.36,-4.64,931.1,25.83,
2945794,-0.06,0.05,1.16,0.06,2.62,-4.64,931.1,25.84,
2945884,-0.04,0.02,1.15,0.55,1.4,-5.0,930.97,25.8,
2945922,-0.03,0.01,1.1,-0.12,1.89,-5.0,931.03,25.81,
2945960,-0.0,0.03,1.06,-0.12,1.77,-5.43,931.06,25.82,
2945998,-0.03,0.03,1.02,-0.18,1.34,-5.43,930.99,25.83,
2946036,-0.03,0.02,1.05,0.31,0.55,-5.68,930.97,25.83,
2946075,-0.03,0.0,0.93,-0.37,1.28,-5.92,931.05,25.84,
2946125,-0.01,0.03,0.96,0.37,1.16,-6.23,930.92,25.81,
2946163,-0.04,0.02,0.91,-0.24,0.98,-6.29,930.93,25.82,
2946201,-0.06,0.02,0.97,0.06,0.67,-6.47,930.92,25.83,
2946239,-0.05,-0.0,0.97,-0.55,1.34,-6.41,930.84,25.82,
2946277,-0.05,0.01,1.06,-0.37,1.59,-6.96,930.88,25.84,
2946316,-0.06,0.01,1.02,-0.67,3.36,-6.84,930.85,25.83,
2946354,-0.06,0.01,1.05,-0.43,4.03,-7.02,930.93,25.84,
2946392,-0.04,0.0,1.06,-0.18,5.92,-6.96,930.84,25.84,
2946430,-0.04,0.01,0.98,-0.31,5.62,-7.08,930.87,25.84,
2946469,-0.06,0.02,1.06,0.55,3.66,-6.77,930.85,25.85,
2946518,-0.04,-0.01,0.95,0.12,4.88,-6.65,930.8,25.82,
2946557,-0.05,0.02,0.99,0.55,2.14,-6.9,930.75,25.83,
2946595,-0.07,-0.0,1.0,1.28,2.99,-6.53,930.75,25.84,
2946633,-0.02,-0.01,1.07,1.53,2.93,-6.65,930.73,25.84,
2946671,-0.02,0.01,1.08,1.71,3.66,-6.65,930.78,25.84,
2946709,-0.04,0.0,1.1,2.26,2.62,-6.59,930.74,25.84,
2946748,-0.09,-0.03,1.05,2.32,3.97,-6.53,930.79,25.85,
2946786,-0.03,-0.02,0.98,1.65,5.0,-6.71,930.67,25.85,
2946824,-0.07,0.01,1.13,3.42,2.99,-6.84,930.67,25.85,
2946874,-0.04,-0.01,0.93,1.89,4.09,-6.53,930.67,25.83,
2946912,-0.05,0.03,1.17,3.54,2.56,-7.02,930.67,25.84,
2946950,-0.07,-0.04,0.96,2.99,5.43,-6.53,930.75,25.84,
2946989,-0.04,-0.03,0.93,3.11,2.44,-6.47,930.67,25.85,
2947027,-0.07,-0.01,0.9,4.03,1.71,-6.29,930.63,25.85,
2947065,-0.05,-0.03,0.69,2.38,1.95,-6.29,930.69,25.85,
2947103,-0.06,0.01,0.69,3.42,-1.22,-6.1,930.63,25.85,
2947141,-0.05,-0.01,0.57,3.48,-1.46,-5.86,930.58,25.84,
2947180,-0.03,-0.03,0.59,2.93,-1.16,-5.92,930.55,25.85,
2947218,-0.07,-0.02,0.56,2.56,-1.71,-5.68,930.53,25.85,
2947268,-0.08,-0.04,0.6,1.28,-1.22,-5.43,930.54,25.84,
2947306,-0.05,-0.05,0.6,-0.24,-0.67,-5.49,930.64,25.86,
2947344,-0.06,-0.02,0.63,-1.34,0.43,-5.37,930.64,25.84,
2947382,-0.04,-0.04,0.67,-2.08,2.69,-5.19,930.57,25.84,
2947420,-0.05,-0.05,0.74,-2.5,3.6,-5.31,930.61,25.84,
2947459,-0.04,-0.07,0.76,-3.05,5.98,-5.0,930.63,25.86,
2947497,-0.07,-0.04,0.92,-3.17,5.98,-5.0,930.58,25.85,
2947535,-0.06,-0.05,0.95,-2.99,7.2,-4.94,930.64,25.84,
2947573,-0.07,-0.04,1.05,-2.14,7.51,-5.25,930.59,25.84,
2947623,-0.04,-0.05,1.0,-1.65,8.42,-4.94,930.66,25.83,
2947661,-0.06,-0.03,1.0,-1.28,6.65,-4.64,930.57,25.85,
2947700,-0.08,-0.04,0.94,-0.67,6.84,-4.46,930.6,25.84,
2947738,-0.08,-0.05,0.9,-0.49,6.59,-4.15,930.55,25.84,
2947776,-0.08,-0.03,0.95,-0.43,6.41,-4.15,930.56,25.84,
2947814,-0.08,-0.04,0.92,-0.98,5.74,-3.78,930.56,25.86,
2947853,-0.08,-0.03,0.98,-0.79,5.68,-3.78,930.51,25.85,
2947891,-0.06,-0.04,0.93,-1.53,6.41,-3.36,930.55,25.84,
2947929,-0.05,-0.02,0.98,-1.83,5.31,-3.3,930.57,25.84,
2947979,-0.08,-0.04,0.89,-2.38,6.29,-2.93,930.57,25.83,
2948017,-0.04,-0.03,0.94,-2.14,5.31,-2.81,930.6,25.86,
2948055,-0.03,-0.04,0.84,-2.56,4.76,-2.69,930.55,25.85,
2948094,-0.06,-0.01,0.9,-2.56,4.7,-2.62,930.61,25.84,
2948132,-0.05,-0.03,0.83,-2.87,6.29,-2.38,930.61,25.84,
2948170,-0.06,-0.03,0.95,-2.38,3.91,-2.38,930.58,25.84,
2948208,-0.06,-0.04,0.91,-2.87,5.0,-2.26,930.55,25.84,
2948246,-0.04,-0.03,0.92,-2.99,5.13,-2.38,930.55,25.84,
2948285,-0.04,-0.03,0.97,-3.48,6.35,-2.62,930.52,25.84,
2948323,-0.02,-0.02,1.04,-4.27,5.86,-2.56,930.6,25.84,
2948373,-0.05,-0.03,1.13,-5.25,6.35,-2.38,930.6,25.83,
2948411,-0.02,-0.03,1.14,-6.41,7.45,-2.69,930.56,25.83,
2948449,-0.05,0.0,1.34,-6.04,6.04,-2.81,930.57,25.83,
2948487,-0.06,-0.02,1.33,-5.92,7.51,-2.44,930.68,25.84,
2948525,-0.03,-0.0,1.44,-5.8,6.04,-2.81,930.66,25.84,
2948564,-0.07,-0.01,1.51,-4.27,7.08,-2.93,930.61,25.84,
2948602,-0.05,-0.02,1.45,-3.85,7.57,-2.75,930.66,25.84,
2948640,-0.08,0.01,1.48,-2.14,7.69,-2.5,930.68,25.84,
2948678,-0.05,-0.03,1.34,-1.34,8.67,-2.5,930.69,25.84,
2948754,-0.04,0.0,1.26,0.12,7.45,-2.75,930.65,25.8,
2948792,-0.05,-0.01,1.19,0.12,6.41,-2.62,930.65,25.82,
2948830,-0.04,-0.0,1.17,0.43,6.04,-2.56,930.61,25.83,
2948921,-0.06,-0.01,1.11,-0.24,4.21,-2.81,930.48,25.78,
2948960,-0.05,-0.01,1.08,-0.55,3.17,-2.81,930.54,25.82,
2948998,-0.05,0.0,1.08,-0.79,2.93,-2.99,930.51,25.81,
2949036,-0.05,0.0,1.05,-0.92,2.08,-3.11,930.41,25.81,
2949074,-0.07,0.01,1.03,-0.98,1.65,-3.11,930.48,25.82,
2949112,-0.06,0.0,1.0,-1.1,2.01,-2.93,930.39,25.81,
2949162,-0.04,0.02,1.03,-1.65,1.34,-3.3,930.41,25.8,
2949200,-0.05,0.01,1.03,-2.01,1.83,-3.42,930.42,25.82,
2949239,-0.07,0.01,1.04,-2.32,2.08,-3.42,930.37,25.82,
2949277,-0.06,0.01,1.06,-2.75,2.81,-3.48,930.39,25.81,
2949315,-0.07,0.02,1.07,-2.99,2.26,-3.42,930.38,25.82,
2949353,-0.08,0.02,1.12,-3.05,2.14,-3.3,930.37,25.81,
2949391,-0.06,0.01,1.11,-3.3,2.26,-3.54,930.44,25.82,
2949429,-0.07,0.01,1.13,-3.42,2.14,-3.3,930.44,25.82,
2949468,-0.07,-0.0,1.11,-3.6,2.44,-3.36,930.44,25.81,
2949506,-0.06,0.01,1.16,-3.36,1.83,-3.3,930.46,25.82,
2949556,-0.06,0.01,1.16,-3.6,1.65,-3.05,930.49,25.81,
2949594,-0.06,0.01,1.18,-3.72,1.4,-3.36,930.48,25.81,
2949632,-0.06,0.0,1.18,-3.48,1.1,-3.17,930.43,25.81,
2949670,-0.05,-0.0,1.22,-3.05,0.92,-3.36,930.52,25.81,
2949709,-0.05,0.0,1.24,-2.75,1.04,-3.23,930.56,25.81,
2949747,-0.06,-0.0,1.21,-2.38,1.1,-3.23,930.49,25.81,
2949785,-0.05,0.0,1.21,-1.77,0.92,-3.36,930.54,25.83,
2949823,-0.05,-0.0,1.2,-1.28,0.98,-3.42,930.49,25.82,
2949861,-0.05,-0.0,1.19,-0.85,0.79,-3.11,930.49,25.82,
2949911,-0.07,-0.01,1.17,-0.49,0.31,-3.23,930.48,25.81,
2949949,-0.05,-0.0,1.13,-0.37,0.0,-3.17,930.5,25.81,
2949987,-0.05,-0.0,1.16,0.12,-0.31,-3.3,930.47,25.82,
2950026,-0.05,-0.01,1.13,-0.12,0.67,-3.23,930.48,25.83,
2950064,-0.06,-0.01,1.11,0.0,0.43,-3.36,930.44,25.82,
2950102,-0.05,-0.01,1.11,-0.24,0.55,-3.3,930.47,25.82,
2950140,-0.04,-0.01,1.14,-0.67,0.61,-3.36,930.49,25.82,
2950178,-0.05,-0.01,1.13,-1.22,0.67,-3.3,930.47,25.82,
2950217,-0.04,-0.01,1.13,-1.4,0.18,-3.23,930.44,25.82,
2950255,-0.05,-0.02,1.15,-1.77,0.24,-3.36,930.46,25.83,
2950305,-0.05,-0.02,1.12,-1.95,-0.12,-3.36,930.42,25.81,
2950343,-0.04,-0.01,1.17,-1.83,-0.55,-3.48,930.47,25.82,
2950381,-0.05,-0.01,1.14,-2.01,-0.31,-3.6,930.45,25.82,
2950419,-0.05,-0.02,1.18,-2.08,-0.31,-3.3,930.42,25.83,
2950458,-0.03,-0.02,1.16,-2.08,-0.49,-3.36,930.45,25.83,
2950496,-0.05,-0.01,1.19,-1.95,-0.85,-3.36,930.46,25.82,
2950534,-0.05,-0.02,1.17,-2.08,-0.55,-3.48,930.48,25.84,
2950572,-0.04,-0.01,1.2,-2.01,-0.85,-3.36,930.46,25.83,
2950610,-0.05,-0.01,1.19,-1.95,-1.22,-3.36,930.48,25.81,
2950660,-0.05,-0.02,1.23,-1.95,-1.53,-3.11,930.51,25.82,
2950699,-0.05,-0.01,1.25,-2.01,-1.04,-3.36,930.49,25.82,
2950737,-0.04,-0.01,1.25,-1.95,-0.79,-3.3,930.49,25.82,
2950775,-0.04,-0.01,1.28,-1.65,-0.73,-3.36,930.5,25.83,
2950813,-0.05,-0.01,1.25,-1.95,0.12,-3.3,930.51,25.81,
2950851,-0.05,-0.01,1.27,-1.71,0.55,-3.3,930.52,25.82,
2950890,-0.05,-0.01,1.25,-1.59,1.16,-3.3,930.5,25.83,
2950928,-0.05,-0.01,1.28,-1.46,0.85,-3.05,930.49,25.83,
2950966,-0.04,-0.01,1.27,-1.28,1.34,-3.11,930.48,25.83,
2951016,-0.04,-0.01,1.29,-1.1,0.92,-2.99,930.54,25.82,
2951054,-0.03,-0.02,1.27,-1.1,1.16,-2.93,930.55,25.82,
2951092,-0.03,-0.0,1.29,-1.16,1.16,-3.11,930.52,25.83,
2951131,-0.02,-0.01,1.27,-1.16,1.95,-2.99,930.5,25.83,
2951169,-0.04,-0.01,1.26,-1.28,1.53,-2.69,930.49,25.84,
2951207,-0.03,-0.01,1.25,-1.22,0.98,-2.75,930.44,25.82,
2951245,-0.05,-0.01,1.24,-1.16,0.06,-2.81,930.49,25.84,
2951283,-0.03,-0.01,1.22,-1.4,-0.12,-2.56,930.41,25.83,
2951322,-0.02,0.0,1.18,-1.53,-1.59,-2.62,930.39,25.83,
2951372,-0.06,-0.01,1.21,-0.98,-1.46,-2.38,930.35,25.81,
2951410,-0.04,-0.02,1.22,-0.67,-1.4,-2.69,930.34,25.82,
2951448,-0.03,-0.01,1.33,-0.31,-1.83,-2.69,930.37,25.82,
2951486,-0.03,-0.02,1.24,-0.61,-0.98,-2.44,930.43,25.82,
2951524,-0.06,-0.01,1.28,-0.31,-1.1,-2.26,930.41,25.81,
2951563,-0.02,-0.03,1.22,-0.37,-0.12,-2.56,930.44,25.83,
2951601,-0.03,-0.02,1.19,-0.31,-1.65,-2.32,930.49,25.82,
2951639,-0.03,-0.01,1.15,-0.12,-1.34,-2.2,930.56,25.82,
2951677,-0.03,-0.02,1.0,-0.61,-0.24,-2.14,930.54,25.82,
2951753,-0.03,-0.05,0.75,-0.61,0.49,-2.01,930.5,25.8,
2951791,-0.03,-0.01,0.77,-0.61,-0.31,-2.01,930.46,25.81,
2951829,-0.02,-0.04,0.71,-0.79,1.1,-2.14,930.44,25.81,
2951919,-0.02,-0.03,0.88,-3.48,1.16,-2.2,930.39,25.78,
2951957,-0.01,-0.03,0.95,-4.46,0.55,-2.38,930.43,25.78,
2951995,0.0,-0.02,1.03,-5.07,1.1,-2.26,930.33,25.8,
2952034,-0.03,-0.01,1.17,-4.7,-0.12,-2.08,930.39,25.8,
2952072,-0.02,-0.02,1.14,-5.49,0.61,-2.2,930.39,25.82,
2952110,-0.01,0.0,1.38,-4.33,-2.5,-2.2,930.37,25.81,
2952148,-0.02,-0.03,1.32,-5.49,-0.24,-2.14,930.47,25.81,
2952198,-0.03,0.0,1.47,-4.03,-2.14,-2.26,930.44,25.8,
2952236,-0.03,-0.0,1.33,-4.33,0.73,-2.26,930.43,25.8,
2952274,-0.03,0.03,1.43,-2.75,-0.85,-2.2,930.43,25.82,
2952312,-0.02,-0.01,1.37,-2.26,0.31,-2.08,930.43,25.81,
2952351,-0.04,-0.01,1.32,-1.28,-1.28,-2.2,930.41,25.81,
2952389,-0.03,-0.0,1.31,-0.31,-0.55,-2.01,930.35,25.81,
2952427,-0.01,-0.0,1.18,-0.43,-1.16,-2.01,930.38,25.82,
2952465,-0.0,0.02,1.25,0.67,-3.54,-2.08,930.31,25.82,
2952503,-0.05,0.0,1.22,-0.18,-2.56,-1.53,930.33,25.81,
2952553,-0.03,0.0,1.41,-0.06,-2.56,-1.4,930.33,25.79,
2952591,-0.01,0.01,1.49,-1.22,-0.37,-1.83,930.37,25.81,
2952630,-0.02,0.02,1.63,-0.67,-1.4,-1.71,930.36,25.8,
2952668,0.01,0.01,1.61,-1.4,0.73,-1.46,930.38,25.81,
2952706,-0.0,0.05,1.59,-0.85,1.34,-1.71,930.39,25.81,
2952744,-0.04,0.04,1.49,-0.55,2.69,-1.53,930.35,25.8,
2952782,-0.0,0.02,1.42,-0.12,2.32,-1.34,930.38,25.8,
2952820,-0.0,0.01,1.38,0.24,2.44,-1.83,930.3,25.8,
2952859,-0.0,0.01,1.33,0.31,2.56,-1.83,930.28,25.82,
2952909,0.01,0.02,1.32,0.43,1.59,-1.59,930.29,25.79,
2952947,-0.0,0.03,1.33,0.55,0.55,-1.77,930.25,25.79,
2952985,-0.01,0.02,1.35,0.55,0.12,-1.65,930.19,25.8,
2953023,-0.01,0.02,1.31,0.31,-0.24,-1.65,930.22,25.79,
2953061,-0.01,0.02,1.27,-0.06,-0.61,-1.59,930.22,25.79,
2953099,-0.02,0.03,1.22,-0.61,-0.61,-1.77,930.21,25.78,
2953138,-0.02,0.02,1.2,-0.55,0.24,-1.71,930.2,25.79,
2953176,0.01,0.02,1.19,-0.92,0.55,-1.77,930.21,25.78,
2953214,-0.01,0.02,1.17,-0.85,1.22,-1.83,930.17,25.8,
2953252,-0.0,0.02,1.16,-0.98,0.98,-1.77,930.16,25.79,
2953302,-0.0,0.03,1.18,-0.79,2.01,-1.77,930.12,25.79,
2953340,0.03,0.02,1.13,-0.85,2.26,-1.89,930.12,25.78,
2953378,0.01,0.03,1.16,-0.43,2.26,-2.14,930.09,25.78,
2953416,-0.02,0.02,1.13,-0.12,2.99,-2.14,930.09,25.79,
2953455,0.01,0.03,1.18,0.55,3.3,-2.38,930.06,25.8,
2953493,0.0,0.03,1.15,0.55,4.46,-2.38,930.06,25.79,
2953531,-0.02,0.04,1.17,0.98,4.21,-2.38,929.97,25.78,
2953569,-0.02,0.03,1.16,0.98,5.74,-2.5,929.97,25.79,
2953607,-0.01,0.04,1.16,1.28,6.16,-2.56,929.94,25.8,
2953645,-0.01,0.04,1.13,1.16,6.47,-2.56,929.96,25.8,
2953695,-0.0,0.04,1.1,1.46,6.59,-2.5,929.92,25.79,
2953734,-0.0,0.04,1.09,1.59,6.84,-2.38,929.93,25.79,
2953772,-0.01,0.04,1.09,1.71,7.08,-2.5,929.89,25.81,
2953810,-0.02,0.03,1.06,1.65,7.2,-2.32,929.79,25.8,
2953848,-0.01,0.03,1.06,1.83,6.71,-2.56,929.8,25.81,
2953886,-0.02,0.03,1.04,1.46,6.65,-2.5,929.77,25.8,
2953924,0.0,0.03,1.04,1.1,6.41,-2.26,929.72,25.81,
2953963,0.0,0.03,1.0,0.31,5.25,-2.38,929.68,25.8,
2954001,-0.01,0.02,1.02,0.18,4.58,-2.56,929.73,25.81,
2954051,-0.01,0.02,0.97,-0.61,4.03,-2.5,929.69,25.8,
2954089,-0.01,0.03,1.02,-0.61,3.78,-2.75,929.68,25.8,
2954127,0.01,0.03,1.02,-0.73,3.42,-2.75,929.66,25.79,
2954165,-0.0,0.03,1.07,-0.73,2.99,-2.87,929.64,25.81,
2954204,-0.03,0.02,1.09,-0.79,3.78,-2.75,929.64,25.8,
2954242,0.0,0.03,1.12,-0.37,3.48,-2.93,929.6,25.8,
2954280,-0.01,0.02,1.1,0.0,3.72,-3.05,929.61,25.81,
2954318,0.0,0.02,1.13,0.61,3.6,-3.3,929.55,25.8,
2954356,0.02,0.02,1.09,0.98,5.07,-3.6,929.59,25.8,
2954395,-0.0,0.04,1.03,1.1,4.76,-3.66,929.55,25.8,
2954445,-0.01,0.03,1.02,0.98,6.29,-3.66,929.47,25.78,
2954483,-0.0,0.03,1.08,1.22,6.1,-3.97,929.49,25.79,
2954521,-0.0,0.03,1.07,1.34,6.71,-3.91,929.5,25.81,
2954559,-0.0,0.02,1.04,0.79,6.84,-3.97,929.45,25.8,
2954597,-0.0,0.04,1.06,1.28,6.9,-4.21,929.38,25.8,
2954635,0.01,0.03,1.01,0.85,7.2,-4.15,929.49,25.8,
2954674,0.01,0.04,0.99,0.98,5.98,-4.09,929.38,25.8,
2954712,-0.02,0.04,0.98,0.73,6.16,-4.27,929.34,25.79,
2954750,-0.01,0.04,0.97,0.31,5.8,-4.58,929.35,25.81,
2954788,-0.01,0.04,1.0,0.06,5.25,-4.46,929.33,25.81,
2954864,-0.01,0.04,1.03,0.31,4.52,-4.52,929.26,25.78,
2954902,-0.01,0.04,1.02,0.06,5.0,-4.46,929.27,25.78,
2954940,-0.02,0.04,1.02,0.06,4.94,-4.52,929.21,25.78,
2955030,-0.03,0.04,1.02,0.49,4.76,-4.58,929.23,25.76,
2955068,-0.03,0.04,1.05,0.73,4.33,-4.7,929.18,25.78,
2955107,-0.01,0.05,1.05,1.1,3.78,-4.64,929.16,25.79,
2955145,-0.05,0.04,1.0,1.4,3.72,-4.82,929.11,25.77,
2955183,-0.04,0.06,1.04,1.71,2.81,-4.64,929.11,25.78,
2955221,-0.03,0.04,1.02,2.14,2.81,-4.64,929.07,25.78,
2955271,-0.03,0.05,1.02,2.62,2.14,-4.7,929.02,25.76,
2955309,-0.04,0.05,0.98,2.62,2.75,-4.52,929.05,25.8,
2955347,-0.03,0.04,0.95,2.99,2.93,-4.46,929.07,25.79,
2955386,-0.04,0.05,0.97,3.11,2.75,-4.58,928.96,25.78,
2955424,-0.05,0.04,0.94,3.17,2.87,-4.52,928.98,25.8,
2955462,-0.04,0.04,0.96,3.36,2.5,-4.46,928.99,25.78,
2955500,-0.04,0.04,0.96,3.54,3.78,-4.7,928.97,25.8,
2955538,-0.04,0.03,0.95,3.36,4.03,-4.52,928.94,25.8,
2955576,-0.03,0.03,0.96,3.3,3.54,-4.39,928.87,25.8,
2955615,-0.02,0.02,0.87,2.14,3.42,-4.27,928.84,25.8,
2955664,-0.05,0.04,0.89,1.95,1.89,-4.15,928.83,25.79,
2955703,-0.03,0.02,0.81,1.04,2.69,-4.15,928.78,25.79,
2955741,-0.04,0.04,0.89,0.55,0.61,-4.15,928.73,25.8,
2955779,-0.04,0.02,0.92,0.24,1.53,-3.91,928.74,25.8,
2955817,-0.03,0.03,0.94,-0.55,0.85,-3.91,928.78,25.79,
2955855,-0.04,0.03,1.04,-0.06,0.37,-3.85,928.7,25.79,
2955894,-0.04,0.01,0.99,-1.1,1.22,-3.72,928.72,25.79,
2955932,-0.05,0.04,1.06,-0.73,15.38,-3.66,928.64,25.8,
2955970,-0.04,0.03,1.02,-0.85,0.55,-3.6,928.64,25.79,
2956020,-0.04,0.03,1.06,-0.55,-0.24,-3.66,928.69,25.79,
2956058,-0.05,0.02,1.04,-0.55,0.73,-3.54,928.6,25.79,
2956096,-0.05,0.04,1.07,-0.31,-0.24,-3.48,928.61,25.81,
2956135,-0.04,0.02,1.09,0.06,0.55,-3.36,928.57,25.8,
2956173,-0.06,0.03,1.06,0.12,0.79,-3.23,928.65,25.8,
2956211,-0.06,0.03,1.06,0.73,1.22,-3.11,928.63,25.8,
2956249,-0.05,0.03,1.03,0.67,1.89,-3.05,928.61,25.8,
2956287,-0.06,0.04,1.05,1.34,1.59,-2.69,928.59,25.8,
2956326,-0.04,0.02,1.0,1.16,2.81,-2.38,928.65,25.81,
2956364,-0.03,0.04,1.02,1.89,2.81,-2.69,928.58,25.8,
2956414,-0.04,0.03,0.96,2.2,3.78,-2.44,928.55,25.8,
2956452,-0.05,0.04,0.98,2.69,3.66,-2.2,928.5,25.79,
2956490,-0.05,0.03,0.94,2.5,4.52,-2.26,928.49,25.8,
2956528,-0.05,0.03,0.96,2.26,4.52,-2.14,928.51,25.81,
2956567,-0.02,0.03,0.96,2.14,4.7,-1.89,928.46,25.81,
2956605,-0.03,0.04,0.95,1.89,4.33,-1.89,928.43,25.8,
2956643,-0.04,0.04,0.96,1.83,4.21,-1.65,928.49,25.81,
2956681,-0.03,0.04,0.98,1.59,3.78,-1.65,928.4,25.81,
2956719,-0.03,0.03,0.99,1.46,3.23,-1.71,928.47,25.8,
2956758,-0.02,0.04,1.0,0.98,3.3,-1.65,928.4,25.81,
2956808,-0.03,0.04,1.03,0.49,2.93,-1.53,928.37,25.8,
2956846,-0.02,0.03,1.05,0.61,2.69,-1.59,928.39,25.81,
2956884,-0.02,0.03,1.04,0.24,2.62,-1.65,928.37,25.8,
2956922,-0.03,0.04,1.04,0.37,2.81,-1.65,928.4,25.81,
2956960,-0.01,0.04,1.05,0.55,3.54,-1.65,928.29,25.8,
2956998,-0.0,0.04,1.05,0.67,3.36,-1.65,928.32,25.8,
2957037,-0.03,0.03,1.03,1.1,3.6,-1.53,928.31,25.8,
2957075,-0.03,0.03,1.01,1.46,4.64,-1.71,928.35,25.81,
2957113,-0.01,0.03,1.02,1.83,4.94,-1.71,928.31,25.8,
2957163,-0.02,0.03,0.97,2.01,5.43,-1.71,928.31,25.8,
2957201,-0.01,0.03,0.99,2.56,5.74,-1.77,928.29,25.79,
2957239,-0.0,0.03,0.96,2.5,6.23,-1.77,928.2,25.8,
2957278,-0.01,0.03,0.96,2.75,5.62,-1.83,928.23,25.8,
2957316,-0.01,0.02,0.91,2.69,5.74,-1.95,928.21,25.8,
2957354,0.01,0.04,0.92,2.14,5.68,-2.14,928.18,25.8,
2957392,0.0,0.02,0.9,2.08,5.86,-2.2,928.23,25.8,
2957430,0.0,0.03,0.9,1.59,5.07,-2.26,928.21,25.8,
2957469,0.0,0.02,0.93,1.59,4.39,-2.32,928.2,25.8,
2957507,0.02,0.02,0.92,0.79,4.39,-2.56,928.13,25.8,
2957557,0.01,0.03,0.95,0.49,3.3,-2.69,928.16,25.78,
2957595,-0.0,0.02,0.95,-0.18,3.36,-3.05,928.1,25.8,
2957633,0.0,0.02,0.94,-0.18,2.99,-3.36,928.1,25.8,
2957671,0.0,0.02,0.97,-0.61,3.36,-3.54,928.06,25.79,
2957709,0.02,0.02,1.0,-0.67,2.81,-3.6,928.04,25.79,
2957748,0.01,0.02,1.01,-1.1,3.05,-3.85,928.05,25.8,
2957786,0.01,0.03,1.08,-1.04,2.56,-3.85,928.03,25.81,
2957824,0.0,0.0,1.06,-0.79,3.42,-4.09,928.02,25.8,
2957862,-0.01,0.01,1.02,-0.73,3.05,-4.15,928.07,25.81,
2957900,-0.0,0.03,1.04,-0.12,3.23,-4.52,927.98,25.8,
2957976,0.01,0.01,0.99,0.61,3.11,-5.07,928.05,25.76,
2958015,-0.0,0.0,0.95,0.55,4.33,-5.37,928.06,25.8,
2958053,-0.0,0.01,0.95,0.73,4.52,-5.37,927.99,25.79,
2958142,-0.01,0.01,0.98,0.79,3.85,-5.68,927.93,25.75,
2958181,0.0,0.01,0.97,0.61,4.09,-5.92,927.89,25.76,
2958219,-0.01,0.02,0.98,0.06,3.91,-5.98,927.85,25.76,
2958257,-0.01,0.02,1.0,0.24,2.81,-6.04,927.87,25.77,
2958295,-0.02,0.01,0.99,-0.37,2.38,-6.23,927.88,25.77,
2958333,-0.01,0.01,1.01,-0.55,1.65,-6.1,927.79,25.77,
2958383,-0.01,0.01,1.02,-0.92,1.04,-6.35,927.79,25.78,
2958421,-0.03,0.02,1.05,-0.73,-0.12,-6.35,927.79,25.78,
2958459,-0.04,0.01,1.02,-0.98,0.49,-6.47,927.75,25.78,
2958498,-0.02,0.02,1.07,-1.04,0.18,-6.47,927.76,25.78,
2958536,-0.03,0.01,1.09,-1.16,0.43,-6.65,927.7,25.77,
2958574,-0.06,0.01,1.08,-1.22,0.43,-6.65,927.77,25.78,
2958612,-0.01,0.01,1.1,-1.22,0.79,-6.65,927.8,25.78,
2958650,-0.02,0.01,1.11,-1.1,0.49,-6.71,927.75,25.78,
2958689,-0.04,0.01,1.09,-1.04,0.92,-6.41,927.77,25.78,
2958727,-0.03,0.01,1.09,-0.98,1.04,-6.29,927.78,25.78,
2958777,-0.06,0.01,1.09,-1.04,1.16,-6.35,927.68,25.78,
2958815,-0.04,0.01,1.15,-0.61,0.31,-6.1,927.74,25.78,
2958853,-0.05,0.0,1.15,-0.92,0.67,-6.04,927.63,25.77,
2958891,-0.06,0.01,1.18,-0.85,-0.24,-5.86,927.62,25.78,
2958929,-0.06,0.01,1.17,-0.98,0.43,-5.62,927.62,25.78,
2958968,-0.05,0.01,1.14,-1.28,0.49,-5.68,927.64,25.79,
2959006,-0.04,0.01,1.17,-1.16,0.73,-5.37,927.62,25.78,
2959044,-0.06,0.0,1.1,-1.16,0.79,-5.0,927.64,25.78,
2959082,-0.07,0.01,1.17,-0.85,0.79,-4.94,927.58,25.77,
2959132,-0.05,-0.0,1.11,-1.1,2.69,-4.58,927.59,25.78,
2959170,-0.05,0.01,1.17,-0.98,1.95,-4.39,927.61,25.79,
2959208,-0.06,0.01,1.11,-1.16,3.72,-4.27,927.56,25.78,
2959247,-0.07,0.01,1.13,-0.85,2.99,-4.33,927.59,25.78,
2959285,-0.06,0.01,1.1,-1.04,3.42,-3.66,927.64,25.79,
2959323,-0.05,0.01,1.09,-0.98,3.11,-3.6,927.55,25.78,
2959361,-0.07,0.0,1.07,-0.79,3.66,-3.17,927.57,25.79,
2959399,-0.08,0.02,1.08,-0.73,2.93,-2.75,927.59,25.79,
2959438,-0.05,0.01,1.12,-0.61,3.17,-2.62,927.57,25.78,
2959476,-0.03,-0.0,1.09,-0.67,3.11,-2.32,927.56,25.78,
2959526,-0.04,0.01,1.06,-0.55,3.54,-2.2,927.59,25.77,
2959564,-0.04,0.01,1.03,-0.18,4.52,-2.2,927.49,25.77,
2959602,-0.01,0.01,1.06,0.0,4.09,-2.2,927.53,25.78,
2959640,-0.03,0.02,1.03,-0.12,4.21,-2.2,927.49,25.78,
2959679,-0.05,0.02,1.07,-0.18,4.58,-2.08,927.56,25.78,
2959717,-0.01,0.01,1.08,-0.24,5.74,-2.32,927.5,25.78,
2959755,-0.02,0.02,1.1,0.06,5.98,-2.32,927.52,25.78,
2959793,-0.04,0.03,1.14,0.43,6.29,-2.38,927.44,25.79,
2959831,-0.02,0.02,1.13,0.61,7.2,-2.44,927.49,25.79,
2959881,-0.04,0.03,1.13,0.18,7.75,-2.5,927.49,25.77,
2959919,-0.05,0.02,1.12,0.49,7.87,-2.38,927.47,25.78,
2959958,-0.03,0.02,1.13,0.06,8.3,-2.32,927.41,25.79,
2959996,-0.04,0.03,1.11,-0.24,7.75,-2.2,927.4,25.79,
2960034,-0.04,0.02,1.09,-0.24,8.36,-2.26,927.37,25.79,
2960072,-0.02,0.02,1.1,-0.43,7.63,-2.26,927.39,25.79,
2960110,-0.02,0.03,1.14,-0.55,6.41,-2.32,927.34,25.79,
2960149,-0.03,0.02,1.14,-0.55,6.1,-2.32,927.4,25.8,
2960187,-0.05,0.02,1.11,-0.61,6.53,-2.38,927.31,25.79,
2960225,-0.04,0.03,1.17,-0.18,5.43,-2.38,927.37,25.8,
2960275,-0.04,0.03,1.1,-0.43,5.31,-2.38,927.24,25.78,
2960313,-0.03,0.03,1.09,-0.12,4.94,-2.5,927.24,25.79,
2960351,-0.03,0.03,1.06,-0.12,4.64,-2.44,927.17,25.79,
2960390,-0.04,0.03,1.07,0.12,3.72,-2.38,927.14,25.79,
2960428,-0.04,0.04,1.08,-0.12,3.54,-2.5,927.16,25.79,
2960466,-0.04,0.03,1.08,0.0,3.3,-2.44,927.15,25.8,
2960504,-0.02,0.03,1.06,-0.55,2.75,-2.5,927.12,25.8,
2960542,-0.03,0.03,1.09,-0.18,2.01,-2.75,927.14,25.79,
2960581,-0.04,0.03,1.07,-0.31,1.89,-2.69,927.1,25.79,
2960631,-0.02,0.03,1.1,-0.37,1.83,-2.93,927.08,25.78,
2960669,-0.05,0.03,1.05,-0.55,1.83,-2.99,927.04,25.78,
2960707,-0.04,0.02,1.08,-0.06,1.53,-2.75,927.06,25.78,
2960745,-0.04,0.02,1.03,-0.37,1.95,-3.23,927.05,25.79,
2960783,-0.04,0.03,1.1,-0.18,0.61,-3.3,927.0,25.78,
2960821,-0.04,0.01,1.04,-0.55,1.65,-3.3,927.06,25.79,
2960860,-0.04,0.01,1.06,-0.31,0.79,-3.36,926.97,25.78,
2960898,-0.03,0.01,1.04,-0.49,0.79,-3.48,926.96,25.78,
2960936,-0.06,0.01,1.03,-0.31,-0.12,-3.48,926.95,25.79,
2960974,-0.05,0.01,1.02,-0.12,-0.73,-3.42,926.98,25.78,
2961050,-0.04,0.0,1.02,0.12,-0.61,-3.36,926.9,25.76,
2961088,-0.06,0.01,0.98,0.06,0.0,-3.48,926.91,25.77,
2961126,-0.06,-0.0,0.97,0.31,0.18,-3.54,926.93,25.77,
2961216,-0.07,-0.01,0.94,0.24,0.12,-3.48,926.83,25.74,
2961254,-0.04,-0.01,0.92,-0.31,0.24,-3.42,926.88,25.76,
2961292,-0.04,-0.01,0.92,-0.61,-0.79,-3.42,926.76,25.75,
2961331,-0.05,-0.01,0.92,-0.92,-0.67,-3.42,926.83,25.76,
2961369,-0.04,0.0,0.96,-1.46,-1.4,-3.42,926.82,25.76,
2961407,-0.05,-0.01,0.98,-1.83,-1.4,-3.36,926.8,25.76,
2961457,-0.04,-0.01,1.05,-2.5,-2.32,-3.48,926.78,25.75,
2961495,-0.04,-0.01,1.06,-2.62,-1.4,-3.66,926.82,25.76,
2961533,-0.04,-0.01,1.04,-2.81,-1.46,-3.54,926.8,25.76,
2961572,-0.04,-0.01,1.07,-2.44,-1.46,-3.66,926.8,25.77,
2961610,-0.05,-0.01,1.07,-2.44,-0.98,-3.6,926.77,25.77,
2961648,-0.02,0.0,1.09,-2.44,-0.92,-3.66,926.75,25.76,
2961686,-0.04,-0.0,1.17,-1.83,-1.4,-3.72,926.74,25.76,
2961724,-0.05,-0.0,1.15,-2.08,-0.79,-3.72,926.83,25.77,
2961763,-0.04,0.0,1.25,-1.95,0.0,-3.72,926.79,25.76,
2961812,-0.03,-0.0,1.22,-2.69,2.26,-3.91,926.79,25.74,
2961851,-0.04,0.02,1.26,-2.75,2.08,-3.91,926.83,25.76,
2961889,-0.01,0.01,1.27,-3.17,3.72,-4.03,926.86,25.77,
2961927,-0.02,0.02,1.31,-3.23,3.36,-3.97,926.82,25.77,
2961965,-0.01,0.03,1.36,-3.05,3.6,-4.03,926.8,25.77,
2962003,-0.01,0.03,1.37,-3.23,3.42,-4.15,926.84,25.76,
2962042,-0.03,0.05,1.49,-2.81,4.03,-4.39,926.87,25.77,
2962080,0.0,0.02,1.37,-2.62,5.25,-4.27,926.84,25.77,
2962118,0.0,0.03,1.54,-1.16,3.6,-4.64,926.82,25.77,
2962156,-0.01,0.01,1.31,-1.83,6.77,-4.39,926.86,25.77,
2962206,-0.04,0.08,1.45,-0.12,4.21,-4.52,926.76,25.76,
2962244,-0.04,0.03,1.31,-0.73,6.53,-4.52,926.74,25.76,
2962283,-0.02,0.05,1.45,0.31,4.7,-4.7,926.71,25.77,
2962321,-0.02,0.04,1.41,-0.06,5.68,-4.46,926.68,25.77,
2962359,-0.03,0.04,1.41,0.73,4.52,-4.82,926.73,25.77,
2962397,-0.01,0.05,1.32,0.43,6.65,-4.88,926.72,25.78,
2962435,-0.02,0.07,1.31,0.61,5.62,-4.94,926.67,25.78,
2962473,-0.04,0.05,1.28,1.04,7.08,-4.88,926.65,25.76,
2962512,-0.06,0.05,1.19,0.06,6.04,-4.94,926.61,25.77,
2962562,-0.05,0.04,1.24,-0.06,6.9,-5.13,926.61,25.76,
2962600,-0.03,0.04,1.2,-0.67,5.31,-5.19,926.54,25.76,
2962638,-0.05,0.05,1.27,-0.67,5.55,-5.31,926.46,25.77,
2962676,-0.04,0.05,1.15,-1.65,6.47,-5.13,926.49,25.77,
2962714,-0.05,0.05,1.2,-1.22,5.92,-5.07,926.49,25.78,
2962753,-0.06,0.04,1.13,-1.77,7.51,-5.13,926.48,25.78,
2962791,-0.06,0.07,1.18,-1.4,6.35,-5.13,926.46,25.77,
2962829,-0.05,0.06,1.2,-1.59,7.39,-4.94,926.48,25.77,
2962867,-0.05,0.07,1.27,-0.85,6.77,-5.0,926.44,25.77,
2962905,-0.07,0.05,1.27,-0.37,6.47,-4.94,926.47,25.78,
2962955,-0.09,0.05,1.23,0.67,6.29,-4.76,926.38,25.76,
2962993,-0.08,0.06,1.21,0.73,7.32,-4.64,926.39,25.77,
2963032,-0.07,0.04,1.15,1.59,6.96,-4.88,926.33,25.77,
2963070,-0.08,0.05,1.07,1.59,7.87,-4.82,926.31,25.76,
2963108,-0.1,0.05,1.07,2.38,8.97,-4.46,926.28,25.78,
2963146,-0.1,0.03,1.02,2.2,11.05,-4.33,926.26,25.77,
2963184,-0.09,0.05,1.04,2.69,10.56,-4.39,926.28,25.78,
2963223,-0.08,0.04,1.07,3.11,12.27,-4.03,926.23,25.79,
2963261,-0.08,0.03,1.0,3.3,13.37,-3.85,926.18,25.77,
2963311,-0.06,0.04,0.97,3.78,12.63,-3.85,926.23,25.77,
2963349,-0.07,0.03,0.89,3.54,12.63,-3.54,926.13,25.76,
2963387,-0.05,0.04,0.88,3.11,11.9,-3.36,926.12,25.78,
2963425,-0.07,0.03,0.86,2.81,10.62,-3.36,926.07,25.76,
2963464,-0.06,0.02,0.86,2.2,10.01,-3.11,926.04,25.78,
2963502,-0.05,0.03,0.91,1.95,8.18,-3.3,925.97,25.76,
2963540,-0.05,0.03,0.9,1.83,8.06,-3.11,925.99,25.76,
2963578,-0.05,0.03,0.88,1.59,7.93,-2.93,926.03,25.77,
2963617,-0.07,0.04,0.88,1.83,7.81,-3.05,925.98,25.77,
2963655,-0.05,0.02,0.87,1.53,8.67,-3.05,925.94,25.77,
2963705,-0.05,0.03,0.87,1.4,7.69,-3.11,925.96,25.75,
2963743,-0.03,0.02,0.85,1.04,7.14,-3.42,925.93,25.76,
2963781,-0.02,0.03,0.88,0.31,7.57,-3.17,925.87,25.76,
2963819,-0.04,0.01,0.95,0.37,7.26,-3.66,925.92,25.76,
2963857,-0.05,0.02,0.9,-0.12,7.87,-3.85,925.86,25.76,
2963896,-0.04,0.04,1.0,0.55,6.65,-4.09,925.84,25.76,
2963934,-0.03,0.02,1.0,-0.24,7.87,-3.91,925.84,25.77,
2963972,-0.05,0.03,1.03,0.31,6.41,-4.09,925.76,25.75,
2964010,-0.07,0.02,0.99,0.43,7.51,-4.46,925.76,25.76,
2964048,-0.04,0.02,0.95,0.12,7.45,-4.76,925.75,25.76,
2964124,-0.04,-0.12,0.87,0.0,9.22,-4.76,925.77,25.73,
2964162,-0.09,-0.1,0.87,-0.67,9.34,-5.19,925.78,25.75,
2964201,0.01,-0.06,0.87,0.79,12.88,-5.43,925.78,25.75,
2964290,-0.02,-0.13,0.83,1.16,16.97,-6.04,925.85,25.72,
2964328,-0.07,-0.08,0.84,1.04,18.01,-6.29,925.81,25.73,
2964367,-0.02,-0.08,0.75,2.2,19.53,-6.04,925.77,25.74,
2964405,-0.0,-0.08,0.62,0.92,19.47,-6.29,925.75,25.73,
2964443,-0.02,-0.09,0.58,1.22,17.7,-6.16,925.69,25.74,
2964481,0.01,-0.12,0.44,-0.06,13.98,-6.47,925.68,25.73,
2964531,-0.0,-0.04,0.55,0.12,12.33,-6.53,925.66,25.73,
2964569,0.01,-0.09,0.46,-1.65,10.07,-6.53,925.63,25.74,
2964608,0.01,-0.09,0.62,-1.83,7.75,-7.08,925.63,25.73,
2964646,-0.04,-0.09,0.55,-2.69,7.39,-6.77,925.62,25.73,
2964684,-0.02,-0.08,0.69,-2.87,6.35,-6.84,925.62,25.74,
2964722,-0.01,-0.09,0.68,-3.66,7.02,-7.26,925.61,25.74,
2964760,-0.04,-0.07,0.75,-4.39,5.55,-7.51,925.56,25.74,
2964799,-0.02,-0.09,0.79,-4.27,6.65,-7.51,925.59,25.74,
2964837,-0.01,-0.09,0.82,-5.55,7.69,-7.87,925.59,25.75,
2964887,-0.01,-0.08,0.86,-5.98,9.77,-8.06,925.62,25.72,
2964925,-0.01,-0.09,0.85,-6.65,10.5,-8.3,925.58,25.74,
2964963,-0.01,-0.08,0.93,-6.71,10.74,-8.61,925.62,25.74,
2965001,-0.0,-0.08,0.88,-7.26,11.17,-9.03,925.64,25.75,
2965040,-0.02,-0.08,0.89,-7.57,10.99,-9.16,925.64,25.76,
2965078,0.03,-0.04,0.98,-8.06,9.09,-9.28,925.6,25.75,
2965116,0.02,-0.07,1.07,-8.3,8.42,-9.4,925.59,25.75,
2965154,-0.0,-0.09,1.09,-8.73,7.87,-9.58,925.58,25.75,
2965192,0.0,-0.05,1.24,-8.48,6.1,-9.95,925.61,25.75,
2965231,-0.01,-0.06,1.26,-8.61,5.92,-10.07,925.61,25.76,
2965281,-0.02,-0.04,1.38,-7.63,4.52,-10.38,925.59,25.74,
2965319,-0.02,-0.06,1.36,-7.39,5.37,-10.74,925.66,25.76,
2965357,-0.02,-0.04,1.4,-6.9,4.58,-10.74,925.66,25.75,
2965395,-0.01,-0.04,1.44,-6.35,4.76,-10.74,925.64,25.76,
2965433,-0.04,-0.03,1.35,-6.47,5.07,-10.93,925.61,25.76,
2965472,-0.04,-0.03,1.44,-5.74,4.82,-11.17,925.61,25.74,
2965510,-0.03,-0.04,1.38,-5.86,6.53,-11.41,925.61,25.76,
2965548,-0.04,-0.02,1.49,-5.19,5.37,-11.72,925.6,25.76,
2965586,-0.04,-0.02,1.49,-5.0,6.04,-11.47,925.5,25.74,
2965636,-0.05,-0.01,1.55,-4.76,4.7,-10.99,925.57,25.75,
2965675,-0.05,-0.06,1.5,-4.58,5.19,-10.93,925.57,25.74,
2965713,-0.08,-0.02,1.48,-4.82,3.23,-10.68,925.57,25.75,
2965751,-0.07,-0.01,1.48,-5.0,2.5,-10.19,925.6,25.75,
2965789,-0.05,-0.03,1.37,-5.19,1.71,-9.95,925.53,25.74,
2965827,-0.07,-0.04,1.41,-4.82,-0.49,-9.83,925.53,25.75,
2965866,-0.06,-0.07,1.28,-5.55,0.61,-9.4,925.54,25.75,
2965904,-0.09,-0.04,1.31,-5.49,-0.85,-9.22,925.57,25.75,
2965942,-0.07,-0.04,1.3,-6.1,-0.12,-9.03,925.49,25.74,
2965992,-0.09,-0.05,1.26,-6.35,-1.89,-8.54,925.57,25.74,
2966030,-0.09,-0.06,1.3,-6.41,-1.28,-8.54,925.6,25.74,
2966068,-0.08,-0.06,1.24,-6.59,-2.2,-8.18,925.63,25.76,
2966107,-0.1,-0.03,1.33,-6.1,-2.44,-7.93,925.6,25.74,
2966145,-0.1,-0.05,1.28,-5.8,-0.49,-7.63,925.63,25.75,
2966183,-0.09,-0.04,1.35,-4.82,-1.22,-7.39,925.64,25.75,
2966221,-0.1,-0.05,1.31,-4.64,0.55,-6.9,925.59,25.75,
2966260,-0.1,-0.04,1.28,-3.97,0.24,-6.65,925.61,25.75,
2966298,-0.11,-0.03,1.33,-3.54,0.98,-6.41,925.58,25.74,
2966348,-0.07,-0.04,1.38,-3.05,0.73,-5.92,925.6,25.74,
2966386,-0.08,-0.04,1.45,-2.62,0.49,-5.55,925.62,25.74,
2966424,-0.09,-0.04,1.38,-3.17,1.04,-5.19,925.62,25.76,
2966462,-0.08,-0.02,1.48,-2.38,1.28,-5.25,925.59,25.74,
2966500,-0.05,-0.05,1.38,-2.38,1.22,-4.94,925.61,25.74,
2966539,-0.08,-0.05,1.35,-2.01,0.0,-4.52,925.64,25.75,
2966577,-0.08,-0.05,1.29,-2.26,0.98,-4.39,925.66,25.74,
2966615,-0.08,-0.04,1.26,-1.71,0.18,-4.15,925.65,25.74,
2966653,-0.07,-0.05,1.2,-1.46,0.55,-3.85,925.64,25.74,
2966703,-0.06,-0.07,1.14,-1.59,0.18,-3.78,925.69,25.74,
2966741,-0.06,-0.07,1.07,-1.83,1.04,-3.72,925.68,25.74,
2966779,-0.06,-0.07,1.05,-1.89,0.73,-3.48,925.71,25.73,
2966818,-0.06,-0.07,1.01,-2.14,0.67,-3.42,925.74,25.76,
2966856,-0.06,-0.07,1.02,-2.32,0.61,-3.36,925.73,25.74,
2966894,-0.05,-0.08,0.97,-2.75,0.92,-3.05,925.71,25.75,
2966932,-0.04,-0.07,1.0,-2.75,0.24,-3.05,925.72,25.74,
2966970,-0.06,-0.06,0.99,-2.99,0.37,-2.93,925.67,25.75,
2967009,-0.04,-0.07,0.99,-3.6,0.61,-2.62,925.76,25.75,
2967047,-0.05,-0.07,1.02,-3.6,0.98,-2.75,925.78,25.75,
2967123,-0.05,-0.07,1.05,-3.72,2.38,-2.62,925.78,25.71,
2967161,-0.02,-0.07,1.09,-3.42,3.36,-2.69,925.87,25.74,
2967199,-0.03,-0.07,1.12,-3.17,3.23,-2.81,925.8,25.73,
2967289,-0.02,-0.06,1.13,-1.34,4.46,-2.62,925.84,25.71,
2967327,-0.02,-0.08,1.07,-1.16,4.76,-2.5,925.85,25.71,
2967365,0.02,-0.06,1.11,-0.49,3.78,-2.75,925.83,25.71,
2967403,-0.0,-0.08,1.09,0.12,3.72,-2.69,925.86,25.72,
2967442,0.0,-0.07,1.04,0.24,2.99,-2.75,925.85,25.72,
2967480,0.01,-0.06,1.12,0.73,2.32,-2.75,925.77,25.72,
2967530,0.01,-0.08,1.03,0.43,2.26,-3.05,925.9,25.73,
2967568,-0.01,-0.07,1.05,0.55,1.89,-3.23,925.89,25.73,
2967606,-0.0,-0.07,1.03,-0.06,3.23,-3.48,925.85,25.73,
2967644,0.02,-0.06,1.07,-0.12,2.75,-3.72,925.9,25.75,
2967683,0.02,-0.07,1.07,-0.55,3.11,-3.85,925.91,25.74,
2967721,0.02,-0.07,1.06,-0.98,2.75,-4.03,925.86,25.74,
2967759,0.01,-0.07,1.14,-0.79,1.83,-4.39,925.87,25.74,
2967797,0.01,-0.08,1.11,-1.89,1.71,-4.21,925.87,25.73,
2967836,-0.0,-0.06,1.15,-1.71,-0.18,-4.46,925.92,25.74,
2967874,-0.01,-0.06,1.12,-2.56,0.0,-4.64,925.87,25.73,
2967924,0.02,-0.07,1.17,-2.38,-1.89,-4.82,925.91,25.73,
2967962,0.01,-0.08,1.15,-2.99,-1.83,-4.94,925.92,25.74,
2968000,-0.0,-0.06,1.24,-3.11,-3.11,-5.25,925.95,25.73,
2968038,-0.0,-0.07,1.24,-3.23,-2.08,-5.43,925.95,25.73,
2968076,0.0,-0.06,1.24,-3.66,-3.3,-5.55,925.98,25.74,
2968114,-0.0,-0.06,1.33,-2.93,-3.72,-5.86,926.01,25.75,
2968153,-0.0,-0.08,1.26,-3.42,-3.17,-5.92,926.04,25.74,
2968191,-0.01,-0.05,1.32,-2.99,-3.85,-5.92,926.04,25.75,
2968229,-0.02,-0.08,1.22,-3.17,-2.2,-6.04,926.0,25.74,
2968279,-0.0,-0.06,1.31,-1.95,-2.01,-6.29,926.04,25.73,
2968317,-0.01,-0.07,1.25,-2.38,0.18,-6.53,926.01,25.74,
2968355,-0.01,-0.06,1.33,-1.77,-1.53,-6.53,926.05,25.75,
2968393,0.01,-0.06,1.25,-2.38,0.43,-6.59,926.05,25.75,
2968432,0.01,-0.05,1.36,-1.89,-1.16,-6.59,926.1,25.75,
2968470,-0.0,-0.07,1.43,-1.89,-0.37,-6.9,926.12,25.75,
2968508,-0.02,-0.06,1.4,-2.93,-0.43,-7.02,926.07,25.74,
2968546,-0.01,-0.05,1.48,-2.5,0.12,-7.32,926.09,25.74,
2968584,-0.02,-0.07,1.4,-3.23,2.01,-7.26,926.16,25.76,
2968634,-0.02,-0.06,1.46,-2.62,1.16,-7.45,926.2,25.74,
2968672,-0.01,-0.06,1.39,-2.87,2.93,-7.69,926.09,25.74,
2968711,-0.01,-0.05,1.48,-2.2,2.14,-7.51,926.09,25.75,
2968749,-0.02,-0.06,1.48,-2.32,0.85,-7.39,926.14,25.76,
2968787,-0.04,-0.07,1.48,-1.95,-0.37,-7.51,926.12,25.74,
2968825,-0.01,-0.08,1.44,-2.14,0.67,-7.32,926.18,25.75,
2968863,-0.02,-0.07,1.36,-2.26,-0.06,-7.2,926.16,25.75,
2968902,-0.05,-0.06,1.39,-1.89,-1.46,-7.14,926.19,25.74,
2968940,-0.0,-0.06,1.38,-2.32,0.43,-7.45,926.15,25.74,
2968990,-0.03,-0.05,1.47,-1.4,0.61,-7.14,926.15,25.74,
2969028,-0.03,-0.1,1.45,-2.14,3.23,-6.96,926.11,25.73,
2969066,-0.04,-0.06,1.5,-2.01,1.95,-7.2,926.21,25.74,
2969104,-0.06,-0.05,1.57,-1.83,2.01,-7.02,926.2,25.75,
2969142,-0.03,-0.06,1.46,-1.71,2.62,-6.96,926.19,25.74,
2969181,-0.02,-0.06,1.48,-1.1,1.4,-7.14,926.25,25.74,
2969219,-0.03,-0.08,1.38,-0.92,2.5,-6.77,926.23,25.75,
2969257,-0.02,-0.08,1.31,-0.61,2.56,-6.47,926.18,25.73,
2969295,-0.03,-0.08,1.29,-0.67,2.93,-6.53,926.26,25.74,
2969333,-0.05,-0.09,1.19,-0.37,2.81,-6.41,926.22,25.74,
2969383,-0.05,-0.08,1.18,0.24,3.42,-6.65,926.29,25.72,
2969421,-0.01,-0.1,1.08,0.0,4.52,-6.59,926.19,25.74,
2969459,-0.02,-0.08,1.05,-0.37,4.94,-6.84,926.23,25.73,
2969497,-0.02,-0.08,1.03,-0.49,5.68,-6.71,926.16,25.74,
2969535,-0.04,-0.09,1.0,-0.43,6.23,-6.41,926.21,25.75,
2969574,-0.03,-0.09,0.97,-0.85,7.57,-6.53,926.2,25.75,
2969612,-0.04,-0.09,0.94,-0.98,9.03,-6.96,926.14,25.74,
2969650,-0.03,-0.07,0.94,-0.73,8.36,-6.65,926.23,25.74,
2969688,0.0,-0.09,0.89,-0.85,8.79,-6.47,926.18,25.74,
2969738,-0.01,-0.08,0.99,0.06,9.28,-6.59,926.12,25.72,
2969776,-0.04,-0.11,0.89,-0.55,13.37,-6.47,926.21,25.75,
2969814,-0.04,-0.09,0.99,1.28,12.76,-6.35,926.19,25.74,
2969852,0.0,-0.1,0.8,0.24,15.2,-6.53,926.22,25.74,
2969890,0.04,-0.08,0.77,1.59,15.01,-7.08,926.19,25.73,
2969929,-0.0,-0.11,0.63,1.59,16.42,-6.84,926.21,25.74,
2969967,0.01,-0.08,0.63,-0.73,12.7,-6.59,926.11,25.72,
2970005,0.04,-0.08,0.72,-0.18,11.05,-7.02,926.2,25.74,
2970043,0.02,-0.11,0.67,-1.71,8.24,-7.26,926.12,25.74,
2970120,0.02,-0.11,0.86,-3.6,3.6,-7.14,926.09,25.72,
2970159,0.01,-0.07,1.11,-4.7,0.61,-7.75,926.0,25.71,
2970197,-0.01,-0.11,1.11,-5.25,1.34,-7.39,926.07,25.71,
2970287,0.0,-0.09,1.28,-5.98,1.83,-8.06,926.16,25.69,
2970325,-0.02,-0.06,1.38,-4.88,1.34,-8.12,926.14,25.71,
2970363,-0.02,-0.11,1.27,-5.37,4.03,-8.3,926.04,25.72,
2970402,-0.02,-0.11,1.27,-5.13,3.66,-8.91,926.1,25.72,
2970440,0.0,-0.11,1.22,-5.49,5.13,-9.03,926.07,25.72,
2970478,-0.03,-0.11,1.08,-6.47,5.25,-9.28,926.1,25.72,
2970516,-0.02,-0.1,1.08,-7.81,4.76,-9.16,926.08,25.72,
2970566,0.02,-0.11,1.21,-8.79,3.54,-9.77,926.03,25.7,
2970604,-0.02,-0.09,1.24,-9.64,1.16,-9.52,926.06,25.72,
2970643,-0.04,-0.08,1.42,-9.28,-2.01,-9.4,926.12,25.73,
2970681,-0.03,-0.07,1.52,-10.38,-3.3,-9.64,926.1,25.74,
2970719,-0.05,-0.06,1.61,-10.31,-6.04,-9.4,926.13,25.74,
2970757,-0.06,-0.08,1.58,-11.05,-6.29,-8.97,926.09,25.73,
2970796,-0.07,-0.07,1.56,-10.93,-7.87,-8.97,926.04,25.73,
2970834,-0.05,-0.06,1.53,-11.78,-5.74,-9.09,926.1,25.72,
2970872,-0.08,-0.05,1.67,-10.93,-7.02,-9.03,926.11,25.74,
2970922,-0.09,-0.07,1.53,-11.66,-4.15,-9.09,926.05,25.73,
2970960,-0.1,-0.03,1.75,-10.74,-3.97,-8.97,926.14,25.74,
2970998,-0.11,-0.08,1.7,-10.13,-0.67,-8.54,926.1,25.73,
2971036,-0.11,-0.05,1.73,-9.16,-1.04,-8.73,926.06,25.73,
2971075,-0.1,-0.05,1.82,-8.06,1.83,-8.36,926.06,25.75,
2971113,-0.07,-0.04,1.84,-8.06,2.26,-8.12,925.96,25.73,
2971151,-0.1,-0.03,1.84,-7.14,1.65,-7.93,925.96,25.74,
2971189,-0.12,-0.04,1.77,-6.9,2.14,-7.2,925.97,25.74,
2971227,-0.1,-0.05,1.76,-6.41,1.95,-6.9,925.88,25.73,
2971277,-0.08,-0.03,1.73,-6.1,0.24,-6.71,925.88,25.72,
2971315,-0.13,-0.03,1.7,-5.31,0.06,-6.04,925.84,25.73,
2971354,-0.11,-0.05,1.67,-4.64,0.37,-5.55,925.88,25.72,
2971392,-0.11,-0.04,1.75,-3.54,0.06,-5.49,925.89,25.72,
2971430,-0.14,-0.06,1.69,-3.42,0.98,-5.07,925.88,25.71,
2971468,-0.1,-0.03,1.73,-2.26,0.73,-4.46,925.95,25.73,
2971506,-0.11,-0.05,1.67,-1.16,2.62,-4.21,925.94,25.71,
2971545,-0.13,-0.06,1.59,-0.37,2.87,-3.72,926.04,25.72,
2971583,-0.1,-0.06,1.59,0.85,4.64,-3.11,925.94,25.72,
2971633,-0.1,-0.06,1.51,1.77,3.91,-2.69,926.0,25.72,
2971671,-0.11,-0.06,1.41,1.53,5.13,-1.77,926.01,25.72,
2971709,-0.12,-0.07,1.4,2.56,5.74,-1.46,925.99,25.71,
2971747,-0.09,-0.08,1.27,2.5,5.86,-1.04,925.94,25.71,
2971786,-0.09,-0.07,1.26,2.93,4.33,-0.73,925.95,25.71,
2971824,-0.08,-0.09,1.17,3.17,5.0,-0.31,925.95,25.72,
2971862,-0.04,-0.09,1.07,2.32,3.91,-0.18,925.92,25.72,
2971900,-0.03,-0.08,1.08,2.56,3.42,0.06,925.91,25.71,
2971939,-0.02,-0.1,1.0,0.79,2.2,0.18,925.95,25.71,
2971977,-0.01,-0.1,1.01,0.31,1.77,0.37,925.86,25.72,
2972027,-0.0,-0.1,1.02,-0.92,0.24,0.37,925.75,25.7,
2972065,-0.02,-0.09,1.06,-1.89,-1.59,0.18,925.79,25.7,
2972103,-0.01,-0.1,1.12,-2.32,-2.26,0.37,925.76,25.71,
2972141,-0.0,-0.1,1.13,-3.36,-2.69,0.06,925.71,25.71,
2972179,-0.01,-0.08,1.28,-2.81,-5.13,0.12,925.84,25.71,
2972218,0.01,-0.09,1.26,-2.87,-4.15,0.0,925.87,25.72,
2972256,0.0,-0.06,1.31,-2.14,-5.43,-0.06,925.87,25.72,
2972294,-0.03,-0.08,1.27,-0.85,-4.94,0.0,925.81,25.72,
2972332,-0.0,-0.09,1.18,-0.31,-6.04,-0.31,925.79,25.71,
2972382,0.0,-0.07,1.19,0.31,-5.8,-0.31,925.79,25.71,
2972420,-0.02,-0.09,1.08,0.49,-5.07,-0.55,925.76,25.71,
2972458,-0.01,-0.08,1.1,0.79,-4.82,-0.67,925.68,25.71,
2972496,-0.02,-0.1,1.02,0.43,-3.66,-0.67,925.73,25.71,
2972535,-0.06,-0.09,0.94,0.67,-2.81,-0.67,925.69,25.72,
2972573,-0.05,-0.1,0.83,0.98,-0.85,-0.79,925.71,25.72,
2972611,-0.03,-0.1,0.75,1.71,0.43,-1.1,925.72,25.72,
2972649,-0.04,-0.1,0.71,1.34,3.66,-0.98,925.6,25.72,
2972687,-0.02,-0.1,0.65,1.46,7.69,-0.98,925.61,25.72,
2972726,-0.02,-0.07,0.67,0.67,10.19,-0.92,925.58,25.72,
2972776,-0.03,-0.08,0.78,1.65,11.96,-0.98,925.53,25.72,
2972814,0.01,-0.11,0.84,0.49,11.96,-0.98,925.5,25.71,
2972852,0.0,-0.1,0.94,0.37,10.38,-1.1,925.45,25.72,
2972890,0.01,-0.08,0.95,-1.22,8.97,-1.04,925.48,25.72,
2972928,0.02,-0.07,1.14,-1.65,6.53,-1.1,925.43,25.72,
2972967,0.01,-0.1,1.14,-3.3,6.41,-1.04,925.5,25.72,
2973005,-0.02,-0.08,1.34,-2.75,3.05,-1.16,925.45,25.72,
2973043,0.01,-0.08,1.33,-3.78,3.85,-0.73,925.48,25.72,
2973081,-0.01,-0.07,1.46,-2.93,1.16,-1.28,925.55,25.73,
2973157,-0.02,-0.07,1.48,-1.22,1.53,-1.46,925.5,25.7,
2973195,-0.0,-0.08,1.43,-0.73,2.93,-1.59,925.5,25.7,
2973234,-0.01,-0.07,1.38,0.31,3.54,-1.83,925.39,25.71,
2973323,0.01,-0.09,1.28,2.26,5.62,-1.71,925.29,25.68,
2973362,-0.01,-0.09,1.21,2.38,5.74,-1.71,925.3,25.69,
2973400,0.01,-0.09,1.15,3.23,4.7,-1.65,925.28,25.69,
2973438,0.01,-0.09,1.08,2.93,4.88,-1.65,925.32,25.71,
2973476,0.01,-0.08,1.04,2.62,4.27,-1.89,925.22,25.71,
2973514,0.01,-0.1,1.01,2.32,4.09,-1.59,925.19,25.69,
2973553,0.01,-0.1,0.97,1.77,3.11,-1.95,925.17,25.7,
2973603,0.01,-0.1,0.96,0.79,2.62,-2.26,925.18,25.69,
2973641,0.01,-0.09,0.92,0.0,2.08,-2.26,925.09,25.71,
2973679,0.01,-0.08,0.99,-0.31,1.1,-2.56,925.11,25.71,
2973717,-0.0,-0.1,0.9,-1.34,1.89,-2.62,925.06,25.7,
2973755,0.01,-0.08,0.97,-1.71,0.31,-2.56,925.08,25.71,
2973793,0.02,-0.1,0.99,-2.32,1.04,-2.69,925.0,25.71,
2973832,0.0,-0.09,1.05,-2.87,0.55,-2.93,925.05,25.7,
2973870,0.02,-0.1,1.14,-2.81,1.1,-3.05,925.02,25.69,
2973908,0.01,-0.09,1.15,-3.17,1.53,-3.11,925.03,25.71,
2973958,0.01,-0.09,1.21,-2.32,2.62,-3.54,925.05,25.69,
2973996,0.03,-0.08,1.19,-2.14,4.46,-3.6,925.03,25.7,
2974034,0.03,-0.09,1.24,-0.92,3.85,-3.97,925.01,25.7,
2974073,0.01,-0.1,1.16,-0.67,4.76,-4.33,924.99,25.7,
2974111,0.01,-0.08,1.11,-0.55,4.46,-4.15,924.96,25.69,
2974149,0.0,-0.08,1.14,0.18,5.0,-4.52,924.97,25.7,
2974187,0.02,-0.1,1.0,0.49,5.74,-4.52,924.91,25.69,
2974225,-0.01,-0.08,0.99,1.65,2.81,-4.52,924.89,25.7,
2974264,-0.0,-0.1,0.91,2.01,3.91,-4.82,924.85,25.7,
2974302,-0.0,-0.08,0.82,1.16,3.36,-4.88,924.82,25.71,
2974352,0.0,-0.1,0.79,1.1,3.97,-4.82,924.72,25.69,
2974390,0.01,-0.11,0.85,0.0,2.87,-5.31,924.74,25.71,
2974428,-0.01,-0.09,0.85,-1.34,2.93,-5.25,924.72,25.71,
2974466,0.02,-0.09,0.98,-2.32,3.23,-5.37,924.64,25.69,
2974504,0.0,-0.1,0.99,-3.11,2.62,-5.55,924.64,25.7,
2974543,0.01,-0.09,1.08,-3.48,0.24,-5.62,924.61,25.7,
2974581,-0.01,-0.08,1.1,-3.72,1.22,-5.49,924.61,25.7,
2974619,-0.02,-0.08,1.09,-3.54,2.2,-5.74,924.65,25.72,
2974657,0.01,-0.07,1.23,-2.26,0.79,-5.86,924.61,25.72,
2974707,-0.01,-0.09,1.17,-2.87,0.12,-5.62,924.65,25.7,
2974745,-0.01,-0.08,1.25,-2.38,-1.16,-5.92,924.61,25.72,
2974784,0.0,-0.09,1.17,-2.81,-0.18,-5.92,924.59,25.72,
2974822,-0.03,-0.07,1.23,-2.38,-1.95,-5.86,924.56,25.71,
2974860,-0.02,-0.08,1.17,-2.87,-1.46,-5.8,924.6,25.71,
2974898,-0.04,-0.07,1.19,-2.26,-2.26,-5.92,924.56,25.72,
2974936,-0.02,-0.09,1.21,-2.14,-1.04,-5.98,924.51,25.72,
2974975,-0.0,-0.08,1.21,-2.44,-1.22,-5.98,924.51,25.7,
2975013,-0.03,-0.08,1.25,-2.08,-1.28,-5.74,924.42,25.72,
2975063,-0.03,-0.08,1.32,-1.34,-1.1,-5.74,924.53,25.71,
2975101,-0.04,-0.07,1.31,-1.1,-0.24,-5.68,924.49,25.71,
2975139,-0.04,-0.06,1.33,-0.12,-0.18,-5.68,924.47,25.71,
2975177,-0.06,-0.08,1.36,0.55,-0.06,-5.68,924.46,25.71,
2975216,-0.04,-0.07,1.26,0.55,1.46,-5.37,924.35,25.72,
2975254,-0.04,-0.07,1.21,0.55,1.77,-5.43,924.42,25.71,
2975292,-0.03,-0.09,1.11,0.12,2.75,-5.25,924.33,25.71,
2975330,-0.03,-0.09,1.05,-0.98,2.44,-5.13,924.28,25.71,
2975368,-0.02,-0.08,1.14,-1.16,2.62,-5.19,924.29,25.72,
2975407,-0.04,-0.1,1.09,-2.14,2.93,-5.07,924.26,25.72,
2975457,-0.05,-0.08,1.16,-1.65,1.59,-4.82,924.26,25.71,
2975495,-0.01,-0.09,1.13,-2.14,2.08,-4.88,924.2,25.71,
2975533,-0.03,-0.07,1.16,-1.46,0.31,-4.76,924.18,25.71,
2975571,-0.05,-0.09,1.06,-1.65,1.28,-4.33,924.16,25.71,
2975609,-0.01,-0.07,1.09,-1.46,0.43,-4.52,924.07,25.71,
2975648,-0.04,-0.07,1.2,-0.73,0.12,-4.39,924.18,25.72,
2975686,-0.04,-0.09,1.14,-1.04,1.71,-4.21,924.12,25.71,
2975724,-0.02,-0.07,1.22,0.0,1.1,-4.33,924.08,25.7,
2975762,-0.02,-0.1,1.15,0.37,2.87,-4.27,924.08,25.7,
2975812,-0.01,-0.07,1.14,1.59,3.3,-4.21,924.03,25.69,
2975850,-0.04,-0.08,1.11,2.62,5.37,-4.09,924.0,25.7,
2975888,-0.03,-0.09,1.0,3.05,5.74,-4.21,923.98,25.69,
2975927,-0.04,-0.07,1.06,3.91,5.49,-4.09,923.98,25.71,
2975965,-0.03,-0.09,1.02,3.97,5.86,-3.91,923.97,25.71,
2976003,-0.03,-0.08,1.02,4.15,5.62,-4.21,923.93,25.71,
2976041,-0.06,-0.09,0.97,4.58,5.62,-3.97,923.83,25.69,
2976079,-0.05,-0.09,0.89,4.33,5.55,-3.72,923.85,25.71,
2976118,-0.02,-0.08,0.87,3.97,5.49,-3.85,923.72,25.7,
2976193,-0.06,-0.1,0.87,2.93,4.88,-3.36,923.68,25.68,
2976232,-0.04,-0.09,0.86,1.83,4.58,-3.23,923.63,25.69,
2976270,-0.05,-0.09,0.87,1.53,3.97,-3.23,923.71,25.7,
2976360,-0.05,-0.1,0.8,0.98,3.91,-2.87,923.67,25.66,
2976398,-0.04,-0.08,0.73,0.31,3.36,-3.05,923.6,25.67,
2976436,-0.05,-0.08,0.78,0.12,3.66,-2.69,923.57,25.67,
2976474,-0.04,-0.09,0.81,-0.18,4.64,-2.87,923.57,25.68,
2976512,-0.07,-0.08,0.88,0.73,5.13,-2.87,923.61,25.68,
2976551,-0.05,-0.08,0.88,1.4,6.23,-2.5,923.55,25.7,
2976589,-0.04,-0.08,0.89,1.83,7.87,-2.5,923.43,25.67,
2976639,-0.04,-0.08,0.86,2.44,10.13,-2.69,923.5,25.68,
2976677,-0.03,-0.07,0.85,2.38,11.29,-2.44,923.43,25.67,
2976715,-0.04,-0.07,0.85,2.56,12.39,-2.14,923.38,25.67,
2976754,-0.03,-0.08,0.83,2.56,12.94,-2.08,923.41,25.68,
2976792,-0.04,-0.08,0.87,2.2,11.6,-1.95,923.42,25.69,
2976830,-0.03,-0.08,0.9,2.38,10.8,-1.77,923.37,25.69,
2976868,-0.0,-0.09,0.91,1.71,10.25,-1.77,923.32,25.69,
2976906,-0.03,-0.08,0.96,1.4,8.61,-1.59,923.29,25.69,
2976945,0.01,-0.09,0.94,-0.12,7.45,-1.89,923.27,25.69,
2976995,-0.02,-0.08,0.97,-1.34,6.29,-2.01,923.22,25.68,
2977033,-0.02,-0.09,1.01,-2.56,5.37,-1.89,923.21,25.68,
2977071,-0.02,-0.07,1.07,-3.42,4.64,-1.89,923.23,25.69,
2977109,-0.03,-0.07,1.11,-4.09,5.19,-2.14,923.23,25.69,
2977147,-0.0,-0.07,1.2,-4.15,5.07,-2.2,923.27,25.7,
2977186,-0.03,-0.06,1.27,-3.3,5.37,-2.2,923.29,25.69,
2977224,-0.04,-0.07,1.26,-2.2,5.19,-2.08,923.24,25.69,
2977262,-0.05,-0.07,1.22,-0.92,6.47,-2.08,923.25,25.7,
2977300,-0.03,-0.06,1.22,0.0,6.65,-2.2,923.25,25.69,
2977338,-0.02,-0.07,1.14,0.73,6.9,-2.08,923.17,25.69,
2977388,-0.01,-0.08,1.04,1.22,6.71,-1.95,923.2,25.68,
2977427,-0.03,-0.08,0.98,0.98,7.02,-1.89,923.11,25.69,
2977465,-0.02,-0.08,1.01,0.85,5.8,-1.89,923.05,25.69,
2977503,-0.0,-0.1,0.96,-0.12,6.53,-1.83,923.05,25.7,
2977541,-0.0,-0.06,1.03,-1.34,4.52,-1.95,923.03,25.69,
2977579,0.0,-0.08,1.14,-1.89,2.99,-2.08,922.99,25.69,
2977617,-0.0,-0.08,1.12,-3.85,2.93,-2.2,923.01,25.7,
2977656,-0.0,-0.07,1.28,-4.09,1.53,-2.01,922.96,25.69,
2977694,0.0,-0.07,1.37,-5.0,1.59,-2.26,922.9,25.68,
2977744,-0.06,-0.05,1.49,-4.15,1.34,-2.5,923.01,25.69,
2977782,-0.04,-0.05,1.51,-3.54,2.75,-2.62,922.95,25.68,
2977820,-0.01,-0.05,1.55,-2.5,3.42,-2.87,922.97,25.68,
2977858,-0.02,-0.04,1.51,-1.28,4.39,-2.5,922.99,25.69,
2977896,-0.05,-0.05,1.45,-0.31,3.85,-2.69,922.9,25.69,
2977935,-0.04,-0.05,1.38,0.67,5.43,-2.69,922.9,25.69,
2977973,-0.02,-0.05,1.35,0.67,5.86,-2.75,922.79,25.68,
2978011,-0.03,-0.07,1.26,1.71,6.71,-2.56,922.8,25.68,
2978049,-0.02,-0.08,1.13,0.98,7.93,-2.62,922.81,25.69,
2978099,0.0,-0.1,1.14,1.28,8.3,-2.5,922.76,25.67,
2978137,-0.0,-0.09,1.02,0.12,7.26,-2.87,922.83,25.69,
2978175,-0.01,-0.06,1.07,0.67,6.53,-2.93,922.74,25.69,
2978213,-0.0,-0.08,0.96,-1.1,8.3,-2.87,922.68,25.68,
2978252,0.03,-0.08,1.05,-0.43,5.13,-3.17,922.71,25.69,
2978290,-0.01,-0.1,1.03,-0.55,4.21,-3.42,922.68,25.69,
2978328,-0.02,-0.09,1.03,-0.73,4.21,-3.66,922.59,25.68,
2978366,-0.01,-0.08,1.03,-0.67,4.82,-3.85,922.61,25.69,
2978404,0.02,-0.08,1.13,-1.22,3.78,-3.97,922.64,25.69,
2978442,-0.01,-0.1,1.1,-2.08,4.76,-4.09,922.57,25.69,
2978492,-0.02,-0.08,1.17,-2.5,3.97,-4.15,922.53,25.68,
2978531,-0.02,-0.08,1.15,-2.87,3.97,-4.21,922.56,25.68,
2978569,-0.03,-0.07,1.14,-2.62,4.21,-4.27,922.56,25.68,
2978607,0.0,-0.08,1.15,-2.08,5.55,-4.46,922.5,25.68,
2978645,-0.0,-0.07,1.19,-1.34,4.82,-4.58,922.59,25.69,
2978683,-0.01,-0.08,1.14,-0.37,5.74,-4.64,922.5,25.69,
2978721,-0.03,-0.08,1.12,0.24,5.92,-4.7,922.49,25.69,
2978760,-0.01,-0.07,1.07,0.67,5.43,-4.7,922.45,25.69,
2978798,-0.01,-0.09,1.04,0.61,4.15,-4.7,922.33,25.68,
2978848,-0.0,-0.09,0.97,-0.31,3.36,-4.76,922.35,25.68,
2978886,0.01,-0.08,0.99,-0.85,2.08,-5.13,922.3,25.7,
2978924,-0.01,-0.08,1.01,-1.53,1.46,-4.88,922.29,25.69,
2978962,-0.01,-0.08,1.0,-2.26,0.73,-5.19,922.2,25.69,
2979001,-0.0,-0.08,1.1,-2.62,0.73,-5.19,922.23,25.69,
2979039,-0.0,-0.09,1.07,-3.23,1.65,-5.43,922.26,25.69,
2979077,-0.02,-0.07,1.15,-3.36,-0.31,-5.55,922.21,25.7,
2979115,-0.0,-0.09,1.15,-4.15,-0.06,-5.37,922.19,25.68,
2979153,-0.0,-0.07,1.19,-5.0,-0.12,-5.92,922.2,25.71,
2979229,-0.02,-0.07,1.27,-5.07,1.04,-5.92,922.1,25.66,
2979268,-0.01,-0.07,1.37,-4.7,0.92,-6.1,922.08,25.67,
2979306,-0.04,-0.06,1.37,-4.88,1.65,-6.35,922.09,25.68,
2979396,-0.04,-0.06,1.43,-4.03,2.44,-6.23,921.97,25.65,
2979434,-0.04,-0.06,1.42,-3.54,2.62,-6.35,921.98,25.65,
2979472,-0.04,-0.06,1.34,-3.3,2.99,-6.29,921.96,25.66,
2979510,-0.04,-0.05,1.38,-2.69,2.08,-6.47,921.94,25.67,
2979548,-0.05,-0.06,1.32,-2.5,3.42,-6.23,921.91,25.67,
2979587,-0.03,-0.07,1.33,-2.01,3.6,-6.41,921.81,25.67,
2979625,-0.02,-0.07,1.32,-1.95,4.09,-6.41,921.91,25.68,
2979675,-0.06,-0.06,1.27,-1.4,2.93,-5.92,921.88,25.66,
2979713,-0.06,-0.07,1.22,-1.34,3.85,-6.1,921.81,25.66,
2979751,-0.04,-0.06,1.17,-0.73,2.93,-6.16,921.79,25.67,
2979789,-0.04,-0.06,1.14,-0.06,2.26,-5.74,921.75,25.68,
2979828,-0.06,-0.08,1.05,0.37,1.89,-5.8,921.76,25.67,
2979866,-0.06,-0.06,1.05,0.49,1.89,-5.8,921.71,25.69,
2979904,-0.04,-0.07,1.04,0.85,2.99,-5.55,921.71,25.68,
2979942,-0.05,-0.08,0.99,0.49,2.93,-5.55,921.72,25.69,
2979980,-0.05,-0.06,1.02,1.16,2.32,-5.31,921.72,25.69,
2980030,-0.05,-0.07,0.88,0.55,3.97,-5.07,921.66,25.68,
2980069,-0.04,-0.08,0.85,1.34,3.42,-4.94,921.64,25.67,
2980107,-0.04,-0.07,0.75,1.1,4.03,-4.76,921.6,25.67,
2980145,-0.06,-0.07,0.74,1.04,3.42,-4.64,921.56,25.68,
2980183,-0.02,-0.09,0.66,0.18,4.33,-4.7,921.5,25.68,
2980221,-0.02,-0.07,0.71,-0.85,3.78,-4.64,921.46,25.68,
2980260,-0.06,-0.09,0.68,-1.4,5.0,-4.27,921.44,25.68,
2980298,-0.04,-0.08,0.71,-2.62,4.64,-4.33,921.47,25.69,
2980336,-0.04,-0.07,0.82,-2.14,5.0,-4.39,921.42,25.68,
2980374,-0.04,-0.09,0.78,-3.11,6.1,-4.15,921.38,25.68,
2980424,-0.01,-0.07,0.88,-3.05,5.74,-4.33,921.38,25.66,
2980462,-0.0,-0.07,0.85,-3.66,5.07,-4.09,921.31,25.68,
2980501,-0.01,-0.06,0.88,-4.03,3.05,-3.78,921.28,25.68,
2980539,-0.02,-0.08,0.82,-4.27,2.44,-3.85,921.25,25.69,
2980577,-0.02,-0.07,0.87,-5.07,1.04,-3.78,921.27,25.68,
2980615,0.01,-0.07,0.93,-4.52,0.0,-3.91,921.33,25.69,
2980653,0.01,-0.07,0.93,-4.33,-1.34,-3.91,921.27,25.68,
2980692,-0.03,-0.07,1.04,-2.56,-1.95,-3.91,921.27,25.68,
2980730,-0.0,-0.07,1.02,-1.95,-1.53,-4.03,921.25,25.68,
2980780,-0.01,-0.07,1.07,0.73,-1.22,-4.09,921.3,25.66,
2980818,-0.0,-0.07,1.03,1.65,-0.61,-4.39,921.24,25.67,
2980856,0.0,-0.07,0.97,2.93,0.49,-4.46,921.25,25.67,
2980894,-0.01,-0.08,0.95,3.85,1.04,-4.58,921.23,25.68,
2980933,-0.03,-0.07,0.88,4.46,1.1,-4.58,921.23,25.68,
2980971,-0.04,-0.06,0.9,5.13,2.87,-4.76,921.21,25.69,
2981009,-0.02,-0.07,0.89,4.88,5.92,-5.07,921.11,25.68,
2981047,-0.02,-0.07,0.88,4.82,5.8,-4.88,921.06,25.68,
2981086,-0.04,-0.08,0.91,4.58,7.32,-5.0,921.09,25.68,
2981136,-0.03,-0.07,0.96,3.3,9.28,-4.88,921.03,25.67,
2981174,0.0,-0.07,0.94,2.38,9.28,-4.88,921.03,25.69,
2981212,-0.0,-0.07,0.94,0.98,9.52,-4.88,921.04,25.69,
2981250,-0.01,-0.05,0.96,0.67,8.61,-4.52,921.01,25.69,
2981288,-0.01,-0.07,1.01,0.49,8.54,-4.46,921.02,25.68,
2981327,-0.01,-0.07,0.98,-0.24,7.14,-4.64,920.96,25.68,
2981365,-0.0,-0.06,1.05,-0.06,6.1,-4.52,920.92,25.69,
2981403,0.0,-0.07,1.01,-0.67,6.29,-4.46,921.0,25.69,
2981441,0.01,-0.08,1.04,-0.73,4.27,-4.46,920.9,25.68,
2981479,0.02,-0.07,1.01,-0.98,3.11,-4.52,920.94,25.69,
2981529,-0.04,-0.07,0.89,-0.67,3.17,-4.33,920.98,25.66,
2981568,0.0,-0.08,0.84,-0.85,2.26,-4.27,920.95,25.67,
2981606,0.01,-0.09,0.82,-0.06,1.89,-4.52,920.96,25.68,
2981644,0.02,-0.09,0.71,-0.37,2.14,-4.64,920.88,25.68,
2981682,0.01,-0.06,0.82,0.37,0.79,-4.76,920.88,25.67,
2981720,0.03,-0.1,0.74,0.06,2.44,-5.19,920.88,25.68,
2981759,0.03,-0.08,0.74,-0.43,2.5,-5.37,920.86,25.68,
2981797,-0.01,-0.07,0.79,-0.12,1.83,-5.19,920.82,25.66,
2981835,0.01,-0.09,0.78,-0.61,2.81,-5.37,920.76,25.67,
2981885,0.02,-0.07,0.82,-1.1,2.38,-5.86,920.81,25.67,
2981923,0.02,-0.08,0.89,-1.22,2.5,-5.68,920.77,25.67,
2981961,0.03,-0.08,0.86,-1.53,3.17,-5.92,920.8,25.67,
2981999,0.0,-0.05,0.94,-1.34,2.44,-6.16,920.81,25.68,
2982038,0.01,-0.08,0.96,-0.85,2.75,-6.16,920.8,25.68,
2982076,0.01,-0.09,0.92,-0.98,3.17,-6.23,920.81,25.68,
2982114,0.0,-0.07,0.93,-0.55,2.14,-6.59,920.79,25.7,
2982152,-0.01,-0.06,0.89,-1.1,3.36,-6.71,920.78,25.67,
2982190,0.02,-0.08,0.92,-0.98,2.93,-6.65,920.73,25.69,
2982229,-0.0,-0.09,0.93,-1.16,2.87,-6.71,920.74,25.68,
2982304,-0.0,-0.07,0.97,-1.1,3.05,-6.77,920.78,25.65,
2982343,0.0,-0.08,0.94,-1.04,3.48,-6.9,920.79,25.68,
2982381,0.01,-0.08,1.0,-0.31,3.17,-7.14,920.76,25.66,
2982471,0.01,-0.06,0.93,0.06,3.91,-7.2,920.78,25.63,
2982509,-0.01,-0.09,0.82,-0.73,5.62,-7.45,920.7,25.65,
2982547,-0.02,-0.07,0.86,-0.79,4.64,-7.45,920.71,25.65,
2982585,-0.0,-0.08,0.85,-1.34,5.98,-7.51,920.7,25.67,
2982623,-0.01,-0.07,0.85,-1.83,6.53,-7.63,920.71,25.67,
2982661,-0.01,-0.07,0.9,-1.83,6.65,-7.69,920.68,25.67,
2982711,-0.02,-0.07,0.89,-2.81,7.08,-7.57,920.64,25.66,
2982749,-0.04,-0.07,0.95,-3.11,7.26,-7.75,920.71,25.67,
2982788,-0.02,-0.06,0.99,-3.97,7.57,-7.57,920.7,25.67,
2982826,-0.03,-0.05,1.06,-4.39,7.51,-7.51,920.68,25.67,
2982864,-0.01,-0.06,1.07,-5.07,8.0,-7.57,920.69,25.69,
2982902,-0.02,-0.05,1.13,-5.19,7.2,-7.45,920.68,25.68,
2982940,-0.03,-0.05,1.15,-5.25,6.77,-7.26,920.68,25.68,
2982979,-0.01,-0.05,1.18,-4.64,5.98,-7.02,920.67,25.68,
2983017,-0.03,-0.05,1.2,-3.78,5.13,-7.14,920.7,25.68,
2983067,-0.02,-0.04,1.2,-2.14,4.76,-7.02,920.74,25.68,
2983105,-0.03,-0.06,1.16,-1.28,4.52,-6.96,920.73,25.68,
2983143,-0.02,-0.05,1.14,-0.55,3.97,-7.02,920.61,25.68,
2983181,-0.02,-0.05,1.11,0.06,4.27,-6.96,920.63,25.68,
2983220,-0.03,-0.06,1.05,0.06,4.39,-6.77,920.66,25.67,
2983258,-0.04,-0.06,1.01,-0.31,4.09,-6.71,920.65,25.68,
2983296,-0.03,-0.06,1.01,-0.61,4.03,-6.65,920.62,25.68,
2983334,-0.04,-0.06,0.98,-1.04,4.27,-6.77,920.6,25.68,
2983372,-0.03,-0.06,0.97,-1.28,4.09,-6.65,920.53,25.67,
2983411,-0.03,-0.06,0.94,-1.77,4.03,-6.65,920.55,25.68,
2983461,-0.05,-0.06,0.94,-2.08,3.17,-6.41,920.57,25.67,
2983499,-0.03,-0.06,0.91,-2.87,3.17,-6.41,920.54,25.68,
2983537,-0.04,-0.05,0.97,-3.3,2.08,-6.29,920.55,25.68,
2983575,-0.04,-0.07,0.96,-3.6,1.95,-6.04,920.56,25.68,
2983613,-0.06,-0.06,0.99,-4.09,0.73,-6.1,920.6,25.69,
2983651,-0.04,-0.06,1.01,-3.97,1.22,-5.92,920.5,25.68,
2983690,-0.03,-0.06,0.99,-4.46,1.46,-5.98,920.51,25.68,
2983728,-0.04,-0.05,1.04,-4.15,0.49,-5.8,920.56,25.69,
2983766,-0.05,-0.05,1.04,-4.46,0.67,-5.68,920.51,25.69,
2983816,-0.04,-0.04,1.1,-4.39,0.85,-5.86,920.57,25.67,
2983854,-0.03,-0.05,1.11,-4.46,1.16,-5.74,920.53,25.68,
2983892,-0.04,-0.04,1.11,-3.97,0.73,-5.62,920.57,25.68,
2983931,-0.03,-0.05,1.15,-3.42,1.22,-5.68,920.58,25.68,
2983969,-0.04,-0.05,1.09,-3.36,1.95,-5.49,920.62,25.68,
2984007,-0.04,-0.04,1.12,-2.32,1.53,-5.55,920.58,25.68,
2984045,-0.05,-0.05,1.07,-2.01,2.38,-5.43,920.59,25.69,
2984083,-0.04,-0.05,1.07,-1.34,2.5,-5.68,920.66,25.68,
2984121,-0.06,-0.05,1.06,-1.28,3.66,-5.31,920.63,25.68,
2984171,-0.04,-0.04,1.1,-0.85,3.17,-5.25,920.62,25.68,
2984210,-0.05,-0.04,1.1,-0.73,3.48,-5.31,920.59,25.68,
2984248,-0.04,-0.04,1.11,-0.37,3.3,-4.88,920.55,25.67,
2984286,-0.04,-0.05,1.11,-0.37,4.15,-4.7,920.6,25.69,
2984324,-0.04,-0.05,1.1,-0.24,3.72,-4.76,920.57,25.68,
2984362,-0.04,-0.05,1.09,0.31,4.09,-4.46,920.55,25.69,
2984400,-0.03,-0.05,1.04,0.0,4.33,-4.39,920.54,25.68,
2984439,-0.04,-0.04,1.04,0.43,3.97,-4.33,920.49,25.69,
2984477,-0.04,-0.05,1.02,0.37,4.15,-4.21,920.43,25.67,
2984515,-0.04,-0.05,1.03,0.55,3.78,-4.09,920.47,25.69,
2984565,-0.04,-0.05,1.02,0.12,3.48,-3.97,920.5,25.67,
2984603,-0.04,-0.06,1.0,0.0,2.93,-3.85,920.48,25.68,
2984641,-0.04,-0.05,1.0,-0.18,2.93,-3.91,920.5,25.68,
2984679,-0.02,-0.05,1.03,-0.24,2.93,-3.85,920.48,25.68,
2984717,-0.02,-0.06,1.01,-0.79,2.93,-3.6,920.49,25.69,
2984756,-0.03,-0.06,1.03,-0.85,2.32,-3.6,920.47,25.68,
2984794,-0.03,-0.05,1.05,-1.4,2.69,-3.54,920.45,25.68,
2984832,-0.02,-0.05,1.11,-1.34,1.71,-3.54,920.49,25.68,
2984870,-0.02,-0.05,1.12,-1.71,1.53,-3.42,920.57,25.69,
2984920,-0.03,-0.04,1.18,-1.28,1.53,-3.3,920.53,25.67,
2984958,-0.01,-0.04,1.16,-1.1,1.46,-3.23,920.54,25.68,
2984996,-0.02,-0.04,1.17,-0.49,0.67,-3.36,920.53,25.67,
2985035,-0.02,-0.05,1.14,-0.37,1.16,-3.23,920.55,25.68,
2985073,-0.02,-0.05,1.16,0.0,1.04,-3.48,920.53,25.68,
2985111,-0.0,-0.05,1.14,0.0,1.1,-3.48,920.52,25.67,
2985149,-0.01,-0.05,1.12,-0.12,1.16,-3.54,920.53,25.68,
2985187,-0.01,-0.05,1.12,0.06,1.53,-3.72,920.59,25.68,
2985225,-0.01,-0.05,1.1,-0.18,2.14,-3.6,920.5,25.69,
2985301,-0.02,-0.05,1.1,-0.73,2.44,-3.91,920.6,25.66,
2985340,-0.0,-0.05,1.1,-0.98,3.23,-4.09,920.6,25.66,
2985378,-0.01,-0.05,1.08,-1.4,2.99,-4.03,920.51,25.66,
2985467,-0.02,-0.05,1.08,-1.83,3.72,-4.15,920.61,25.63,
2985506,-0.02,-0.04,1.14,-1.65,4.09,-4.21,920.6,25.65,
2985544,-0.01,-0.05,1.12,-2.26,4.76,-4.39,920.61,25.65,
2985582,-0.02,-0.03,1.2,-1.89,4.21,-4.52,920.59,25.66,
2985620,-0.01,-0.05,1.19,-2.14,5.86,-4.52,920.6,25.66,
2985658,-0.01,-0.04,1.2,-2.14,6.04,-4.58,920.6,25.66,
2985697,0.0,-0.03,1.2,-2.14,6.84,-4.88,920.54,25.65,
2985746,-0.03,-0.04,1.15,-2.01,7.32,-4.76,920.57,25.65,
2985785,-0.01,-0.05,1.15,-2.2,8.06,-4.88,920.59,25.66,
2985823,-0.0,-0.04,1.18,-2.14,8.24,-5.13,920.6,25.66,
2985861,-0.01,-0.04,1.15,-2.2,9.09,-5.13,920.63,25.65,
2985899,0.0,-0.03,1.18,-2.08,8.36,-5.19,920.62,25.67,
2985937,-0.01,-0.03,1.17,-1.95,8.24,-5.19,920.58,25.67,
2985975,0.0,-0.04,1.18,-2.14,8.06,-5.25,920.55,25.66,
2986013,-0.0,-0.05,1.14,-2.26,7.26,-5.31,920.56,25.66,
2986052,0.01,-0.04,1.14,-2.2,6.04,-5.37,920.54,25.67,
2986101,0.01,-0.04,1.11,-2.38,5.8,-5.49,920.49,25.65,
2986140,0.0,-0.03,1.18,-2.44,4.7,-5.31,920.55,25.67,
2986178,-0.01,-0.04,1.16,-2.38,5.0,-5.55,920.51,25.66,
2986216,-0.02,-0.03,1.19,-2.26,3.97,-5.62,920.53,25.67,
2986254,-0.02,-0.04,1.25,-2.26,4.88,-5.68,920.5,25.67,
2986292,0.0,-0.04,1.25,-2.2,5.19,-5.74,920.57,25.68,
2986330,-0.02,-0.03,1.25,-1.89,4.27,-5.68,920.58,25.68,
2986368,-0.01,-0.03,1.25,-1.28,4.58,-5.74,920.58,25.68,
2986407,-0.01,-0.03,1.23,-1.1,4.76,-5.62,920.53,25.68,
2986456,-0.01,-0.02,1.26,-0.61,3.23,-5.62,920.6,25.67,
2986495,-0.03,-0.03,1.23,-0.67,2.81,-5.37,920.51,25.67,
2986533,-0.04,-0.0,1.21,-0.43,2.44,-5.43,920.58,25.68,
2986571,-0.01,-0.03,1.26,-0.31,1.83,-5.55,920.58,25.68,
2986609,-0.0,-0.04,1.18,-0.43,0.92,-5.43,920.54,25.65,
2986647,-0.03,-0.03,1.19,-0.31,0.43,-5.43,920.53,25.68,
2986685,0.01,-0.04,1.2,-0.24,1.16,-5.43,920.55,25.68,
2986724,-0.01,-0.04,1.2,-0.31,0.43,-5.49,920.54,25.68,
2986762,-0.03,-0.04,1.21,-0.49,-0.61,-5.37,920.58,25.69,
2986800,-0.05,-0.03,1.2,-0.67,-0.31,-5.25,920.57,25.69,
2986850,-0.01,-0.04,1.21,-0.79,-0.31,-5.37,920.53,25.68,
2986888,-0.02,-0.03,1.21,-1.1,-1.4,-5.25,920.53,25.67,
2986926,-0.05,-0.04,1.2,-1.22,-1.1,-4.94,920.59,25.69,
2986964,-0.03,-0.05,1.18,-1.22,-0.73,-5.07,920.6,25.68,
2987003,-0.0,-0.04,1.22,-1.16,0.31,-5.31,920.62,25.68,
2987041,-0.03,-0.04,1.18,-0.98,0.18,-5.31,920.61,25.67,
2987079,-0.05,-0.03,1.19,-0.67,0.73,-5.19,920.61,25.68,
2987117,-0.03,-0.04,1.19,-0.12,1.16,-5.31,920.6,25.69,
2987155,-0.05,-0.04,1.19,-0.24,1.4,-5.31,920.59,25.68,
2987205,-0.02,-0.05,1.17,-0.55,2.93,-4.94,920.57,25.68,
2987244,-0.04,-0.05,1.16,-0.43,2.99,-4.82,920.56,25.68,
2987282,-0.03,-0.05,1.06,-1.22,3.91,-4.82,920.54,25.67,
2987320,-0.04,-0.03,1.07,-0.92,4.39,-4.76,920.6,25.68,
2987358,-0.01,-0.07,1.03,-1.16,5.13,-4.7,920.59,25.69,
2987396,-0.02,-0.06,1.04,-0.73,3.72,-4.64,920.62,25.68,
2987435,-0.02,-0.07,1.0,-0.98,4.58,-4.52,920.65,25.67,
2987473,0.01,-0.06,1.0,-0.98,4.39,-4.76,920.65,25.68,
2987511,0.0,-0.06,1.04,-0.73,3.78,-4.76,920.62,25.68,
2987561,-0.02,-0.06,1.05,-0.85,3.48,-4.58,920.6,25.66,
2987599,-0.02,-0.07,1.04,-1.22,3.48,-4.7,920.56,25.67,
2987637,-0.0,-0.05,1.1,-1.28,2.87,-4.7,920.52,25.66,
2987675,-0.02,-0.06,1.07,-1.59,1.71,-4.64,920.58,25.67,
2987713,-0.02,-0.06,1.05,-1.53,0.43,-4.46,920.57,25.67,
2987752,-0.01,-0.06,1.03,-1.71,0.18,-4.64,920.54,25.66,
2987790,-0.01,-0.06,0.97,-1.71,-0.06,-4.52,920.58,25.67,
2987828,-0.02,-0.06,0.89,-1.53,-1.16,-4.33,920.54,25.67,
2987866,-0.03,-0.06,0.89,-1.4,-1.34,-4.39,920.61,25.67,
2987904,-0.03,-0.08,0.9,-1.53,-1.28,-4.58,920.59,25.67,
2987954,-0.01,-0.07,0.93,-1.4,-1.71,-4.52,920.56,25.65,
2987993,-0.04,-0.06,0.95,-1.28,-0.98,-4.64,920.57,25.65,
2988031,-0.03,-0.07,0.94,-1.53,-0.61,-4.64,920.61,25.66,
2988069,-0.01,-0.06,0.99,-1.53,-0.98,-4.7,920.61,25.66,
2988107,-0.03,-0.07,0.99,-1.65,-0.49,-4.33,920.69,25.66,
2988146,-0.04,-0.07,0.94,-1.53,0.0,-4.39,920.64,25.67,
2988184,-0.02,-0.06,0.93,-1.4,0.79,-4.7,920.61,25.67,
2988222,-0.02,-0.06,0.91,-1.4,1.95,-4.64,920.6,25.67,
2988260,-0.03,-0.07,0.88,-1.46,2.56,-4.58,920.68,25.67,
2988336,-0.01,-0.06,0.93,-1.59,4.82,-4.88,920.64,25.64,
2988374,-0.03,-0.07,0.94,-1.65,5.19,-4.76,920.65,25.64,
2988412,-0.03,-0.07,0.94,-1.59,5.62,-4.88,920.68,25.65,
2988503,-0.01,-0.06,0.96,-1.59,6.71,-4.88,920.71,25.62,
2988542,-0.02,-0.07,0.98,-1.59,5.92,-4.76,920.62,25.64,
2988580,-0.02,-0.07,0.95,-1.77,5.92,-4.46,920.71,25.63,
2988618,-0.01,-0.05,0.98,-1.65,4.33,-4.58,920.62,25.65,
2988656,-0.02,-0.05,0.95,-1.83,3.54,-4.46,920.62,25.65,
2988694,-0.02,-0.06,0.97,-1.83,2.5,-4.39,920.64,25.65,
2988744,-0.03,-0.06,1.01,-2.2,2.32,-4.39,920.59,25.65,
2988782,-0.01,-0.06,1.05,-2.14,1.53,-4.58,920.59,25.65,
2988820,-0.03,-0.06,1.07,-2.26,1.83,-4.46,920.58,25.65,
2988858,-0.03,-0.05,1.09,-2.14,2.08,-4.39,920.67,25.66,
2988897,-0.03,-0.06,1.09,-2.38,2.5,-4.46,920.69,25.65,
2988935,-0.03,-0.05,1.11,-2.01,2.44,-4.52,920.68,25.66,
2988973,-0.04,-0.05,1.14,-1.77,2.5,-4.33,920.69,25.66,
2989011,-0.02,-0.05,1.14,-1.89,2.81,-4.27,920.73,25.67,
2989049,-0.02,-0.04,1.16,-1.4,2.75,-4.33,920.76,25.66,
2989099,-0.03,-0.05,1.14,-1.22,3.36,-4.21,920.78,25.65,
2989137,-0.03,-0.05,1.14,-1.1,3.6,-4.27,920.73,25.66,
2989176,-0.02,-0.05,1.14,-0.98,3.72,-4.21,920.74,25.66,
2989214,-0.03,-0.04,1.14,-1.04,3.6,-4.27,920.81,25.68,
2989252,-0.02,-0.05,1.11,-1.04,4.15,-4.15,920.74,25.65,
2989290,-0.02,-0.05,1.13,-1.04,4.03,-4.15,920.69,25.66,
2989328,-0.02,-0.05,1.12,-1.04,4.21,-4.03,920.76,25.68,
2989366,-0.02,-0.05,1.11,-1.04,4.15,-4.21,920.79,25.66,
2989405,-0.03,-0.05,1.12,-1.04,4.33,-4.03,920.78,25.67,
2989443,-0.03,-0.06,1.11,-1.1,4.33,-4.09,920.77,25.68,
2989493,-0.02,-0.05,1.12,-0.92,3.97,-3.97,920.72,25.66,
2989531,-0.03,-0.05,1.1,-0.85,4.09,-4.03,920.83,25.67,
2989569,-0.02,-0.05,1.1,-1.1,4.27,-4.15,920.76,25.68,
2989607,-0.03,-0.05,1.08,-0.98,4.27,-3.97,920.76,25.68,
2989645,-0.01,-0.05,1.1,-1.04,4.03,-4.09,920.79,25.66,
2989684,-0.03,-0.05,1.11,-0.92,4.03,-4.03,920.81,25.68,
2989722,-0.02,-0.05,1.11,-0.73,4.21,-3.91,920.79,25.66,
2989760,-0.02,-0.06,1.1,-0.67,4.09,-3.97,920.77,25.67,
2989798,-0.02,-0.05,1.11,-0.67,4.33,-3.97,920.85,25.68,
2989848,-0.02,-0.05,1.08,-0.55,4.33,-3.97,920.86,25.67,
2989886,-0.02,-0.06,1.06,-0.55,4.58,-3.91,920.79,25.65,
2989924,-0.02,-0.06,1.05,-0.61,4.64,-3.72,920.86,25.67,
2989963,-0.02,-0.06,1.04,-0.49,4.7,-3.91,920.82,25.66,
2990001,-0.02,-0.03,1.02,-0.55,4.39,-3.78,920.86,25.67,
2990039,-0.02,-0.07,1.02,-0.31,4.88,-3.85,920.85,25.67,
2990077,-0.02,-0.06,1.03,-0.55,4.7,-3.78,920.81,25.67,
2990115,-0.02,-0.06,1.07,-0.18,4.21,-3.78,920.84,25.66,
2990153,-0.01,-0.05,1.03,-0.43,4.03,-3.78,920.82,25.66,
2990203,-0.01,-0.06,1.04,-0.49,3.54,-3.91,920.84,25.65,
2990241,-0.0,-0.06,1.02,-0.73,3.11,-3.91,920.9,25.66,
2990280,-0.02,-0.06,1.03,-0.49,2.26,-3.72,920.86,25.66,
2990318,-0.02,-0.06,1.02,-1.04,2.32,-3.66,920.86,25.65,
2990356,-0.02,-0.06,1.02,-1.1,2.2,-3.85,920.88,25.66,
2990394,-0.02,-0.06,1.0,-1.46,2.26,-3.66,920.86,25.67,
2990432,-0.01,-0.05,1.04,-1.28,1.89,-3.72,920.88,25.68,
2990471,-0.02,-0.07,1.04,-1.71,2.81,-3.78,920.8,25.66,
2990509,-0.02,-0.05,1.04,-1.83,2.5,-3.85,920.86,25.66,
2990547,-0.02,-0.07,1.06,-1.59,3.23,-3.78,920.89,25.66,
2990597,-0.01,-0.04,1.04,-1.77,2.75,-3.85,920.92,25.65,
2990635,-0.02,-0.06,1.04,-1.53,2.81,-3.85,920.94,25.67,
2990673,-0.0,-0.06,0.94,-1.77,3.42,-3.97,920.98,25.67,
2990711,-0.03,-0.05,1.05,-0.73,2.26,-3.97,920.87,25.66,
2990750,-0.0,-0.08,0.98,-1.4,3.85,-3.97,920.95,25.65,
2990788,-0.01,-0.05,1.03,-1.22,2.5,-4.09,920.88,25.66,
2990826,-0.02,-0.07,1.01,-1.16,3.91,-3.85,920.94,25.67,
2990864,-0.02,-0.06,1.0,-1.77,3.54,-3.97,920.87,25.66,
2990902,-0.01,-0.06,1.05,-0.92,1.83,-3.91,920.92,25.67,
2990952,0.0,-0.06,0.97,-1.1,1.46,-3.85,921.02,25.66,
2990990,-0.02,-0.06,1.01,-0.18,0.49,-4.03,920.96,25.68,
2991028,-0.03,-0.08,0.9,-0.43,0.73,-3.78,920.96,25.66,
2991067,-0.03,-0.06,0.91,-0.79,0.12,-4.15,920.96,25.66,
2991105,-0.01,-0.07,0.97,-0.37,0.98,-4.21,920.96,25.67,
2991143,-0.03,-0.07,0.93,-1.04,1.4,-4.09,920.95,25.67,
2991181,-0.02,-0.06,0.99,-0.67,1.46,-4.21,920.94,25.67,
2991219,-0.03,-0.07,0.95,-1.04,2.93,-4.21,921.0,25.67,
2991258,-0.04,-0.06,0.99,-0.61,2.44,-4.15,920.95,25.66,
2991334,-0.04,-0.06,1.01,-0.37,3.66,-4.03,921.03,25.65,
2991372,-0.04,-0.06,0.99,0.0,3.91,-3.97,921.02,25.67,
2991410,-0.03,-0.06,0.96,0.0,4.64,-3.91,921.05,25.66,
2991500,-0.02,-0.07,0.91,0.55,5.13,-3.78,921.03,25.63,
2991538,-0.03,-0.06,0.99,1.1,4.82,-3.78,921.1,25.65,
2991576,-0.02,-0.07,0.96,0.0,5.13,-3.66,921.08,25.65,
2991614,-0.03,-0.05,1.07,0.0,3.78,-3.6,921.07,25.66,
2991653,-0.02,-0.08,1.03,-0.73,5.37,-3.72,921.08,25.65,
2991691,-0.02,-0.06,1.11,-0.55,4.64,-3.72,921.09,25.66,
2991729,0.01,-0.06,1.09,-0.49,4.52,-3.6,921.12,25.66,
2991779,-0.02,-0.04,1.09,-0.43,3.66,-3.66,921.09,25.65,
2991817,-0.03,-0.06,1.08,-0.43,4.33,-3.3,921.16,25.67,
2991855,-0.02,-0.07,1.1,-0.37,3.36,-3.42,921.18,25.66,
2991893,-0.03,-0.06,1.11,-0.37,3.48,-3.36,921.17,25.66,
2991931,-0.02,-0.06,1.1,-0.43,3.23,-3.42,921.18,25.68,
2991970,-0.01,-0.05,1.14,-0.31,3.3,-3.42,921.18,25.67,
2992008,-0.01,-0.07,1.08,-0.79,3.54,-3.17,921.17,25.68,
2992046,-0.03,-0.06,1.1,-0.61,2.75,-3.36,921.18,25.67,
2992084,-0.04,-0.06,1.07,-0.92,3.11,-3.23,921.18,25.68,
2992134,-0.02,-0.05,1.1,-1.04,2.62,-3.23,921.19,25.67,
2992172,-0.02,-0.06,1.1,-1.22,2.87,-3.17,921.2,25.66,
2992210,-0.01,-0.06,1.09,-1.4,3.05,-3.23,921.23,25.66,
2992249,-0.02,-0.05,1.13,-1.34,3.11,-3.17,921.22,25.68,
2992287,-0.02,-0.06,1.12,-1.53,3.91,-3.3,921.18,25.66,
2992325,-0.02,-0.06,1.13,-1.53,3.66,-3.17,921.26,25.66,
2992363,-0.03,-0.06,1.11,-1.59,3.78,-3.17,921.32,25.67,
2992401,-0.02,-0.06,1.11,-1.46,3.6,-3.17,921.26,25.67,
2992440,-0.0,-0.06,1.11,-1.53,3.78,-3.23,921.23,25.68,
2992489,-0.01,-0.05,1.12,-1.28,3.23,-3.11,921.29,25.66,
2992528,-0.02,-0.06,1.12,-0.98,3.42,-2.99,921.28,25.66,
2992566,-0.01,-0.07,1.11,-1.28,3.6,-2.93,921.32,25.67,
2992604,-0.01,-0.05,1.15,-1.4,3.11,-3.11,921.27,25.66,
2992642,-0.01,-0.06,1.18,-1.59,3.36,-3.23,921.27,25.66,
2992681,0.0,-0.05,1.18,-1.95,3.48,-3.36,921.38,25.67,
2992719,-0.0,-0.05,1.21,-1.95,3.3,-3.36,921.41,25.68,
2992757,-0.01,-0.06,1.19,-2.32,2.99,-3.23,921.36,25.67,
2992795,-0.0,-0.06,1.17,-2.26,3.36,-3.48,921.33,25.67,
2992833,0.0,-0.05,1.2,-2.2,2.81,-3.48,921.35,25.67,
2992883,-0.01,-0.05,1.18,-1.89,2.08,-3.48,921.32,25.65,
2992922,-0.01,-0.05,1.17,-1.89,1.77,-3.54,921.34,25.66,
2992960,-0.0,-0.06,1.16,-2.26,2.56,-3.78,921.37,25.66,
2992998,-0.02,-0.05,1.19,-2.14,2.01,-3.72,921.34,25.66,
2993036,-0.01,-0.06,1.19,-2.08,1.46,-3.6,921.43,25.66,
2993074,-0.02,-0.06,1.16,-2.2,2.14,-3.91,921.36,25.65,
2993113,-0.01,-0.05,1.17,-2.2,2.93,-3.91,921.39,25.68,
2993151,0.0,-0.06,1.18,-2.14,2.99,-4.03,921.38,25.67,
2993189,-0.01,-0.05,1.19,-1.77,2.26,-4.15,921.42,25.66,
2993239,-0.02,-0.05,1.22,-1.22,3.36,-4.15,921.42,25.67,
2993277,-0.01,-0.06,1.22,-1.1,3.48,-4.15,921.41,25.65,
2993315,-0.0,-0.05,1.22,-0.79,3.48,-4.27,921.45,25.67,
2993354,-0.02,-0.06,1.16,-0.31,3.97,-4.27,921.48,25.67,
2993392,-0.02,-0.05,1.15,0.06,3.78,-4.27,921.47,25.67,
2993430,-0.01,-0.06,1.16,0.55,3.6,-4.33,921.51,25.66,
2993468,-0.01,-0.06,1.15,0.67,2.99,-4.46,921.5,25.67,
2993507,-0.02,-0.06,1.14,0.61,3.11,-4.52,921.48,25.65,
2993545,-0.01,-0.06,1.11,0.49,2.75,-4.64,921.42,25.65,
2993595,-0.01,-0.07,1.11,0.55,2.01,-4.46,921.48,25.65,
2993633,-0.02,-0.06,1.09,0.06,1.77,-4.39,921.49,25.66,
2993671,-0.02,-0.07,1.12,0.06,1.77,-4.46,921.52,25.67,
2993709,-0.01,-0.08,1.07,-0.31,1.95,-4.46,921.45,25.66,
2993748,-0.01,-0.06,1.1,-0.37,1.16,-4.64,921.49,25.67,
2993786,-0.01,-0.07,1.04,-0.73,1.83,-4.52,921.47,25.67,
2993824,-0.02,-0.07,1.03,-1.04,1.22,-4.52,921.49,25.67,
2993862,0.0,-0.06,1.07,-1.22,0.73,-4.58,921.52,25.66,
2993900,-0.0,-0.06,1.12,-1.71,-0.12,-4.58,921.52,25.68,
2993939,-0.02,-0.07,1.15,-2.01,-0.67,-4.52,921.51,25.68,
2993989,-0.0,-0.06,1.28,-2.01,-0.73,-4.7,921.53,25.66,
2994027,-0.01,-0.06,1.27,-2.5,-0.43,-4.82,921.5,25.67,
2994065,-0.01,-0.05,1.32,-2.38,-0.92,-4.94,921.53,25.66,
2994103,-0.01,-0.05,1.32,-2.62,-0.43,-5.0,921.54,25.68,
2994141,-0.01,-0.04,1.29,-2.75,-0.24,-5.19,921.58,25.69,
2994180,-0.01,-0.05,1.32,-2.26,0.31,-5.37,921.58,25.68,
2994218,-0.02,-0.05,1.28,-2.08,0.98,-5.49,921.54,25.67,
2994256,-0.01,-0.06,1.3,-1.59,1.28,-5.55,921.54,25.67,
2994294,-0.02,-0.07,1.25,-1.28,1.59,-5.68,921.55,25.67,
2994370,-0.03,-0.06,1.12,-0.67,0.92,-5.68,921.65,25.65,
2994409,-0.03,-0.06,1.09,-0.49,1.77,-5.8,921.65,25.66,
2994447,-0.02,-0.07,1.0,-0.67,2.01,-5.68,921.63,25.66,
2994537,-0.02,-0.07,0.95,-0.37,2.2,-5.8,921.6,25.63,
2994575,-0.05,-0.05,0.97,0.0,2.14,-5.68,921.62,25.64,
2994613,-0.03,-0.08,0.96,0.12,2.62,-5.31,921.61,25.66,
2994651,-0.04,-0.09,0.92,0.43,3.97,-5.68,921.61,25.66,
2994689,-0.03,-0.06,0.99,0.18,3.72,-5.62,921.55,25.65,
2994728,-0.04,-0.07,1.04,0.73,4.39,-5.31,921.64,25.66,
2994777,-0.04,-0.06,1.0,0.49,5.19,-5.37,921.62,25.65,
2994816,-0.03,-0.07,1.03,0.67,5.92,-5.43,921.6,25.65,
2994854,-0.05,-0.07,1.07,0.55,5.92,-5.0,921.61,25.67,
2994892,-0.03,-0.07,1.1,0.85,5.37,-4.76,921.56,25.65,
2994930,-0.03,-0.06,1.14,0.37,4.88,-4.76,921.61,25.65,
2994969,-0.04,-0.06,1.17,0.37,4.76,-4.58,921.65,25.67,
2995007,-0.02,-0.07,1.14,-0.73,5.13,-4.52,921.65,25.68,
2995045,-0.02,-0.05,1.22,-0.43,4.76,-4.76,921.56,25.67,
2995083,-0.05,-0.07,1.16,-1.1,5.68,-4.52,921.64,25.68,
2995121,-0.02,-0.06,1.2,-0.92,4.7,-4.52,921.61,25.67,
2995171,-0.03,-0.06,1.23,-1.16,4.64,-4.46,921.6,25.67,
2995210,-0.05,-0.06,1.23,-1.1,3.6,-4.27,921.59,25.66,
2995248,-0.04,-0.07,1.24,-1.22,3.97,-4.27,921.57,25.67,
2995286,-0.04,-0.06,1.27,-1.1,3.85,-4.21,921.66,25.68,
2995324,-0.04,-0.06,1.25,-1.16,3.91,-3.97,921.54,25.68,
2995362,-0.05,-0.04,1.3,-0.67,3.3,-3.97,921.57,25.67,
2995401,-0.03,-0.06,1.26,-0.61,4.76,-3.91,921.58,25.68,
2995439,-0.05,-0.05,1.29,-0.55,3.72,-3.72,921.61,25.68,
2995477,-0.05,-0.05,1.32,-0.12,4.09,-3.66,921.55,25.67,
2995527,-0.05,-0.05,1.32,0.0,4.52,-3.66,921.51,25.65,
2995565,-0.03,-0.05,1.34,0.0,5.13,-3.48,921.59,25.66,
2995603,-0.03,-0.06,1.26,0.18,4.09,-3.3,921.59,25.68,
2995641,-0.06,-0.06,1.27,0.31,3.3,-3.23,921.61,25.66,
2995680,-0.03,-0.06,1.19,0.0,3.78,-2.99,921.52,25.66,
2995718,-0.03,-0.06,1.2,0.12,2.81,-2.87,921.57,25.66,
2995756,-0.04,-0.06,1.18,-0.18,2.56,-2.69,921.51,25.65,
2995794,-0.04,-0.06,1.2,-0.24,2.01,-2.75,921.55,25.66,
2995832,-0.03,-0.06,1.24,-0.49,2.38,-2.87,921.56,25.66,
2995871,-0.01,-0.07,1.24,-0.67,1.89,-2.75,921.52,25.66,
2995921,-0.04,-0.07,1.2,-1.04,2.38,-2.62,921.61,25.66,
2995959,-0.03,-0.07,1.21,-0.79,2.01,-2.81,921.57,25.66,
2995997,-0.03,-0.07,1.16,-0.92,3.23,-2.87,921.57,25.66,
2996035,-0.01,-0.06,1.17,-0.79,2.75,-2.62,921.53,25.67,
2996073,-0.03,-0.07,1.2,-0.55,3.11,-2.81,921.56,25.66,
2996112,-0.04,-0.07,1.17,-0.61,3.48,-2.81,921.57,25.68,
2996150,-0.03,-0.08,1.21,-0.31,3.6,-2.93,921.57,25.68,
2996188,-0.03,-0.08,1.16,-1.04,4.88,-2.99,921.64,25.69,
2996226,-0.03,-0.07,1.15,-0.85,5.37,-3.05,921.54,25.67,
2996276,-0.03,-0.08,1.07,-1.16,6.47,-3.11,921.58,25.66,
2996314,-0.02,-0.06,1.14,-0.61,5.68,-3.17,921.53,25.68,
2996353,-0.02,-0.09,1.01,-1.1,7.75,-3.3,921.52,25.68,
2996391,-0.01,-0.08,1.04,-0.92,6.59,-3.36,921.55,25.68,
2996429,-0.02,-0.1,0.99,-1.4,5.43,-3.11,921.47,25.68,
2996467,-0.04,-0.07,0.95,-1.83,3.36,-3.23,921.47,25.68,
2996505,-0.04,-0.07,0.95,-1.53,3.42,-3.11,921.42,25.68,
2996544,-0.02,-0.09,0.88,-2.69,2.08,-3.23,921.43,25.68,
2996582,-0.04,-0.07,0.97,-2.26,-0.24,-3.11,921.4,25.66,
2996632,-0.04,-0.1,0.93,-2.62,0.37,-3.05,921.42,25.65,
2996670,-0.02,-0.07,1.02,-2.2,0.12,-3.23,921.47,25.66,
2996708,-0.05,-0.09,0.97,-2.26,1.59,-2.81,921.51,25.66,
2996746,-0.06,-0.08,0.98,-1.83,2.44,-3.05,921.54,25.66,
2996784,-0.02,-0.07,0.96,-1.65,3.17,-3.17,921.47,25.66,
2996823,-0.02,-0.08,0.95,-1.28,3.3,-2.87,921.49,25.65,
2996861,-0.04,-0.08,0.91,-1.22,3.17,-2.69,921.46,25.66,
2996899,-0.02,-0.08,0.97,-0.92,2.75,-2.99,921.56,25.67,
2996937,-0.01,-0.08,0.99,-0.55,2.44,-2.93,921.51,25.67,
2996987,-0.01,-0.08,0.96,-0.49,1.1,-2.99,921.49,25.66,
2997026,-0.02,-0.09,0.93,-0.55,1.34,-3.05,921.48,25.66,
2997064,-0.02,-0.08,0.88,-0.79,1.16,-2.81,921.48,25.66,
2997102,-0.02,-0.07,0.91,-0.55,0.43,-2.75,921.51,25.67,
2997140,-0.01,-0.08,0.9,-0.31,0.24,-3.11,921.47,25.67,
2997178,-0.02,-0.07,0.89,0.0,0.37,-3.11,921.48,25.66,
2997217,-0.02,-0.08,0.92,0.37,0.43,-3.23,921.5,25.67,
2997255,-0.01,-0.08,0.96,0.85,-0.18,-3.17,921.5,25.68,
2997293,-0.02,-0.07,0.96,0.92,-0.37,-3.3,921.49,25.67,
2997331,-0.03,-0.08,0.94,1.1,0.73,-3.3,921.48,25.67,
2997407,-0.02,-0.08,0.95,1.28,0.98,-3.17,921.53,25.63,
2997445,-0.03,-0.07,0.95,1.16,1.34,-3.42,921.51,25.64,
2997483,-0.01,-0.08,0.98,1.53,2.56,-3.3,921.47,25.65,
2997573,-0.03,-0.07,0.95,1.89,3.48,-3.54,921.56,25.61,
2997611,-0.01,-0.08,0.92,1.59,4.64,-3.36,921.56,25.63,
2997649,-0.02,-0.07,0.93,1.83,4.64,-3.6,921.51,25.62,
2997688,-0.03,-0.07,0.89,1.65,5.19,-3.48,921.46,25.63,
2997726,-0.02,-0.06,0.91,1.83,5.68,-3.42,921.51,25.63,
2997764,-0.01,-0.08,0.87,1.4,6.65,-3.42,921.52,25.65,
2997814,-0.02,-0.06,0.91,1.4,6.29,-3.48,921.48,25.63,
2997852,-0.03,-0.07,0.9,0.98,7.26,-3.36,921.53,25.65,
2997890,-0.02,-0.06,0.95,0.85,6.65,-3.3,921.37,25.64,
2997928,-0.02,-0.06,1.01,0.37,6.41,-2.93,921.45,25.65,
2997967,-0.01,-0.06,1.04,-0.18,6.04,-3.11,921.47,25.65,
2998005,-0.01,-0.06,1.09,-0.18,6.23,-2.93,921.51,25.65,
2998043,-0.01,-0.06,1.11,-0.43,6.04,-2.87,921.45,25.65,
2998081,-0.02,-0.06,1.14,-0.06,6.47,-2.81,921.54,25.65,
2998119,-0.02,-0.05,1.16,0.37,7.14,-2.87,921.52,25.63,
2998157,-0.0,-0.05,1.16,0.92,8.36,-2.93,921.51,25.65,
2998207,-0.0,-0.05,1.21,1.95,9.34,-2.93,921.5,25.64,
2998246,-0.02,-0.06,1.15,2.26,10.01,-2.75,921.52,25.66,
2998284,-0.02,-0.05,1.2,2.99,10.5,-2.75,921.58,25.66,
2998322,0.01,-0.05,1.19,3.17,11.29,-2.44,921.51,25.66,
2998360,0.01,-0.06,1.13,3.3,10.07,-2.32,921.52,25.66,
2998398,0.0,-0.06,1.1,3.48,8.79,-2.38,921.51,25.65,
2998436,0.02,-0.05,1.11,3.3,8.12,-2.5,921.54,25.66,
2998475,0.02,-0.06,1.06,2.93,6.16,-2.32,921.51,25.65,
2998513,0.02,-0.06,1.03,2.87,3.66,-2.38,921.54,25.67,
2998563,0.0,-0.08,0.92,2.14,2.81,-2.81,921.5,25.64,
2998601,0.02,-0.08,0.93,1.83,1.59,-3.11,921.56,25.66,
2998639,0.02,-0.07,0.82,1.1,1.34,-2.99,921.51,25.65,
2998677,0.0,-0.07,0.77,0.67,0.37,-3.54,921.55,25.67,
2998716,0.01,-0.08,0.76,0.49,0.92,-3.72,921.54,25.66,
2998754,-0.02,-0.08,0.79,-0.37,-0.12,-3.72,921.55,25.65,
2998792,-0.02,-0.07,0.83,-0.37,-0.43,-3.54,921.56,25.67,
2998830,-0.0,-0.07,0.82,-0.61,0.49,-4.09,921.48,25.66,
2998868,0.01,-0.07,0.89,-0.43,0.49,-4.15,921.57,25.66,
2998907,-0.0,-0.09,0.82,-0.92,1.22,-4.21,921.64,25.66,
2998957,-0.0,-0.07,0.86,-1.04,1.46,-4.27,921.56,25.65,
2998995,-0.01,-0.08,0.79,-1.83,3.05,-4.21,921.58,25.66,
2999033,-0.01,-0.06,0.85,-1.95,2.2,-4.46,921.58,25.66,
2999071,-0.01,-0.08,0.87,-2.01,3.17,-4.52,921.54,25.66,
2999109,-0.0,-0.08,0.88,-2.5,3.91,-4.7,921.6,25.67,
2999148,0.01,-0.06,0.97,-2.38,3.97,-4.7,921.6,25.66,
2999186,-0.0,-0.07,0.98,-2.81,4.76,-4.76,921.59,25.66,
2999224,-0.02,-0.07,1.03,-2.69,5.13,-4.88,921.63,25.66,
2999262,-0.01,-0.07,1.04,-2.87,5.92,-4.94,921.6,25.66,
2999312,-0.02,-0.06,1.09,-2.56,5.74,-4.88,921.64,25.66,
2999350,-0.01,-0.06,1.08,-3.17,6.41,-5.07,921.6,25.66,
2999389,-0.0,-0.05,1.12,-2.87,6.77,-5.19,921.62,25.66,
2999427,-0.01,-0.07,1.09,-3.11,7.51,-5.07,921.63,25.67,
2999465,-0.01,-0.05,1.16,-2.75,6.9,-5.19,921.72,25.67,
2999503,-0.0,-0.06,1.13,-2.81,8.18,-5.13,921.61,25.67,
2999541,-0.01,-0.05,1.19,-2.69,8.12,-5.19,921.63,25.66,
2999580,-0.02,-0.04,1.23,-2.44,8.0,-5.0,921.65,25.65,
2999618,0.01,-0.05,1.24,-2.62,8.24,-5.25,921.67,25.67,
2999668,0.0,-0.04,1.26,-2.87,8.42,-5.07,921.64,25.65,
2999706,0.0,-0.04,1.29,-2.56,8.24,-5.19,921.65,25.66,
2999744,0.01,-0.04,1.3,-2.69,7.93,-5.0,921.69,25.66,
2999782,0.01,-0.03,1.33,-2.38,7.45,-5.37,921.69,25.66,
2999821,0.0,-0.03,1.34,-2.2,7.26,-5.31,921.67,25.67,
2999859,-0.01,-0.03,1.38,-2.2,6.59,-5.37,921.69,25.68,
2999897,0.01,-0.02,1.37,-2.14,6.96,-5.49,921.65,25.66,
2999935,-0.01,-0.02,1.42,-1.65,6.96,-5.55,921.71,25.68,
2999974,0.01,-0.03,1.42,-1.28,8.12,-5.62,921.67,25.67,
3000012,-0.0,-0.02,1.42,-0.79,8.3,-5.49,921.68,25.68,
3000062,-0.0,-0.02,1.41,-0.49,8.79,-5.68,921.66,25.66,
3000100,0.01,-0.02,1.36,-0.55,9.22,-5.74,921.61,25.65,
3000138,0.02,-0.02,1.38,-0.06,8.36,-5.74,921.67,25.66,
3000176,0.02,-0.03,1.31,-0.18,7.75,-5.8,921.67,25.66,
3000214,0.01,-0.02,1.33,0.12,6.41,-5.74,921.67,25.66,
3000253,0.02,-0.04,1.3,0.12,6.16,-5.92,921.69,25.66,
3000291,0.01,-0.04,1.31,0.43,4.52,-6.16,921.7,25.65,
3000329,-0.0,-0.05,1.24,0.43,4.09,-6.1,921.73,25.67,
3000367,0.01,-0.05,1.15,0.55,3.54,-6.16,921.71,25.66,
3000443,-0.01,-0.06,1.03,0.06,2.81,-6.29,921.69,25.63,
3000481,0.0,-0.07,1.04,-0.12,2.44,-6.59,921.67,25.64,
3000520,-0.0,-0.06,1.03,-0.12,2.69,-6.84,921.66,25.64,
3000609,0.01,-0.06,1.05,-0.79,3.48,-7.14,921.63,25.6,
3000647,-0.0,-0.06,1.08,-1.1,3.11,-7.14,921.66,25.63,
3000686,-0.0,-0.06,1.07,-1.83,3.78,-7.39,921.69,25.64,
3000724,-0.0,-0.06,1.11,-2.32,3.72,-7.57,921.71,25.66,
3000762,-0.0,-0.06,1.12,-2.44,3.6,-7.39,921.68,25.65,
3000800,-0.01,-0.05,1.1,-2.99,3.23,-7.69,921.74,25.65,
3000839,-0.02,-0.06,1.11,-2.99,3.78,-7.81,921.69,25.65,
3000888,0.0,-0.05,1.11,-3.23,3.91,-7.93,921.66,25.65,
3000927,-0.01,-0.06,1.11,-2.99,4.09,-7.87,921.73,25.65,
3000965,-0.02,-0.06,1.12,-2.99,3.91,-8.06,921.68,25.66,
3001003,-0.03,-0.06,1.14,-2.99,4.09,-8.18,921.72,25.67,
3001041,-0.02,-0.07,1.14,-3.3,4.64,-8.24,921.68,25.65,
3001080,-0.02,-0.05,1.16,-3.23,3.91,-8.42,921.69,25.66,
3001118,-0.04,-0.05,1.19,-3.48,4.21,-8.24,921.7,25.66,
3001156,-0.03,-0.05,1.19,-3.54,4.27,-8.0,921.64,25.66,
3001194,-0.02,-0.05,1.2,-3.66,3.66,-7.75,921.66,25.67,
3001244,-0.04,-0.06,1.2,-3.91,3.66,-7.87,921.67,25.66,
3001283,-0.04,-0.05,1.17,-4.03,4.03,-7.75,921.72,25.65,
3001321,-0.03,-0.04,1.21,-4.09,3.48,-7.51,921.65,25.66,
3001359,-0.03,-0.05,1.2,-4.15,3.66,-7.45,921.68,25.67,
3001397,-0.05,-0.05,1.17,-4.09,3.17,-7.51,921.68,25.66,
3001435,-0.03,-0.05,1.2,-3.72,3.05,-7.2,921.7,25.68,
3001474,-0.03,-0.06,1.13,-3.97,2.62,-7.08,921.64,25.67,
3001512,-0.04,-0.04,1.17,-3.72,1.1,-6.9,921.7,25.68,
3001550,-0.04,-0.06,1.14,-3.78,1.83,-6.9,921.67,25.66,
3001600,-0.05,-0.04,1.22,-3.42,1.65,-6.65,921.64,25.66,
3001638,-0.04,-0.05,1.25,-3.54,2.26,-6.47,921.7,25.67,
3001676,-0.05,-0.04,1.25,-3.48,2.2,-6.47,921.72,25.68,
3001715,-0.06,-0.03,1.3,-3.05,3.3,-6.47,921.75,25.67,
3001753,-0.05,-0.05,1.26,-2.87,4.76,-6.23,921.69,25.67,
3001791,-0.04,-0.03,1.32,-2.14,4.52,-6.04,921.76,25.66,
3001829,-0.05,-0.05,1.24,-2.08,5.43,-5.92,921.72,25.67,
3001867,-0.04,-0.04,1.23,-1.77,5.31,-5.86,921.67,25.67,
3001905,-0.04,-0.05,1.22,-1.53,5.62,-5.74,921.68,25.67,
3001944,-0.04,-0.05,1.2,-1.46,5.07,-5.55,921.71,25.65,
3001994,-0.05,-0.04,1.24,-1.22,5.0,-5.31,921.7,25.67,
3002032,-0.05,-0.04,1.27,-1.22,4.33,-5.19,921.61,25.66,
3002070,-0.04,-0.04,1.28,-1.46,5.49,-5.25,921.73,25.66,
3002108,-0.03,-0.05,1.28,-1.28,6.77,-5.13,921.7,25.66,
3002146,-0.02,-0.06,1.27,-1.34,7.39,-5.13,921.69,25.66,
3002185,-0.03,-0.04,1.24,-1.53,7.69,-5.13,921.71,25.66,
3002223,-0.01,-0.03,1.19,-1.89,7.69,-5.07,921.73,25.66,
3002261,-0.02,-0.04,1.18,-2.01,8.12,-5.07,921.74,25.68,
3002299,-0.03,-0.03,1.29,-1.83,6.1,-4.94,921.59,25.66,
3002349,-0.01,-0.04,1.29,-3.17,6.53,-4.7,921.64,25.65,
3002387,0.01,-0.01,1.38,-3.66,3.78,-5.0,921.58,25.66,
3002425,0.01,-0.02,1.39,-4.27,3.17,-4.7,921.61,25.66,
3002464,-0.01,-0.04,1.35,-4.88,2.14,-4.58,921.66,25.66,
3002502,0.02,-0.03,1.4,-4.88,0.98,-4.88,921.64,25.66,
3002540,0.0,-0.04,1.35,-5.0,0.49,-4.88,921.59,25.65,
3002578,-0.01,-0.02,1.35,-4.64,-1.22,-5.0,921.59,25.66,
3002616,-0.0,-0.02,1.35,-3.85,-1.4,-5.07,921.65,25.66,
3002655,0.01,-0.04,1.33,-3.48,-2.2,-5.37,921.67,25.65,
3002705,-0.02,-0.05,1.29,-2.44,-2.26,-5.37,921.63,25.65,
3002743,-0.03,-0.04,1.23,-1.95,-1.95,-5.68,921.63,25.65,
3002781,-0.02,-0.04,1.2,-1.28,-0.67,-5.86,921.64,25.65,
3002819,0.02,-0.05,1.19,-0.85,-1.04,-6.04,921.69,25.65,
3002857,-0.01,-0.06,1.12,-0.24,-1.16,-5.98,921.66,25.65,
3002896,-0.03,-0.06,1.05,0.24,-0.79,-6.16,921.71,25.66,
3002934,-0.01,-0.05,1.01,0.67,-0.61,-6.16,921.69,25.67,
3002972,-0.01,-0.05,0.98,0.55,-0.98,-6.16,921.66,25.66,
3003010,-0.03,-0.06,0.98,0.67,-0.55,-6.16,921.64,25.67,
3003048,-0.04,-0.07,1.0,0.73,0.06,-6.16,921.66,25.65,
3003098,-0.02,-0.06,1.01,0.37,0.12,-6.29,921.65,25.66,
3003137,-0.03,-0.05,1.02,0.43,-0.18,-6.23,921.63,25.65,
3003175,-0.03,-0.08,1.0,0.43,1.22,-6.16,921.64,25.64,
3003213,-0.03,-0.07,0.95,0.37,1.4,-6.1,921.62,25.65,
3003251,-0.03,-0.05,0.91,0.73,0.98,-6.1,921.67,25.66,
3003289,-0.03,-0.06,0.85,0.61,1.22,-6.1,921.64,25.66,
3003327,-0.03,-0.06,0.85,1.16,1.34,-6.41,921.56,25.66,
3003366,-0.05,-0.07,0.82,1.46,1.28,-5.98,921.62,25.66,
3003404,-0.04,-0.08,0.77,1.4,1.77,-6.1,921.6,25.65,
3003480,-0.06,-0.06,0.71,1.4,3.05,-5.8,921.62,25.63,
3003518,-0.05,-0.07,0.7,1.46,2.99,-5.68,921.56,25.64,
3003556,-0.05,-0.07,0.71,0.92,4.33,-5.74,921.59,25.65,
3003646,-0.05,-0.07,0.79,-0.37,5.31,-5.31,921.57,25.62,
3003684,-0.03,-0.07,0.85,-0.85,6.16,-5.43,921.6,25.63,
3003722,-0.04,-0.07,0.91,-1.1,7.08,-5.25,921.58,25.64,
3003760,-0.03,-0.06,0.95,-0.98,7.26,-4.94,921.62,25.65,
3003799,-0.03,-0.06,0.95,-0.98,7.39,-5.07,921.61,25.65,
3003837,-0.03,-0.05,0.97,-1.1,7.63,-5.0,921.59,25.66,
3003887,-0.02,-0.07,0.97,-0.92,6.84,-4.82,921.63,25.65,
3003925,-0.04,-0.07,0.98,-1.1,6.04,-4.64,921.57,25.66,
3003963,-0.02,-0.07,0.98,-1.28,6.16,-4.46,921.55,25.65,
3004001,-0.03,-0.06,0.97,-1.65,5.68,-4.39,921.57,25.65,
3004039,-0.01,-0.06,1.01,-1.89,4.94,-4.52,921.54,25.66,
3004078,-0.03,-0.06,1.08,-2.2,5.62,-4.46,921.52,25.66,
3004116,-0.0,-0.07,1.13,-3.05,5.55,-4.39,921.52,25.65,
3004154,-0.01,-0.06,1.2,-3.05,4.82,-4.58,921.52,25.67,
3004192,-0.03,-0.04,1.22,-3.48,4.21,-4.46,921.51,25.67,
3004230,-0.0,-0.05,1.31,-3.17,3.05,-4.52,921.55,25.66,
3004280,-0.03,-0.05,1.28,-3.66,2.81,-4.58,921.5,25.65,
3004318,-0.02,-0.05,1.34,-3.17,2.01,-4.52,921.55,25.67,
3004357,-0.01,-0.07,1.24,-3.6,2.99,-4.7,921.5,25.66,
3004395,-0.01,-0.05,1.22,-3.11,0.55,-4.88,921.55,25.66,
3004433,-0.04,-0.06,1.18,-3.17,0.61,-4.58,921.55,25.67,
3004471,-0.04,-0.06,1.1,-3.36,-0.49,-4.82,921.53,25.66,
3004509,-0.04,-0.05,1.19,-2.69,-0.61,-5.0,921.51,25.66,
3004548,-0.04,-0.06,1.15,-3.17,0.0,-4.64,921.54,25.67,
3004586,-0.04,-0.06,1.22,-2.5,-0.92,-4.76,921.57,25.66,
3004636,-0.05,-0.06,1.22,-2.93,0.37,-4.46,921.57,25.66,
3004674,-0.04,-0.06,1.21,-3.05,1.04,-4.58,921.58,25.66,
3004712,-0.04,-0.04,1.23,-3.11,1.95,-4.52,921.6,25.66,
3004750,-0.05,-0.04,1.22,-3.17,2.87,-4.52,921.62,25.66,
3004789,-0.02,-0.04,1.23,-3.66,4.03,-4.64,921.56,25.66,
3004827,-0.04,-0.04,1.31,-3.3,4.39,-4.58,921.61,25.68,
3004865,-0.0,-0.04,1.35,-3.48,4.52,-4.52,921.57,25.67,
3004903,-0.03,-0.05,1.36,-3.36,4.27,-4.39,921.57,25.67,
3004941,-0.03,-0.04,1.36,-3.42,4.52,-4.39,921.59,25.66,
3004991,-0.02,-0.04,1.39,-2.93,4.52,-4.64,921.53,25.65,
3005029,-0.04,-0.04,1.36,-2.93,4.64,-4.52,921.56,25.66,
3005068,-0.02,-0.03,1.36,-2.69,4.94,-4.76,921.55,25.67,
3005106,-0.03,-0.04,1.35,-2.44,6.35,-4.82,921.54,25.66,
3005144,-0.04,-0.04,1.36,-1.71,6.29,-4.7,921.61,25.66,
3005182,-0.04,-0.05,1.34,-1.34,7.08,-4.88,921.57,25.66,
3005221,-0.05,-0.04,1.29,-0.85,7.51,-4.64,921.55,25.67,
3005259,-0.04,-0.05,1.26,-0.55,7.57,-4.58,921.65,25.66,
3005297,-0.04,-0.05,1.19,-0.12,7.14,-4.58,921.58,25.66,
3005335,-0.04,-0.05,1.15,0.18,6.29,-4.39,921.51,25.66,
3005385,-0.05,-0.06,1.07,0.18,6.59,-4.21,921.58,25.65,
3005423,-0.04,-0.06,1.08,0.12,5.74,-4.15,921.57,25.67,
3005462,-0.05,-0.07,1.05,-0.18,5.8,-4.03,921.53,25.66,
3005500,-0.05,-0.07,1.02,-0.55,5.13,-3.97,921.53,25.65,
3005538,-0.03,-0.07,1.02,-1.1,5.07,-3.97,921.52,25.66,
3005576,-0.02,-0.06,1.02,-1.71,3.97,-3.91,921.55,25.65,
3005614,-0.04,-0.05,1.05,-2.2,3.78,-3.78,921.42,25.66,
3005653,-0.03,-0.06,1.06,-2.81,3.6,-3.72,921.54,25.66,
3005691,-0.03,-0.05,1.11,-2.69,3.05,-3.78,921.52,25.66,
3005741,-0.03,-0.05,1.14,-3.17,2.01,-3.78,921.47,25.63,
3005779,-0.05,-0.05,1.14,-3.66,2.14,-3.54,921.43,25.65,
3005817,-0.03,-0.04,1.19,-3.54,0.85,-3.66,921.44,25.64,
3005855,-0.03,-0.05,1.16,-3.42,0.79,-3.42,921.52,25.65,
3005894,-0.04,-0.06,1.13,-3.42,0.85,-3.36,921.52,25.65,
3005932,-0.02,-0.05,1.13,-2.87,1.71,-3.36,921.5,25.66,
3005970,-0.02,-0.05,1.11,-2.56,0.92,-3.36,921.53,25.64,
3006008,-0.02,-0.05,1.12,-1.83,0.0,-3.23,921.52,25.64,
3006047,-0.04,-0.05,1.11,-1.77,0.55,-3.23,921.48,25.64,
3006096,-0.03,-0.05,1.14,-1.71,0.37,-3.3,921.45,25.64,
3006135,-0.02,-0.06,1.15,-1.59,0.49,-3.42,921.46,25.65,
3006173,-0.02,-0.06,1.13,-1.77,0.55,-3.48,921.45,25.65,
3006211,-0.03,-0.04,1.17,-1.71,1.22,-3.6,921.49,25.66,
3006249,-0.02,-0.04,1.12,-1.95,1.83,-3.85,921.48,25.65,
3006288,-0.03,-0.06,1.18,-1.16,1.59,-3.72,921.48,25.64,
3006326,-0.02,-0.07,1.1,-1.71,3.11,-3.85,921.48,25.66,
3006364,-0.02,-0.03,1.19,-1.1,2.44,-4.09,921.44,25.65,
3006402,-0.03,-0.05,1.12,-1.53,4.21,-4.15,921.42,25.65,
3006440,-0.04,-0.05,1.14,-1.16,3.05,-4.09,921.43,25.66,
3006516,-0.02,-0.04,1.11,-1.65,5.13,-4.52,921.47,25.63,
3006554,-0.03,-0.03,1.17,-1.4,4.58,-4.39,921.46,25.64,
3006592,-0.02,-0.04,1.11,-2.26,5.62,-4.46,921.38,25.63,
3006682,-0.03,-0.05,1.15,-2.93,4.09,-4.39,921.36,25.61,
3006720,-0.01,-0.04,1.17,-2.56,2.81,-4.46,921.4,25.62,
3006759,-0.01,-0.05,1.12,-2.75,3.54,-4.58,921.35,25.63,
3006797,-0.01,-0.05,1.08,-2.2,1.89,-4.46,921.39,25.64,
3006835,-0.01,-0.05,1.02,-2.62,1.16,-4.52,921.34,25.63,
3006873,-0.03,-0.05,1.01,-2.26,1.1,-4.7,921.41,25.63,
3006923,-0.01,-0.05,0.98,-2.08,1.46,-4.94,921.4,25.62,
3006961,-0.02,-0.05,1.0,-1.34,0.55,-5.07,921.29,25.61,
3007000,-0.02,-0.06,0.94,-1.22,0.92,-5.43,921.43,25.64,
3007038,-0.03,-0.05,0.97,-0.79,0.55,-5.07,921.43,25.65,
3007076,-0.0,-0.06,0.97,-1.04,1.28,-5.25,921.37,25.64,
3007114,-0.01,-0.05,0.94,-0.67,1.59,-5.68,921.35,25.64,
3007152,-0.04,-0.05,0.96,-0.24,1.65,-5.49,921.34,25.64,
3007191,-0.02,-0.06,0.95,-0.49,2.01,-5.55,921.38,25.65,
3007229,-0.02,-0.05,0.95,-0.43,2.32,-5.55,921.38,25.65,
3007279,-0.02,-0.05,0.91,-0.43,2.56,-5.68,921.38,25.64,
3007317,-0.04,-0.05,0.95,0.24,2.44,-5.74,921.33,25.64,
3007355,-0.03,-0.06,0.93,0.37,2.93,-5.62,921.38,25.65,
3007393,-0.04,-0.05,0.96,0.79,2.44,-5.68,921.33,25.65,
3007432,-0.04,-0.05,0.96,0.98,2.75,-5.8,921.32,25.65,
3007470,-0.04,-0.05,0.97,1.34,2.62,-5.92,921.33,25.65,
3007508,-0.05,-0.05,0.97,1.77,3.78,-6.04,921.33,25.65,
3007546,-0.03,-0.05,0.98,2.38,3.91,-5.86,921.39,25.66,
3007585,-0.04,-0.05,0.94,2.99,3.72,-6.04,921.37,25.64,
3007623,-0.05,-0.05,0.86,3.3,3.85,-5.86,921.33,25.66,
3007673,-0.04,-0.05,0.89,3.6,3.91,-5.8,921.34,25.65,
3007711,-0.04,-0.05,0.88,3.23,4.09,-5.8,921.3,25.65,
3007749,-0.05,-0.05,0.9,3.17,3.66,-5.74,921.32,25.64,
3007787,-0.07,-0.06,0.91,2.62,4.03,-5.49,921.26,25.65,
3007826,-0.05,-0.06,0.93,2.32,3.91,-5.25,921.32,25.65,
3007864,-0.04,-0.05,0.9,1.83,3.36,-5.13,921.28,25.65,
3007902,-0.07,-0.05,0.89,1.95,2.5,-4.82,921.24,25.65,
3007940,-0.06,-0.07,0.82,1.53,2.32,-4.7,921.26,25.65,
3007979,-0.04,-0.06,0.81,0.67,1.71,-4.7,921.32,25.66,
3008029,-0.04,-0.06,0.83,0.67,0.79,-4.39,921.29,25.63,
3008067,-0.06,-0.07,0.78,-0.06,0.73,-4.46,921.35,25.65,
3008105,-0.06,-0.06,0.84,-0.18,0.92,-4.21,921.37,25.64,
3008143,-0.03,-0.06,0.84,-0.37,0.18,-4.21,921.38,25.65,
3008181,-0.06,-0.07,0.83,-0.06,-0.61,-3.97,921.37,25.65,
3008220,-0.05,-0.07,0.82,0.12,0.12,-3.97,921.41,25.65,
3008258,-0.05,-0.06,0.81,-0.12,0.31,-3.97,921.4,25.65,
3008296,-0.05,-0.07,0.79,0.12,0.12,-3.66,921.37,25.65,
3008334,-0.02,-0.06,0.76,-0.43,0.37,-3.85,921.39,25.64,
3008384,-0.02,-0.06,0.81,-0.43,0.43,-3.97,921.43,25.63,
3008422,-0.02,-0.07,0.82,-1.1,0.49,-3.85,921.37,25.64,
3008460,-0.02,-0.06,0.9,-1.04,-0.12,-3.85,921.45,25.65,
3008499,-0.02,-0.07,0.91,-1.53,0.85,-3.97,921.46,25.64,
3008537,-0.03,-0.06,0.96,-1.46,0.24,-3.85,921.48,25.64,
3008575,-0.02,-0.08,0.92,-1.46,1.95,-3.97,921.49,25.64,
3008613,0.01,-0.06,0.91,-1.77,2.56,-4.15,921.52,25.65,
3008652,-0.01,-0.06,0.9,-1.22,3.05,-4.15,921.54,25.64,
3008690,-0.0,-0.07,0.9,-1.28,3.05,-4.09,921.57,25.65,
3008728,-0.01,-0.06,0.92,-1.16,2.81,-4.46,921.61,25.65,
3008778,0.01,-0.06,0.96,-1.04,3.11,-4.58,921.58,25.64,
3008816,0.01,-0.07,0.96,-0.67,2.75,-4.7,921.62,25.64,
3008854,-0.01,-0.06,0.93,-1.22,2.5,-4.64,921.65,25.64,
3008892,0.03,-0.06,1.01,-1.16,1.89,-4.82,921.65,25.65,
3008931,-0.01,-0.07,0.94,-1.83,2.38,-5.25,921.69,25.63,
3008969,0.0,-0.06,1.03,-0.98,1.46,-5.25,921.69,25.64,
3009007,0.01,-0.08,0.98,-1.46,2.32,-5.37,921.7,25.64,
3009045,-0.0,-0.04,1.12,-0.67,0.24,-5.49,921.68,25.63,
3009083,0.0,-0.06,1.13,-0.55,1.16,-5.74,921.68,25.64,
3009133,-0.01,-0.06,1.07,-0.24,1.04,-5.8,921.72,25.63,
3009171,-0.01,-0.04,1.05,-0.37,1.77,-5.86,921.77,25.64,
3009210,-0.0,-0.06,1.04,0.0,3.11,-5.92,921.74,25.65,
3009248,-0.0,-0.03,1.07,-0.37,1.16,-5.92,921.67,25.65,
3009286,-0.02,-0.04,1.17,0.18,1.65,-6.29,921.68,25.65,
3009324,-0.06,-0.05,1.19,-0.79,1.95,-6.16,921.68,25.64,
3009362,0.03,-0.01,1.47,-0.55,-1.22,-6.35,921.66,25.64,
3009401,0.02,0.01,1.58,-1.53,-2.08,-6.1,921.7,25.63,
3009439,-0.03,0.04,1.69,-1.28,-3.66,-5.98,921.75,25.64,
3009477,-0.03,0.0,1.72,-1.28,-0.67,-6.04,921.66,25.64,
3009554,-0.0,0.01,1.7,-1.53,-0.67,-6.35,921.71,25.61,
3009592,-0.03,0.01,1.49,-1.59,0.55,-6.9,921.75,25.63,
3009631,-0.04,0.02,1.55,-0.92,0.98,-7.02,921.73,25.63,
3009720,-0.06,-0.03,1.41,0.55,2.01,-6.9,921.81,25.6,
3009759,-0.06,-0.04,1.34,1.53,4.58,-6.71,921.84,25.61,
3009797,-0.05,-0.05,1.26,2.75,4.94,-7.08,921.8,25.62,
3009835,-0.04,-0.03,1.23,3.23,4.58,-6.84,921.83,25.63,
3009873,-0.02,-0.04,1.21,3.72,4.52,-6.59,921.79,25.62,
3009911,-0.02,-0.03,1.24,3.97,3.97,-6.77,921.82,25.63,
3009961,-0.06,-0.03,1.35,4.03,2.14,-6.16,921.76,25.61,
3009999,-0.07,-0.07,1.34,4.09,1.71,-6.16,921.69,25.63,
3010038,-0.07,-0.04,1.31,3.42,0.73,-6.16,921.7,25.62,
3010076,-0.03,-0.04,1.29,3.42,0.31,-5.98,921.66,25.63,
3010114,-0.04,-0.07,1.06,2.5,0.49,-6.04,921.75,25.63,
3010152,-0.07,-0.04,1.06,3.42,-2.38,-5.8,921.65,25.63,
3010190,-0.06,-0.04,1.13,3.48,-2.87,-5.55,921.7,25.63,
3010229,-0.07,-0.08,1.1,2.93,-2.56,-5.25,921.67,25.65,
3010267,-0.1,-0.05,1.03,2.56,-1.83,-5.31,921.69,25.63,
3010317,-0.15,-0.04,1.19,2.62,-0.55,-5.19,921.69,25.63,
3010355,-0.09,-0.1,1.05,1.4,4.58,-5.07,921.75,25.63,
3010393,-0.04,-0.06,1.07,0.18,3.6,-5.19,921.78,25.63,
3010431,-0.1,-0.08,0.98,0.92,7.63,-4.52,921.78,25.64,
3010470,-0.08,-0.07,0.77,-1.77,8.61,-4.27,921.81,25.64,
3010508,-0.07,-0.02,0.97,-0.31,3.11,-3.85,921.75,25.64,
3010546,-0.05,-0.1,0.76,-1.46,4.03,-3.78,921.68,25.63,
3010584,-0.07,-0.06,0.97,-2.75,-0.06,-3.42,921.7,25.65,
3010622,-0.05,-0.11,0.94,-2.44,-0.92,-3.11,921.67,25.65,
3010661,-0.06,-0.06,0.93,-5.74,-2.99,-3.11,921.67,25.64,
3010711,-0.06,-0.07,0.99,-5.92,-3.05,-2.5,921.67,25.63,
3010749,-0.09,-0.08,0.97,-7.02,-3.72,-2.69,921.64,25.64,
3010787,-0.09,-0.07,1.04,-6.9,-2.99,-2.69,921.73,25.65,
3010825,-0.08,-0.05,1.1,-7.63,-3.11,-2.44,921.75,25.65,
3010864,-0.09,-0.04,1.28,-6.65,-3.42,-2.08,921.74,25.64,
3010902,-0.09,-0.05,1.32,-6.53,-2.08,-2.08,921.73,25.64,
3010940,-0.1,-0.04,1.4,-5.25,-1.22,-1.89,921.73,25.65,
3010978,-0.08,-0.05,1.31,-5.19,-0.31,-1.71,921.76,25.64,
3011016,-0.09,-0.02,1.5,-3.78,-1.46,-1.71,921.73,25.65,
3011066,-0.08,-0.04,1.39,-4.15,2.14,-1.34,921.71,25.63,
3011104,-0.06,0.01,1.71,-2.14,-0.31,-1.34,921.75,25.63,
3011143,-0.08,-0.04,1.59,-1.95,3.17,-0.85,921.74,25.63,
3011181,-0.08,-0.01,1.67,-1.16,0.37,-0.92,921.77,25.64,
3011219,-0.08,-0.02,1.66,-0.79,3.3,-0.92,921.73,25.64,
3011257,-0.07,-0.02,1.6,-0.79,2.5,-0.98,921.77,25.63,
3011295,-0.1,-0.06,1.51,0.24,6.23,-0.73,921.77,25.63,
3011334,-0.06,-0.04,1.43,1.04,5.74,-0.79,921.75,25.63,
3011372,-0.06,-0.06,1.35,2.44,6.29,-0.61,921.7,25.64,
3011422,-0.07,-0.04,1.34,2.08,5.74,-0.37,921.72,25.63,
3011460,-0.04,-0.07,1.27,1.77,7.63,-0.61,921.76,25.62,
3011498,-0.06,-0.08,1.18,0.92,8.36,-0.43,921.75,25.63,
3011537,-0.06,-0.06,1.21,1.28,7.93,-0.24,921.8,25.63,
3011575,-0.03,-0.05,1.23,1.1,8.54,-0.31,921.83,25.64,
3011613,-0.05,-0.08,1.13,2.38,10.01,-0.49,921.85,25.62,
3011651,-0.03,-0.09,1.03,2.38,10.8,-0.55,921.79,25.62,
3011689,-0.0,-0.08,1.03,3.42,10.5,-0.37,921.77,25.63,
3011728,-0.01,-0.09,0.8,1.28,11.23,-0.43,921.75,25.63,
3011766,-0.02,-0.05,0.91,2.44,7.93,-0.61,921.75,25.63,
3011816,-0.01,-0.11,0.79,0.06,8.3,-0.73,921.67,25.61,
3011854,0.04,-0.08,0.91,0.18,5.31,-0.92,921.7,25.63,
3011892,0.03,-0.12,0.81,-0.49,4.03,-1.28,921.65,25.62,
3011930,-0.0,-0.08,0.83,-1.59,2.93,-1.46,921.65,25.64,
3011969,-0.0,-0.09,0.86,-1.65,2.87,-1.53,921.61,25.62,
3012007,0.01,-0.09,0.87,-2.44,1.59,-1.71,921.65,25.63,
3012045,-0.0,-0.09,0.94,-2.81,0.67,-1.83,921.58,25.62,
3012083,-0.01,-0.08,0.94,-2.81,2.14,-2.14,921.57,25.62,
3012121,-0.0,-0.06,1.03,-2.62,1.89,-2.44,921.61,25.63,
3012171,-0.0,-0.07,1.05,-2.56,1.53,-2.75,921.6,25.62,
3012209,-0.01,-0.06,1.13,-1.46,1.53,-2.99,921.69,25.62,
3012248,0.01,-0.08,1.12,-0.98,3.36,-3.17,921.59,25.64,
3012286,-0.0,-0.07,1.1,-0.55,2.75,-3.66,921.67,25.63,
3012324,-0.01,-0.06,1.14,-0.18,2.81,-3.91,921.6,25.62,
3012362,0.0,-0.07,1.2,-0.49,4.27,-4.27,921.6,25.63,
3012400,-0.0,-0.07,1.23,-0.73,4.39,-4.33,921.65,25.63,
3012439,-0.04,-0.05,1.26,-0.37,4.33,-4.52,921.58,25.63,
3012477,-0.04,-0.06,1.21,-0.12,5.68,-4.64,921.56,25.64,
3012553,-0.02,-0.05,1.13,0.43,7.32,-4.82,921.56,25.6,
3012591,-0.03,-0.06,1.13,1.16,6.65,-4.82,921.6,25.61,
3012629,-0.03,-0.07,1.03,1.04,7.69,-4.7,921.51,25.62,
3012719,-0.04,-0.06,0.97,1.65,5.49,-4.76,921.43,25.58,
3012757,-0.04,-0.06,1.01,2.38,3.3,-4.76,921.45,25.6,
3012795,-0.01,-0.08,0.89,1.89,3.85,-4.64,921.48,25.61,
3012834,-0.03,-0.06,0.91,2.14,1.28,-4.76,921.45,25.62,
3012872,-0.03,-0.08,0.82,2.32,1.16,-4.76,921.48,25.62,
3012910,-0.04,-0.07,0.74,1.71,-0.61,-4.7,921.33,25.61,
3012948,-0.06,-0.06,0.87,2.99,-1.46,-4.52,921.31,25.61,
3012998,-0.04,-0.08,0.82,1.77,-0.12,-4.39,921.28,25.6,
3013036,-0.04,-0.06,0.98,2.01,0.12,-4.76,921.35,25.62,
3013075,-0.04,-0.08,1.0,1.59,1.65,-4.58,921.34,25.62,
3013113,-0.03,-0.08,1.17,1.65,1.04,-4.46,921.42,25.61,
3013151,-0.04,-0.06,1.17,1.34,1.16,-4.15,921.37,25.61,
3013189,-0.06,-0.06,1.18,1.53,0.61,-4.03,921.49,25.63,
3013227,-0.05,-0.05,1.21,1.22,0.24,-3.85,921.39,25.6,
3013265,-0.02,-0.06,1.28,1.77,-1.71,-3.72,921.41,25.63,
3013304,-0.04,-0.06,1.24,1.04,-2.01,-3.48,921.38,25.62,
3013354,-0.03,-0.07,1.28,1.59,-0.98,-3.54,921.39,25.6,
3013392,-0.04,-0.08,1.22,1.65,-0.55,-3.3,921.46,25.63,
3013430,-0.04,-0.06,1.15,2.2,-1.1,-3.36,921.45,25.61,
3013468,-0.04,-0.07,1.09,3.11,1.16,-3.48,921.47,25.62,
3013506,-0.02,-0.07,1.07,3.3,3.23,-3.72,921.43,25.62,
3013544,-0.02,-0.07,1.07,3.85,3.78,-3.66,921.46,25.62,
3013583,-0.05,-0.06,1.07,3.97,5.31,-3.54,921.41,25.63,
3013621,-0.05,-0.08,1.09,3.97,8.42,-3.66,921.36,25.62,
3013659,-0.03,-0.08,1.06,3.3,9.52,-3.6,921.38,25.63,
3013697,-0.03,-0.06,1.14,3.23,8.06,-3.48,921.34,25.62,
3013747,-0.03,-0.08,1.12,2.2,7.93,-3.48,921.36,25.62,
3013785,-0.02,-0.07,1.18,2.08,6.9,-3.36,921.37,25.63,
3013823,-0.01,-0.07,1.17,1.71,5.55,-3.11,921.3,25.63,
3013862,-0.02,-0.06,1.23,2.08,3.54,-3.23,921.28,25.64,
3013900,-0.01,-0.08,1.23,0.98,3.23,-3.42,921.16,25.61,
3013938,-0.01,-0.07,1.28,1.04,2.75,-3.6,921.21,25.63,
3013976,-0.01,-0.07,1.28,0.61,2.93,-3.66,921.22,25.63,
3014014,-0.04,-0.08,1.25,0.55,2.38,-3.78,921.2,25.62,
3014053,-0.01,-0.06,1.3,0.79,2.69,-4.21,921.15,25.63,
3014103,-0.04,-0.07,1.24,0.85,3.6,-4.27,921.15,25.61,
3014141,-0.03,-0.07,1.27,0.67,3.97,-4.21,921.12,25.61,
3014179,-0.01,-0.06,1.22,0.24,5.0,-4.52,921.13,25.63,
3014217,-0.03,-0.05,1.27,-0.18,4.76,-4.76,921.11,25.61,
3014255,-0.05,-0.06,1.29,-0.43,5.0,-4.58,921.14,25.62,
3014294,-0.03,-0.07,1.37,-0.67,5.92,-4.76,921.08,25.61,
3014332,-0.02,-0.05,1.4,-1.1,6.59,-4.64,921.18,25.62,
3014370,-0.05,-0.05,1.41,-0.85,7.57,-4.39,921.09,25.62,
3014408,-0.04,-0.05,1.39,-0.43,8.24,-4.46,921.06,25.61,
3014458,-0.04,-0.04,1.38,0.73,8.12,-4.21,921.01,25.6,
3014496,-0.04,-0.05,1.31,1.65,7.63,-4.09,921.03,25.62,
3014535,-0.04,-0.07,1.24,2.01,7.45,-3.91,920.98,25.62,
3014573,-0.03,-0.06,1.15,2.99,6.96,-3.78,921.03,25.63,
3014611,-0.04,-0.05,1.08,3.6,5.92,-3.48,920.96,25.61,
3014649,-0.03,-0.07,1.09,4.64,4.94,-3.42,920.93,25.61,
3014687,-0.07,-0.09,0.97,4.64,5.0,-3.05,920.94,25.62,
3014726,-0.07,-0.08,0.96,5.31,4.94,-2.99,920.9,25.61,
3014764,-0.04,-0.08,0.87,4.33,5.86,-2.81,920.93,25.63,
3014802,-0.06,-0.06,0.84,4.33,5.86,-2.93,920.91,25.62,
3014852,-0.06,-0.09,0.73,3.97,7.63,-2.38,920.83,25.61,
3014890,-0.06,-0.09,0.73,3.36,8.85,-2.26,920.81,25.62,
3014928,-0.04,-0.08,0.69,2.75,9.34,-2.26,920.82,25.63,
3014967,-0.06,-0.06,0.72,1.89,9.34,-2.01,920.78,25.63,
3015005,-0.05,-0.08,0.72,0.98,9.4,-1.95,920.76,25.63,
3015043,-0.03,-0.08,0.81,-0.24,8.54,-1.83,920.75,25.61,
3015081,-0.03,-0.09,0.8,-0.98,9.03,-1.65,920.75,25.63,
3015119,-0.02,-0.07,0.92,-2.32,7.32,-1.46,920.74,25.63,
3015158,-0.02,-0.08,0.96,-2.81,7.45,-1.28,920.7,25.61,
3015208,-0.02,-0.07,1.04,-3.91,5.19,-1.22,920.69,25.61,
3015246,-0.0,-0.07,1.11,-4.64,5.49,-1.34,920.64,25.6,
3015284,-0.03,-0.06,1.13,-5.62,4.39,-1.1,920.68,25.61,
3015322,-0.0,-0.05,1.31,-5.31,3.66,-1.1,920.7,25.63,
3015360,-0.02,-0.06,1.33,-5.8,3.48,-1.04,920.64,25.61,
3015399,-0.04,-0.05,1.39,-5.55,3.36,-0.92,920.68,25.61,
3015437,-0.01,-0.05,1.47,-4.94,4.33,-1.04,920.66,25.61,
3015475,-0.0,-0.04,1.44,-4.82,4.39,-1.1,920.59,25.61,
3015513,-0.04,-0.02,1.5,-3.42,4.7,-1.1,920.64,25.61,
3015552,-0.01,-0.06,1.42,-3.66,8.24,-1.16,920.62,25.61,
3015627,-0.01,-0.07,1.33,-2.56,10.38,-1.16,920.57,25.59,
3015666,-0.02,-0.05,1.34,-2.08,11.17,-1.28,920.52,25.59,
3015704,0.0,-0.06,1.26,-2.38,13.18,-1.16,920.51,25.59,
3015794,-0.01,-0.08,1.24,-1.77,13.67,-1.16,920.5,25.56,
3015832,-0.02,-0.07,1.29,-1.28,14.1,-1.34,920.48,25.59,
3015870,0.01,-0.07,1.28,-1.16,14.71,-1.4,920.45,25.59,
3015908,0.01,-0.07,1.32,-0.73,13.18,-1.53,920.44,25.59,
3015946,-0.02,-0.08,1.21,-1.04,14.1,-1.28,920.48,25.59,
3015985,-0.0,-0.07,1.19,-0.49,13.61,-1.34,920.37,25.58,
3016035,-0.0,-0.08,1.09,-0.79,12.51,-1.28,920.37,25.58,
3016073,-0.0,-0.07,1.08,-0.98,9.58,-1.34,920.45,25.6,
3016111,0.01,-0.08,1.07,-0.92,10.38,-1.46,920.38,25.59,
3016149,0.01,-0.09,1.02,-1.59,8.79,-1.46,920.39,25.6,
3016187,0.01,-0.08,1.08,-1.22,6.9,-1.46,920.39,25.6,
3016225,0.0,-0.08,1.03,-2.26,7.08,-1.65,920.32,25.6,
3016264,0.01,-0.08,1.09,-2.56,6.04,-1.77,920.28,25.6,
3016302,0.02,-0.08,1.06,-3.78,6.16,-1.89,920.25,25.6,
3016340,0.01,-0.08,1.12,-3.91,4.88,-1.95,920.25,25.6,
3016390,0.01,-0.08,1.13,-4.64,5.19,-2.08,920.22,25.59,
3016428,0.02,-0.07,1.21,-4.58,3.3,-2.44,920.18,25.59,
3016466,0.0,-0.09,1.15,-5.37,4.52,-2.56,920.21,25.59,
3016505,-0.0,-0.08,1.14,-5.13,4.15,-2.75,920.12,25.58,
3016543,0.02,-0.08,1.17,-5.37,4.03,-3.17,920.17,25.59,
3016581,0.02,-0.07,1.19,-5.74,3.3,-3.36,920.12,25.6,
3016619,-0.01,-0.06,1.24,-6.04,3.72,-3.48,920.1,25.6,
3016657,0.0,-0.07,1.28,-6.16,4.03,-3.72,920.06,25.59,
3016696,0.01,-0.07,1.34,-6.47,3.97,-4.09,920.03,25.6,
3016734,-0.0,-0.06,1.37,-6.41,4.39,-4.09,920.05,25.6,
3016784,0.01,-0.06,1.38,-6.23,5.74,-4.46,920.04,25.59,
3016822,0.01,-0.06,1.35,-5.92,5.74,-4.64,920.04,25.6,
3016860,-0.0,-0.05,1.39,-5.49,5.55,-4.82,919.96,25.59,
3016898,0.0,-0.06,1.38,-4.94,6.29,-5.13,919.96,25.6,
3016937,0.02,-0.07,1.38,-4.27,6.59,-5.13,919.95,25.6,
3016975,-0.01,-0.06,1.34,-3.85,6.16,-5.19,919.95,25.61,
3017013,-0.01,-0.07,1.34,-3.17,6.23,-5.49,919.86,25.6,
3017051,-0.01,-0.07,1.24,-3.97,6.59,-5.86,919.81,25.61,
3017090,-0.01,-0.05,1.3,-4.33,6.16,-5.8,919.82,25.61,
3017139,-0.0,-0.07,1.33,-5.55,6.96,-5.98,919.74,25.61,
3017178,-0.02,-0.06,1.4,-5.43,6.29,-6.04,919.75,25.62,
3017216,-0.01,-0.03,1.4,-5.49,7.63,-6.23,919.76,25.61,
3017254,0.0,-0.06,1.38,-4.94,7.51,-6.1,919.72,25.61,
3017292,-0.0,-0.05,1.36,-3.97,6.65,-6.16,919.76,25.62,
3017331,-0.02,-0.06,1.26,-3.72,6.59,-6.35,919.66,25.61,
3017369,0.0,-0.08,1.18,-2.93,5.19,-6.23,919.64,25.62,
3017407,0.03,-0.08,1.2,-3.23,4.46,-6.53,919.53,25.63,
3017445,0.01,-0.07,1.14,-3.85,3.78,-6.47,919.53,25.62,
3017495,0.01,-0.09,1.14,-3.97,2.93,-6.84,919.42,25.6,
3017533,0.0,-0.08,1.1,-4.52,2.62,-7.2,919.41,25.61,
3017572,-0.0,-0.07,1.21,-3.91,0.73,-7.2,919.41,25.63,
3017610,0.02,-0.08,1.15,-4.39,1.22,-7.45,919.41,25.61,
3017648,0.0,-0.06,1.13,-3.72,0.85,-7.93,919.37,25.61,
3017686,-0.0,-0.07,1.06,-3.54,1.04,-8.0,919.36,25.62,
3017724,0.01,-0.07,1.08,-2.75,-0.43,-8.06,919.34,25.61,
3017762,0.0,-0.08,1.05,-2.2,-0.67,-8.24,919.3,25.62,
3017801,-0.02,-0.09,0.93,-1.95,0.0,-8.48,919.33,25.62,
3017839,-0.01,-0.08,0.93,-1.65,-0.73,-8.79,919.26,25.62,
3017889,-0.01,-0.09,0.87,-1.83,-0.12,-9.34,919.17,25.61,
3017927,-0.02,-0.09,0.88,-2.01,-0.12,-9.16,919.13,25.61,
3017965,-0.03,-0.08,0.88,-2.08,0.55,-9.4,919.16,25.62,
3018003,-0.04,-0.07,0.86,-2.75,1.1,-9.58,919.1,25.62,
3018042,-0.04,-0.07,0.93,-2.38,1.04,-9.64,919.11,25.62,
3018080,-0.06,-0.08,0.95,-2.44,2.14,-9.52,919.12,25.62,
3018118,-0.04,-0.08,0.94,-2.32,3.11,-9.64,919.09,25.6,
3018156,-0.05,-0.06,0.94,-2.44,4.27,-9.64,919.13,25.62,
3018195,-0.04,-0.07,0.95,-2.44,4.58,-9.28,919.01,25.61,
3018245,-0.06,-0.07,0.94,-3.3,4.33,-9.28,919.04,25.61,
3018283,-0.09,-0.06,1.02,-2.93,3.66,-9.03,918.97,25.62,
3018321,-0.07,-0.07,1.05,-2.87,3.97,-8.91,918.96,25.62,
3018359,-0.05,-0.06,1.09,-2.81,3.54,-8.85,918.9,25.6,
3018397,-0.06,-0.06,1.11,-2.2,3.48,-8.36,918.91,25.61,
3018436,-0.07,-0.08,1.09,-1.77,3.48,-8.12,918.81,25.61,
3018474,-0.06,-0.05,1.16,-1.4,2.75,-7.93,918.91,25.62,
3018512,-0.07,-0.05,1.18,-1.4,2.26,-7.51,918.85,25.61,
3018550,-0.08,-0.07,1.16,-0.98,0.98,-7.08,918.77,25.62,
3018626,-0.06,-0.05,1.23,-0.79,2.32,-6.77,918.77,25.58,
3018665,-0.04,-0.06,1.22,-0.92,1.59,-6.53,918.71,25.58,
3018703,-0.08,-0.06,1.28,-0.31,1.83,-6.59,918.75,25.6,
3018793,-0.06,-0.05,1.18,-0.55,2.93,-6.16,918.68,25.57,
3018831,-0.05,-0.07,1.08,-1.1,3.85,-6.16,918.7,25.59,
3018869,-0.05,-0.06,1.05,-1.22,3.42,-6.1,918.66,25.58,
3018907,-0.06,-0.07,1.0,-1.34,4.94,-5.92,918.7,25.59,
3018945,-0.05,-0.07,1.0,-1.77,4.82,-5.68,918.6,25.58,
3018984,-0.05,-0.08,1.01,-2.38,5.31,-5.74,918.62,25.59,
3019022,-0.05,-0.08,1.02,-2.87,5.55,-5.55,918.57,25.59,
3019072,-0.05,-0.07,1.01,-3.6,5.92,-5.55,918.63,25.59,
3019110,-0.04,-0.07,1.02,-3.91,5.49,-5.43,918.56,25.59,
3019148,-0.04,-0.08,1.0,-4.15,5.07,-5.31,918.53,25.59,
3019186,-0.04,-0.07,1.02,-4.33,4.82,-5.25,918.52,25.59,
3019225,-0.04,-0.07,0.99,-4.58,4.94,-5.13,918.51,25.59,
3019263,-0.05,-0.07,1.0,-4.64,4.39,-5.13,918.5,25.59,
3019301,-0.03,-0.08,0.99,-4.94,4.58,-4.94,918.43,25.59,
3019339,-0.04,-0.08,0.99,-5.62,4.09,-4.94,918.39,25.59,
3019378,-0.04,-0.06,1.05,-5.86,3.36,-4.82,918.39,25.6,
3019427,-0.04,-0.08,1.05,-6.59,4.33,-4.88,918.27,25.57,
3019466,-0.03,-0.06,1.16,-7.02,4.27,-4.88,918.33,25.57,
3019504,-0.02,-0.04,1.25,-7.32,4.21,-4.94,918.3,25.59,
3019542,-0.05,-0.04,1.33,-6.77,5.31,-4.94,918.38,25.59,
3019580,-0.02,-0.04,1.4,-6.35,6.16,-5.07,918.3,25.57,
3019618,-0.02,-0.04,1.55,-5.8,5.92,-5.19,918.23,25.59,
3019657,-0.03,-0.03,1.6,-5.74,6.47,-5.31,918.24,25.6,
3019695,-0.04,-0.01,1.65,-5.37,7.75,-5.68,918.15,25.59,
3019733,-0.04,-0.01,1.67,-4.88,8.54,-5.43,918.14,25.6,
3019783,-0.03,0.02,1.73,-4.15,7.87,-5.86,918.12,25.59,
3019821,-0.04,-0.03,1.69,-3.05,9.34,-5.43,918.19,25.6,
3019859,-0.02,-0.03,1.63,-2.32,7.81,-5.25,918.09,25.59,
3019898,-0.04,-0.01,1.64,-0.85,6.65,-5.07,918.14,25.6,
3019936,-0.05,-0.02,1.47,-0.06,6.47,-4.76,918.09,25.59,
3019974,-0.02,-0.02,1.44,1.04,5.0,-5.07,918.05,25.59,
3020012,-0.0,-0.07,1.25,1.1,4.64,-4.94,917.99,25.6,
3020051,-0.02,-0.06,1.21,1.34,1.46,-4.7,917.96,25.6,
3020089,-0.01,-0.07,1.05,0.61,2.08,-4.82,917.95,25.59,
3020127,-0.03,-0.05,1.01,-0.31,0.85,-4.88,917.89,25.59,
