timestamp,acc_x,acc_y,acc_z,rot_x,rot_y,rot_z,qfe,temp
2112525,0.03,-0.08,1.01,2.01,6.29,0.79,923.44,35.4
2112563,0.0,-0.07,0.96,1.16,7.51,0.79,923.51,35.42
2112613,0.03,-0.06,1.15,1.77,4.82,0.61,923.41,35.39
2112651,0.05,-0.09,1.13,0.49,7.39,0.61,923.49,35.4
2112689,0.03,-0.07,1.16,0.73,5.31,0.31,923.55,35.4
2112727,0.02,-0.06,1.18,1.04,7.14,0.31,923.51,35.4
2112765,0.03,-0.06,1.09,0.37,7.69,0.12,923.62,35.42
2112803,0.03,-0.06,1.17,0.31,6.84,0.12,923.46,35.41
2112841,-0.0,-0.08,1.08,-0.55,8.42,-0.12,923.48,35.4
2112879,0.03,-0.05,1.21,-0.37,7.32,0.12,923.54,35.42
2112917,0.03,-0.06,1.23,-0.73,9.52,0.0,923.45,35.42
2112955,0.0,-0.06,1.23,-0.43,7.75,0.0,923.47,35.41
2113005,0.01,-0.05,1.27,-1.16,9.52,-0.18,923.51,35.41
2113043,0.02,-0.06,1.31,-0.49,9.64,-0.12,923.58,35.41
2113081,0.03,-0.06,1.27,-0.55,9.03,0.18,923.57,35.4
2113119,-0.01,-0.05,1.28,0.55,8.67,-0.31,923.59,35.41
2113157,0.0,-0.05,1.25,0.12,9.4,0.12,923.52,35.41
2113195,0.02,-0.05,1.28,0.43,8.85,0.12,923.59,35.41
2113233,0.04,-0.07,1.29,1.1,7.93,-0.12,923.5,35.41
2113271,0.01,-0.08,1.23,0.55,10.44,-0.06,923.54,35.42
2113309,0.01,-0.05,1.24,2.26,10.38,-0.12,923.54,35.4
2113359,0.01,-0.07,1.2,2.56,9.83,-0.06,923.53,35.38
2113397,-0.02,-0.07,1.05,2.99,12.02,0.0,923.58,35.4
2113435,0.02,-0.08,1.11,4.27,11.96,-0.18,923.49,35.4
2113473,0.05,-0.09,1.05,3.85,13.31,-0.31,923.55,35.4
2113511,0.02,-0.07,1.0,5.19,11.41,-0.37,923.5,35.41
2113549,0.01,-0.09,1.0,5.62,12.15,-0.24,923.5,35.38
2113587,0.1,-0.07,0.98,6.23,12.51,-0.55,923.46,35.38
2113625,0.03,-0.07,0.95,6.59,11.41,-0.43,923.51,35.4
2113663,0.06,-0.09,0.94,7.08,11.23,-0.37,923.51,35.4
2113701,0.05,-0.08,0.87,6.84,9.4,-0.67,923.44,35.39
2113751,-0.01,-0.08,0.81,7.69,9.03,-0.73,923.47,35.39
2113789,0.09,-0.1,0.78,7.93,7.63,-1.1,923.5,35.4
2113827,0.03,-0.08,0.75,7.57,8.91,-1.46,923.49,35.4
2113865,0.02,-0.1,0.76,8.18,8.85,-1.77,923.48,35.39
2113903,0.06,-0.1,0.75,7.57,8.85,-1.77,923.49,35.4
2113941,0.06,-0.09,0.79,7.57,10.93,-2.2,923.45,35.39
2113980,0.02,-0.1,0.72,6.96,12.51,-2.26,923.49,35.41
2114018,0.01,-0.09,0.77,7.51,10.68,-2.56,923.51,35.39
2114056,0.06,-0.1,0.71,5.86,14.22,-2.81,923.49,35.39
2114105,0.04,-0.09,0.75,5.8,14.16,-3.36,923.58,35.4
2114144,0.07,-0.09,0.76,4.64,13.85,-3.42,923.54,35.4
2114182,0.03,-0.08,0.78,4.15,12.45,-3.54,923.54,35.38
2114220,0.04,-0.1,0.79,3.3,12.57,-3.85,923.51,35.39
2114258,0.05,-0.11,0.74,2.26,13.79,-4.27,923.59,35.4
2114296,0.05,-0.1,0.8,2.08,13.61,-4.64,923.54,35.39
2114334,0.05,-0.1,0.7,0.79,13.31,-4.76,923.6,35.4
2114372,0.06,-0.09,0.75,1.04,11.84,-5.0,923.61,35.4
2114410,0.05,-0.1,0.74,-0.18,13.85,-5.37,923.68,35.41
2114448,0.07,-0.09,0.74,-0.24,11.78,-5.98,923.66,35.4
2114524,0.08,-0.1,0.88,-1.46,9.22,-6.41,923.66,35.38
2114562,0.02,-0.08,1.01,-1.34,6.53,-7.02,923.61,35.38
2114600,0.06,-0.11,0.96,-2.99,7.51,-6.96,923.65,35.39
2114689,0.06,-0.1,0.97,-3.78,6.1,-8.24,923.67,35.35
2114728,0.06,-0.07,1.19,-2.81,2.14,-8.54,923.7,35.37
2114766,0.03,-0.1,1.17,-3.3,4.33,-8.97,923.76,35.39
2114804,0.02,-0.07,1.26,-2.69,1.71,-9.09,923.82,35.4
2114842,0.03,-0.09,1.37,-3.48,3.48,-9.09,923.8,35.38
2114880,0.02,-0.09,1.35,-3.78,2.62,-9.83,923.85,35.39
2114930,-0.0,-0.08,1.35,-3.6,4.03,-10.01,923.86,35.38
2114968,0.03,-0.09,1.24,-3.78,3.72,-9.95,923.96,35.38
2115006,0.0,-0.08,1.19,-3.66,2.5,-10.56,923.9,35.38
2115044,-0.05,-0.07,1.13,-3.72,2.81,-10.38,923.96,35.39
2115082,-0.0,-0.08,1.19,-3.66,2.5,-10.19,923.97,35.4
2115120,-0.02,-0.09,1.22,-4.15,4.15,-10.5,924.02,35.4
2115158,-0.05,-0.08,1.25,-3.72,2.26,-10.19,924.0,35.39
2115196,-0.03,-0.07,1.28,-3.91,3.85,-10.01,924.09,35.39
2115234,-0.01,-0.08,1.17,-3.97,3.54,-10.01,924.07,35.39
2115272,-0.03,-0.07,1.16,-3.66,1.71,-9.77,924.05,35.39
2115322,-0.05,-0.09,1.04,-3.78,3.3,-9.34,923.98,35.38
2115360,-0.04,-0.08,1.1,-3.36,1.22,-9.22,924.02,35.39
2115398,-0.05,-0.07,1.05,-3.85,1.83,-9.16,924.05,35.39
2115436,-0.06,-0.08,1.15,-3.48,0.12,-8.73,924.02,35.38
2115475,-0.03,-0.1,1.18,-3.48,2.01,-8.67,924.06,35.4
2115513,-0.06,-0.08,1.17,-2.87,1.89,-8.36,924.12,35.39
2115551,-0.06,-0.07,1.22,-2.14,2.81,-7.93,924.06,35.39
2115589,-0.05,-0.06,1.2,-2.14,3.54,-7.87,924.13,35.38
2115627,-0.08,-0.06,1.24,-1.59,2.5,-7.63,924.18,35.39
2115677,-0.05,-0.08,1.2,-0.92,3.91,-7.32,924.23,35.38
2115715,-0.06,-0.07,1.21,-0.31,3.11,-7.26,924.19,35.38
2115753,-0.06,-0.07,1.2,0.06,3.48,-6.96,924.16,35.38
2115791,-0.07,-0.07,1.19,0.67,3.6,-6.35,924.21,35.39
2115829,-0.07,-0.08,1.17,1.46,3.66,-6.41,924.23,35.4
2115867,-0.06,-0.07,1.14,1.4,4.82,-6.16,924.18,35.38
2115905,-0.09,-0.07,1.11,1.95,5.8,-5.8,924.2,35.38
2115943,-0.07,-0.08,1.07,2.26,6.84,-5.25,924.28,35.4
2115981,-0.06,-0.08,1.07,2.62,8.24,-5.07,924.17,35.39
2116031,-0.05,-0.09,1.02,2.69,9.95,-4.52,924.21,35.39
2116069,-0.06,-0.08,0.97,2.56,10.25,-4.46,924.28,35.4
2116107,-0.06,-0.08,0.95,2.81,11.11,-4.21,924.22,35.39
2116145,-0.04,-0.08,0.95,2.56,11.35,-3.97,924.19,35.4
2116183,-0.04,-0.09,0.96,2.44,11.6,-3.72,924.26,35.4
2116221,-0.06,-0.08,0.91,2.01,11.23,-3.54,924.24,35.4
2116260,-0.04,-0.07,1.03,1.95,9.46,-3.23,924.31,35.41
2116298,-0.02,-0.08,1.03,1.04,10.19,-2.81,924.28,35.4
2116336,-0.04,-0.08,1.11,1.04,7.32,-2.93,924.28,35.4
2116374,-0.06,-0.08,1.14,0.61,7.02,-2.69,924.31,35.4
2116424,-0.02,-0.07,1.2,0.31,5.13,-2.44,924.32,35.4
2116462,-0.02,-0.07,1.18,0.24,5.31,-2.32,924.39,35.39
2116500,-0.05,-0.08,1.17,0.79,4.21,-2.2,924.36,35.4
2116538,-0.04,-0.08,1.17,1.77,4.27,-2.2,924.43,35.4
2116576,-0.01,-0.09,1.12,2.14,4.46,-2.08,924.43,35.39
2116614,-0.03,-0.08,1.04,2.75,4.39,-2.08,924.38,35.4
2116652,-0.05,-0.09,0.94,3.66,5.13,-2.38,924.45,35.41
2116690,-0.02,-0.09,0.93,4.15,3.78,-2.32,924.39,35.4
2116728,-0.02,-0.09,0.88,4.27,3.91,-2.26,924.35,35.4
2116778,-0.02,-0.09,0.84,4.21,4.09,-2.26,924.39,35.4
2116816,-0.01,-0.09,0.79,3.66,5.86,-2.44,924.38,35.4
2116854,-0.03,-0.09,0.84,3.97,4.21,-2.26,924.39,35.42
2116892,-0.02,-0.1,0.8,3.11,5.55,-2.38,924.41,35.4
2116930,-0.02,-0.1,0.86,2.69,4.76,-2.44,924.42,35.4
2116968,-0.04,-0.09,0.84,2.08,5.19,-2.44,924.38,35.42
2117007,-0.02,-0.1,0.85,1.46,4.82,-2.62,924.45,35.41
2117045,-0.02,-0.09,0.87,0.85,5.31,-2.56,924.39,35.41
2117083,-0.01,-0.1,0.87,0.0,5.31,-2.5,924.44,35.41
2117121,-0.03,-0.1,0.9,-0.37,5.07,-2.5,924.4,35.4
2117171,0.0,-0.1,0.94,-0.85,5.37,-2.75,924.46,35.4
2117209,0.0,-0.1,0.96,-1.4,5.19,-2.69,924.43,35.4
2117247,-0.03,-0.09,0.95,-1.65,4.82,-2.56,924.49,35.4
2117285,-0.01,-0.09,0.99,-1.83,4.27,-2.62,924.5,35.39
2117323,0.01,-0.1,0.99,-2.32,5.19,-2.81,924.48,35.41
2117361,-0.0,-0.09,1.01,-2.2,3.11,-2.87,924.49,35.4
2117399,-0.0,-0.09,1.02,-2.5,3.66,-2.81,924.56,35.42
2117437,0.01,-0.09,1.03,-2.56,3.85,-3.17,924.55,35.41
2117475,-0.01,-0.09,1.07,-2.81,4.33,-3.23,924.6,35.4
2117551,-0.01,-0.09,1.11,-2.5,4.52,-3.54,924.59,35.38
2117589,0.0,-0.09,1.13,-2.62,5.31,-3.78,924.6,35.38
2117627,0.0,-0.09,1.14,-2.93,5.43,-3.78,924.62,35.38
2117716,-0.01,-0.08,1.21,-2.69,5.49,-4.03,924.6,35.35
2117755,-0.01,-0.08,1.27,-2.38,5.98,-4.21,924.67,35.36
2117793,-0.01,-0.08,1.29,-2.62,6.35,-4.27,924.66,35.39
2117831,-0.02,-0.08,1.32,-2.26,6.23,-4.39,924.67,35.36
2117869,-0.02,-0.09,1.27,-2.01,7.51,-4.46,924.71,35.36
2117907,0.01,-0.06,1.29,-2.2,7.45,-4.64,924.73,35.38
2117957,-0.0,-0.06,1.35,-1.53,7.51,-4.58,924.7,35.36
2117995,-0.03,-0.08,1.31,-1.46,7.57,-4.7,924.74,35.37
2118033,-0.02,-0.08,1.4,-0.67,6.96,-4.7,924.76,35.38
2118071,-0.0,-0.1,1.35,-1.1,7.51,-4.7,924.73,35.37
2118109,-0.03,-0.08,1.28,-0.85,6.29,-4.94,924.76,35.36
2118147,-0.01,-0.08,1.19,-0.79,7.02,-5.0,924.8,35.39
2118185,0.01,-0.08,1.14,-0.85,6.59,-5.07,924.8,35.37
2118223,-0.02,-0.08,1.12,0.12,4.64,-5.13,924.84,35.39
2118262,-0.02,-0.1,1.09,0.18,5.49,-5.25,924.77,35.37
2118300,-0.03,-0.07,1.17,0.37,4.09,-5.68,924.75,35.38
2118349,-0.04,-0.09,1.24,-0.31,5.31,-5.49,924.74,35.39
2118388,-0.02,-0.1,1.28,0.73,4.52,-5.92,924.84,35.38
2118426,-0.02,-0.09,1.24,0.67,6.04,-5.92,924.8,35.37
2118464,-0.05,-0.08,1.23,1.4,3.6,-5.68,924.9,35.39
2118502,-0.03,-0.09,1.08,0.92,4.64,-5.8,924.86,35.4
2118540,-0.04,-0.09,1.06,1.71,3.91,-5.8,924.84,35.4
2118578,-0.01,-0.1,0.94,1.53,5.19,-5.86,924.84,35.39
2118616,-0.06,-0.09,0.86,1.95,3.97,-5.86,924.83,35.37
2118654,-0.06,-0.09,0.87,2.14,4.03,-5.86,924.77,35.39
2118704,-0.03,-0.09,0.84,1.22,5.0,-5.92,924.86,35.37
2118742,-0.04,-0.1,0.95,1.16,3.72,-5.98,924.84,35.39
2118780,-0.06,-0.11,0.93,0.31,5.43,-6.16,924.86,35.38
2118818,-0.06,-0.08,1.0,0.67,4.27,-5.86,924.92,35.38
2118856,-0.05,-0.09,0.97,0.18,5.37,-5.86,924.88,35.39
2118894,-0.06,-0.09,1.01,0.43,4.15,-5.92,924.89,35.38
2118932,-0.05,-0.1,0.98,0.43,5.0,-5.62,924.88,35.38
2118970,-0.03,-0.09,0.99,0.79,2.5,-5.62,924.84,35.39
2119009,-0.05,-0.08,1.01,0.49,3.6,-5.43,924.88,35.4
2119047,-0.08,-0.08,0.96,0.18,3.11,-5.13,924.88,35.38
2119096,-0.08,-0.07,1.06,0.43,3.85,-5.31,924.86,35.38
2119134,-0.07,-0.09,1.05,0.31,5.07,-5.19,924.94,35.39
2119173,-0.07,-0.09,1.04,0.31,4.15,-5.25,924.9,35.38
2119211,-0.08,-0.07,1.12,0.67,5.55,-5.19,924.91,35.38
2119249,-0.07,-0.09,1.09,0.67,8.06,-4.82,924.92,35.38
2119287,-0.05,-0.08,1.15,1.46,7.14,-4.94,924.94,35.39
2119325,-0.07,-0.09,1.1,0.92,8.0,-4.7,924.98,35.39
2119363,-0.09,-0.09,1.03,1.28,6.96,-4.58,924.99,35.39
2119401,-0.08,-0.07,1.06,1.4,6.29,-4.58,924.99,35.39
2119451,-0.05,-0.1,0.99,0.61,7.14,-4.15,925.02,35.38
2119489,-0.04,-0.08,1.01,0.61,5.74,-4.03,925.04,35.39
2119527,-0.11,-0.09,0.97,0.55,6.53,-3.78,924.89,35.39
2119565,-0.06,-0.1,0.98,0.12,7.02,-3.6,924.87,35.38
2119603,-0.07,-0.08,1.01,0.0,5.86,-3.72,924.76,35.38
2119641,-0.09,-0.1,0.95,0.31,5.86,-3.48,924.81,35.38
2119679,-0.07,-0.09,0.95,0.0,5.8,-3.36,924.83,35.4
2119717,-0.06,-0.09,0.99,0.37,6.65,-3.36,924.83,35.4
2119755,-0.05,-0.09,0.97,-0.61,6.41,-2.87,924.79,35.39
2119793,-0.09,-0.08,1.02,-0.06,5.98,-3.05,924.81,35.39
2119843,-0.07,-0.1,0.99,-0.61,7.63,-2.93,924.89,35.39
2119881,-0.07,-0.08,1.04,-0.61,6.29,-2.75,924.84,35.39
2119919,-0.06,-0.09,1.01,-1.1,6.77,-2.56,924.86,35.4
2119957,-0.07,-0.09,1.01,-1.04,5.8,-2.5,924.81,35.4
2119995,-0.05,-0.09,1.02,-1.22,5.8,-2.5,924.8,35.39
2120033,-0.06,-0.1,1.01,-1.77,4.46,-2.26,924.73,35.38
2120071,-0.06,-0.09,0.97,-2.08,3.78,-2.32,924.71,35.4
2120109,-0.09,-0.09,0.98,-2.32,3.6,-2.26,924.81,35.39
2120147,-0.05,-0.09,1.0,-2.44,2.99,-2.2,924.81,35.4
2120197,-0.06,-0.08,1.03,-2.69,2.5,-2.14,924.85,35.39
2120235,-0.07,-0.1,1.03,-2.93,3.11,-2.08,924.95,35.4
2120273,-0.06,-0.09,1.06,-2.87,4.7,-1.89,924.94,35.38
2120311,-0.07,-0.08,1.1,-2.14,3.97,-1.95,925.05,35.4
2120349,-0.04,-0.09,1.11,-1.95,4.27,-1.89,925.07,35.39
2120387,-0.06,-0.08,1.13,-1.59,4.46,-2.14,925.09,35.4
2120425,-0.04,-0.09,1.17,-0.98,5.13,-2.08,925.14,35.39
2120463,-0.02,-0.09,1.18,-0.37,5.07,-2.08,925.13,35.4
2120501,-0.04,-0.08,1.14,0.79,5.68,-2.2,925.16,35.4
2120577,-0.04,-0.1,1.06,2.32,5.62,-2.38,925.15,35.37
2120615,-0.04,-0.09,1.06,3.48,3.78,-2.56,925.18,35.38
2120653,-0.04,-0.1,0.97,3.97,4.82,-2.62,925.09,35.38
2120742,-0.05,-0.1,0.81,4.21,3.66,-2.87,925.14,35.35
2120780,-0.05,-0.11,0.76,3.54,2.75,-2.93,925.11,35.37
2120818,-0.04,-0.1,0.75,2.26,2.5,-2.99,925.16,35.37
2120856,-0.04,-0.11,0.71,0.98,2.69,-2.99,925.16,35.38
2120894,-0.04,-0.11,0.76,-0.37,2.5,-3.17,925.09,35.38
2120932,-0.03,-0.1,0.82,-1.46,3.3,-3.42,925.16,35.37
2120970,-0.02,-0.11,0.84,-2.69,2.75,-3.42,925.18,35.38
2121020,-0.02,-0.1,0.95,-4.03,2.87,-3.48,925.17,35.37
2121058,-0.04,-0.1,1.01,-4.52,2.44,-3.48,925.27,35.37
2121096,-0.04,-0.1,1.07,-4.94,2.69,-3.85,925.25,35.38
2121134,-0.03,-0.09,1.13,-5.07,2.2,-3.91,925.31,35.39
2121172,-0.01,-0.09,1.18,-5.19,1.65,-3.85,925.32,35.38
2121210,-0.03,-0.08,1.21,-5.19,1.28,-3.72,925.31,35.37
2121248,-0.05,-0.1,1.18,-5.37,0.98,-3.91,925.41,35.39
2121286,-0.05,-0.08,1.24,-5.19,-1.16,-4.09,925.37,35.38
2121324,-0.06,-0.08,1.25,-5.25,-1.4,-4.09,925.4,35.38
2121374,-0.04,-0.07,1.28,-4.7,-3.05,-4.15,925.45,35.38
2121412,-0.05,-0.08,1.3,-4.58,-2.2,-4.21,925.44,35.38
2121450,-0.06,-0.07,1.34,-4.09,-2.75,-4.21,925.46,35.38
2121488,-0.07,-0.08,1.39,-3.3,-2.08,-4.15,925.5,35.39
2121526,-0.05,-0.08,1.35,-2.87,-1.28,-4.64,925.5,35.38
2121565,-0.06,-0.07,1.39,-2.14,-1.71,-4.64,925.46,35.38
2121603,-0.06,-0.07,1.34,-1.65,-0.43,-4.64,925.61,35.39
2121641,-0.03,-0.07,1.34,-1.16,-0.73,-4.82,925.53,35.39
2121679,-0.05,-0.07,1.3,-0.73,0.67,-5.07,925.56,35.38
2121729,-0.06,-0.08,1.32,-0.18,1.22,-5.13,925.54,35.38
2121767,-0.07,-0.07,1.3,0.0,2.44,-5.31,925.69,35.38
2121805,-0.07,-0.09,1.24,0.31,3.66,-5.25,925.67,35.38
2121843,-0.06,-0.08,1.25,1.04,3.78,-5.25,925.68,35.38
2121881,-0.06,-0.08,1.16,0.61,4.82,-5.31,925.68,35.38
2121919,-0.07,-0.07,1.15,1.53,4.64,-5.31,925.73,35.38
2121957,-0.08,-0.08,1.13,1.4,5.74,-5.07,925.7,35.39
2121995,-0.06,-0.1,1.09,0.85,6.1,-5.0,925.66,35.4
2122033,-0.05,-0.08,1.14,1.04,4.7,-5.19,925.66,35.38
2122071,-0.05,-0.09,1.08,-0.06,4.33,-4.94,925.6,35.38
2122121,-0.08,-0.07,1.11,-0.49,2.26,-4.76,925.64,35.37
2122159,-0.09,-0.09,1.08,-0.67,2.56,-4.64,925.69,35.39
2122197,-0.07,-0.08,1.08,-1.04,1.53,-4.76,925.66,35.38
2122235,-0.07,-0.07,1.13,-1.04,1.71,-4.64,925.69,35.38
2122273,-0.06,-0.09,1.11,-1.1,1.83,-4.52,925.75,35.4
2122311,-0.06,-0.07,1.14,-0.67,2.38,-4.46,925.79,35.38
2122349,-0.08,-0.08,1.15,0.24,3.3,-4.27,925.89,35.39
2122387,-0.09,-0.08,1.18,1.1,3.42,-4.03,925.94,35.39
2122425,-0.08,-0.08,1.11,2.01,5.37,-3.97,925.89,35.39
2122475,-0.08,-0.08,1.09,3.23,5.92,-3.97,925.91,35.38
2122513,-0.07,-0.08,1.04,3.17,7.32,-3.66,925.91,35.39
2122551,-0.08,-0.08,1.04,3.97,7.51,-3.6,925.91,35.39
2122589,-0.07,-0.09,1.03,4.03,7.51,-3.54,925.93,35.39
2122627,-0.04,-0.09,0.96,3.3,5.55,-3.23,925.96,35.4
2122665,-0.08,-0.08,0.92,3.42,5.25,-2.99,925.94,35.4
2122703,-0.05,-0.09,0.82,2.38,5.92,-3.05,925.97,35.4
2122741,-0.05,-0.09,0.84,1.71,3.91,-3.05,925.97,35.4
2122779,-0.03,-0.08,0.82,0.61,2.81,-2.81,925.91,35.38
2122829,-0.05,-0.12,0.87,-0.18,2.99,-2.56,925.95,35.38
2122867,-0.08,-0.09,0.9,-0.43,1.77,-2.69,925.99,35.39
2122905,-0.05,-0.09,0.9,-0.73,2.38,-2.5,926.04,35.38
2122943,-0.05,-0.08,0.93,-0.43,0.67,-2.56,926.06,35.38
2122981,-0.07,-0.09,0.95,0.12,2.93,-2.44,926.04,35.37
2123019,-0.05,-0.11,0.88,0.31,2.44,-2.38,926.07,35.38
2123057,-0.07,-0.07,1.01,1.34,1.16,-2.14,926.13,35.38
2123095,-0.07,-0.08,0.97,0.92,4.03,-1.95,926.15,35.38
2123133,-0.08,-0.08,1.13,2.5,3.05,-2.32,926.14,35.39
2123171,-0.06,-0.1,1.13,1.71,6.23,-2.01,926.18,35.39
2123221,-0.02,-0.09,1.24,2.5,5.68,-1.83,926.21,35.37
2123259,-0.04,-0.1,1.07,1.95,7.08,-2.01,926.18,35.38
2123297,-0.09,-0.1,1.04,2.62,5.98,-2.08,926.25,35.38
2123335,-0.06,-0.1,0.94,2.08,5.68,-2.01,926.26,35.37
2123373,-0.04,-0.08,0.91,1.89,4.52,-1.89,926.29,35.38
2123411,-0.02,-0.1,0.83,1.95,5.49,-1.83,926.29,35.38
2123449,-0.06,-0.09,0.89,2.32,3.23,-1.83,926.27,35.38
2123487,-0.07,-0.12,0.88,2.2,4.58,-1.71,926.29,35.39
2123525,-0.07,-0.09,0.9,1.95,3.17,-1.77,926.3,35.39
2123601,-0.05,-0.1,0.9,1.34,4.82,-1.59,926.36,35.36
2123639,-0.07,-0.1,1.0,1.71,5.62,-1.46,926.33,35.36
2123677,-0.06,-0.1,0.93,0.18,6.59,-1.1,926.34,35.36
2123766,-0.06,-0.1,1.06,-0.61,6.77,-0.92,926.3,35.32
2123804,-0.06,-0.09,1.23,0.49,4.76,-0.85,926.42,35.36
2123842,-0.04,-0.1,1.28,-0.55,6.53,-0.73,926.37,35.34
2123881,-0.06,-0.1,1.3,-0.73,7.02,-0.67,926.4,35.35
2123918,-0.07,-0.07,1.38,-0.79,6.71,-0.43,926.45,35.35
2123957,-0.04,-0.08,1.41,-2.01,6.65,-0.24,926.42,35.36
2123995,-0.06,-0.07,1.46,-2.08,5.19,-0.12,926.52,35.36
2124044,-0.09,-0.1,1.36,-2.62,5.55,0.24,926.54,35.36
2124082,-0.05,-0.1,1.39,-1.4,5.07,0.06,926.55,35.34
2124121,-0.02,-0.09,1.36,-1.1,5.55,0.12,926.62,35.35
2124159,-0.04,-0.08,1.28,-0.98,4.94,0.12,926.6,35.35
2124197,-0.06,-0.08,1.21,-0.31,4.46,0.37,926.69,35.35
2124235,0.0,-0.11,1.09,-1.28,6.77,0.31,926.58,35.35
2124273,-0.0,-0.11,1.05,-1.53,5.31,-0.24,926.67,35.36
2124311,-0.06,-0.1,1.06,-1.53,4.03,-0.31,926.6,35.36
2124349,-0.01,-0.09,1.13,-2.62,6.71,-0.31,926.63,35.35
2124399,0.0,-0.08,1.33,-2.87,6.35,-0.49,926.62,35.35
2124437,-0.04,-0.1,1.35,-2.44,6.65,-0.43,926.64,35.35
2124475,-0.05,-0.1,1.45,-2.2,5.98,-0.55,926.67,35.35
2124513,-0.04,-0.08,1.5,-1.83,5.49,-0.49,926.72,35.36
2124551,-0.03,-0.08,1.47,-1.22,5.07,-0.37,926.7,35.36
2124589,-0.04,-0.09,1.42,-0.92,4.76,-0.43,926.82,35.35
2124627,-0.03,-0.1,1.32,-0.43,6.04,-0.67,926.79,35.35
2124665,-0.02,-0.09,1.3,0.79,5.55,-0.92,926.85,35.36
2124703,-0.03,-0.1,1.19,0.85,7.75,-0.73,926.81,35.36
2124741,-0.02,-0.1,1.12,1.77,5.55,-1.04,926.83,35.37
2124791,-0.04,-0.1,1.02,1.89,6.16,-1.28,926.82,35.36
2124829,-0.02,-0.11,1.01,2.26,4.15,-1.46,926.76,35.37
2124867,-0.01,-0.11,1.0,1.89,4.76,-1.65,926.76,35.36
2124905,0.01,-0.1,0.99,1.95,4.03,-1.89,926.77,35.37
2124943,-0.02,-0.1,0.89,1.34,4.39,-1.89,926.82,35.37
2124981,0.02,-0.1,0.94,0.55,3.3,-2.2,926.75,35.38
2125019,-0.01,-0.11,1.08,0.85,1.28,-2.38,926.74,35.36
2125057,-0.06,-0.13,0.87,-1.1,2.56,-2.08,926.86,35.39
2125096,-0.02,-0.09,1.09,0.37,-1.22,-2.5,926.88,35.37
2125145,0.02,-0.1,0.95,-1.4,0.79,-2.87,926.82,35.36
2125183,-0.04,-0.09,1.02,0.06,-1.89,-2.69,926.79,35.35
2125221,0.01,-0.12,0.96,-1.04,0.31,-2.75,926.88,35.38
2125259,-0.02,-0.1,1.05,-0.67,-0.98,-3.42,926.86,35.36
2125298,0.01,-0.1,1.13,-2.01,-0.85,-3.05,926.81,35.36
2125336,0.01,-0.11,1.2,-2.01,-2.32,-3.11,926.81,35.36
2125374,-0.03,-0.1,1.27,-2.62,-2.38,-3.66,926.84,35.37
2125412,-0.02,-0.1,1.28,-3.72,-2.14,-3.66,926.88,35.38
2125450,0.0,-0.08,1.43,-3.3,-3.36,-3.85,926.85,35.37
2125499,-0.04,-0.09,1.4,-3.11,-1.1,-4.52,926.92,35.35
2125537,-0.04,-0.08,1.51,-1.77,-0.79,-4.46,926.99,35.38
2125576,-0.03,-0.1,1.52,-1.4,1.16,-4.7,926.98,35.37
2125614,-0.02,-0.09,1.56,-0.79,1.16,-5.0,926.96,35.37
2125652,-0.05,-0.08,1.53,0.0,2.26,-5.19,927.04,35.36
2125690,0.0,-0.09,1.5,-0.37,3.54,-5.0,926.99,35.37
2125728,-0.02,-0.08,1.49,0.49,2.01,-5.25,927.02,35.37
2125766,-0.04,-0.08,1.39,0.49,4.21,-5.13,927.02,35.38
2125804,-0.06,-0.1,1.3,1.53,4.15,-5.31,927.07,35.37
2125842,-0.03,-0.1,1.3,1.53,4.94,-5.31,926.97,35.37
2125891,-0.03,-0.09,1.24,1.46,3.05,-5.31,926.96,35.36
2125929,-0.05,-0.09,1.21,1.65,2.38,-5.31,926.97,35.37
2125968,-0.02,-0.1,1.23,1.22,2.56,-5.43,927.0,35.38
2126006,-0.05,-0.09,1.19,0.61,3.54,-5.43,926.98,35.37
2126044,-0.04,-0.09,1.23,0.79,1.95,-5.07,926.98,35.37
2126082,-0.01,-0.11,1.19,0.31,5.55,-5.49,927.02,35.38
2126120,-0.07,-0.1,1.18,1.71,5.49,-5.74,927.05,35.37
2126158,-0.05,-0.09,1.11,0.85,7.26,-5.37,926.99,35.37
2126196,-0.03,-0.1,1.12,1.4,6.29,-5.37,927.03,35.37
2126246,-0.04,-0.1,1.03,0.73,6.96,-5.31,927.03,35.36
2126284,-0.02,-0.1,1.03,0.67,6.1,-5.25,927.0,35.36
2126322,-0.03,-0.1,1.03,0.49,6.29,-5.49,926.97,35.37
2126360,-0.03,-0.11,1.01,0.06,5.49,-5.37,926.99,35.37
2126398,-0.03,-0.11,1.01,0.18,5.98,-5.49,927.0,35.37
2126436,-0.01,-0.11,1.02,-0.43,6.23,-5.37,926.98,35.38
2126474,-0.04,-0.11,1.06,-0.49,5.31,-5.43,927.01,35.37
2126512,-0.05,-0.11,1.03,-0.73,4.76,-5.31,927.01,35.37
2126550,-0.04,-0.09,1.14,-0.73,3.48,-5.37,926.97,35.36
2126588,-0.04,-0.1,1.14,-1.04,4.82,-5.37,926.97,35.37
2126664,-0.02,-0.09,1.18,-0.61,3.11,-5.31,926.95,35.35
2126702,-0.04,-0.1,1.16,-0.79,3.3,-5.25,927.0,35.36
2126740,-0.06,-0.1,1.13,-0.92,3.66,-5.31,926.98,35.36
2126829,-0.06,-0.1,1.13,-0.55,2.75,-5.25,926.92,35.32
2126867,-0.04,-0.1,1.09,-0.79,2.26,-5.13,926.96,35.34
2126905,-0.05,-0.08,1.08,-0.85,1.89,-5.07,926.97,35.34
2126944,-0.06,-0.1,1.1,-0.43,1.59,-4.88,926.95,35.34
2126982,-0.07,-0.1,1.05,-0.79,2.01,-4.7,926.96,35.35
2127020,-0.06,-0.08,1.08,-0.06,0.55,-4.82,926.96,35.36
2127070,-0.07,-0.1,1.0,-0.24,1.34,-4.58,926.91,35.34
2127108,-0.08,-0.08,0.99,0.31,0.37,-4.64,926.96,35.36
2127146,-0.08,-0.1,0.95,0.24,1.46,-4.33,926.9,35.35
2127184,-0.09,-0.1,0.91,-0.06,1.65,-4.15,926.91,35.35
2127222,-0.09,-0.08,0.9,0.12,1.4,-3.91,926.91,35.36
2127260,-0.1,-0.09,0.93,0.24,1.95,-3.78,926.88,35.35
2127298,-0.08,-0.1,0.9,-0.37,2.93,-3.42,926.83,35.37
2127336,-0.09,-0.09,0.97,-0.49,2.62,-3.48,926.9,35.36
2127374,-0.09,-0.1,0.99,-0.98,4.39,-3.17,926.87,35.36
2127424,-0.09,-0.08,1.03,-0.98,3.72,-2.93,926.81,35.35
2127462,-0.08,-0.09,1.06,-1.04,4.39,-2.69,926.9,35.38
2127500,-0.09,-0.09,1.08,-0.79,4.52,-2.5,926.92,35.35
2127538,-0.09,-0.09,1.09,-0.85,4.88,-2.08,926.92,35.36
2127576,-0.08,-0.09,1.15,-0.55,4.33,-2.2,926.88,35.36
2127614,-0.11,-0.08,1.12,-0.79,4.58,-1.89,926.88,35.36
2127652,-0.11,-0.08,1.15,-0.31,3.91,-1.71,926.94,35.37
2127690,-0.09,-0.09,1.09,-0.31,3.85,-1.46,926.88,35.36
2127728,-0.09,-0.08,1.1,-0.24,2.99,-1.34,926.89,35.36
2127766,-0.07,-0.09,1.1,0.18,3.54,-0.98,926.8,35.36
2127816,-0.09,-0.08,1.11,0.31,2.2,-0.73,926.85,35.37
2127854,-0.1,-0.08,1.15,0.49,2.14,-0.49,926.85,35.36
2127892,-0.09,-0.09,1.15,0.24,2.69,-0.31,926.93,35.37
2127930,-0.07,-0.08,1.16,0.43,2.69,-0.18,926.94,35.37
2127968,-0.06,-0.08,1.17,0.55,2.32,-0.24,926.95,35.37
2128006,-0.07,-0.09,1.14,0.85,3.3,-0.06,926.89,35.36
2128044,-0.05,-0.09,1.14,1.34,3.17,0.06,926.95,35.36
2128082,-0.07,-0.09,1.1,1.34,3.17,0.24,926.95,35.36
2128120,-0.07,-0.09,1.03,2.01,2.99,0.24,926.92,35.36
2128170,-0.05,-0.09,0.93,1.77,4.76,0.06,926.94,35.35
2128208,-0.06,-0.09,0.93,1.89,4.33,0.12,926.97,35.36
2128246,-0.02,-0.1,0.91,1.95,4.39,0.18,926.93,35.35
2128284,-0.04,-0.09,0.84,1.04,5.86,0.06,926.97,35.36
2128322,-0.05,-0.08,0.96,2.01,3.54,0.0,926.95,35.37
2128360,-0.03,-0.11,0.88,0.85,5.31,0.06,926.94,35.36
2128398,-0.05,-0.1,0.93,1.16,2.26,-0.12,926.95,35.36
2128436,-0.04,-0.09,0.9,0.18,4.03,-0.06,926.96,35.37
2128475,-0.0,-0.1,0.84,0.18,2.69,-0.06,926.96,35.37
2128513,-0.02,-0.08,0.94,0.73,1.71,-0.24,926.96,35.36
2128562,-0.01,-0.12,0.86,0.06,0.43,-0.24,927.0,35.36
2128600,-0.01,-0.08,0.98,0.67,0.67,-0.24,926.95,35.36
2128638,-0.04,-0.1,0.82,-1.04,1.95,-0.43,926.94,35.36
2128676,-0.05,-0.08,1.02,-0.37,-0.79,-0.61,926.87,35.35
2128714,0.0,-0.1,1.04,-1.53,2.75,-0.61,926.91,35.35
2128752,-0.03,-0.08,1.11,-0.73,-0.92,-0.85,926.91,35.36
2128791,-0.04,-0.09,1.18,-0.73,2.62,-0.79,926.89,35.34
2128829,-0.0,-0.11,1.17,-0.49,2.75,-1.1,926.92,35.36
2128867,-0.02,-0.09,1.26,0.31,1.16,-1.1,926.98,35.38
2128916,-0.0,-0.1,1.2,0.24,0.79,-1.22,926.94,35.36
2128954,-0.03,-0.08,1.2,0.79,-0.12,-1.65,926.88,35.36
2128992,-0.0,-0.09,1.15,0.98,-0.18,-1.77,926.93,35.36
2129031,-0.01,-0.09,1.24,1.4,-0.67,-1.89,926.92,35.37
2129069,0.01,-0.1,1.16,1.28,1.46,-2.26,926.97,35.36
2129107,0.0,-0.08,1.16,1.77,-0.49,-2.44,926.92,35.36
2129145,-0.05,-0.1,1.02,2.5,-0.55,-2.5,927.02,35.37
2129183,-0.03,-0.1,0.9,2.44,-1.4,-2.87,926.98,35.36
2129221,0.0,-0.09,0.95,3.78,-2.81,-3.3,926.95,35.36
2129271,-0.03,-0.1,0.77,4.09,-2.99,-3.23,926.96,35.34
2129309,-0.05,-0.07,0.74,4.46,-2.08,-3.23,927.0,35.36
2129347,-0.03,-0.11,0.64,4.03,-0.85,-3.48,926.9,35.36
2129385,-0.05,-0.09,0.69,3.48,-1.53,-3.6,926.91,35.37
2129423,-0.08,-0.09,0.65,2.38,-0.24,-3.36,926.88,35.36
2129461,-0.07,-0.11,0.68,1.83,0.73,-3.54,926.93,35.37
2129499,-0.03,-0.1,0.74,0.79,3.3,-3.85,926.87,35.36
2129537,-0.04,-0.07,0.8,0.43,2.87,-3.48,926.9,35.36
2129575,-0.03,-0.09,0.95,0.49,3.54,-3.3,926.98,35.35
2129613,-0.02,-0.09,0.96,-0.67,3.97,-3.48,926.9,35.36
2129689,-0.06,-0.09,1.04,-0.61,6.29,-3.17,926.94,35.33
2129727,-0.04,-0.08,1.2,0.79,3.11,-3.48,926.93,35.35
2129765,-0.02,-0.07,1.24,0.18,5.25,-3.11,927.0,35.36
2129856,-0.05,-0.08,1.32,1.71,2.08,-2.69,926.95,35.32
2129894,-0.03,-0.08,1.32,1.71,-0.73,-2.56,926.96,35.33
2129932,-0.03,-0.06,1.34,2.2,-1.16,-2.5,926.97,35.34
2129970,-0.02,-0.06,1.22,2.38,-1.4,-2.56,926.99,35.34
2130008,-0.02,-0.06,1.25,3.42,-2.81,-2.93,926.93,35.34
2130046,-0.03,-0.09,1.18,3.23,-1.1,-2.75,926.96,35.34
2130096,-0.03,-0.07,1.23,3.6,-2.44,-2.93,927.02,35.34
2130134,-0.05,-0.08,1.13,2.69,-1.04,-2.87,926.95,35.34
2130172,-0.04,-0.07,1.07,2.75,-1.46,-3.05,926.99,35.34
2130210,-0.05,-0.08,1.04,2.32,-0.12,-3.11,926.95,35.35
2130248,-0.03,-0.1,0.97,2.14,0.12,-3.17,927.02,35.34
2130286,-0.06,-0.08,0.97,2.2,0.85,-3.3,926.97,35.34
2130324,-0.04,-0.08,0.93,1.95,2.26,-2.93,926.99,35.35
2130362,-0.04,-0.08,0.93,2.01,3.42,-2.81,926.93,35.36
2130400,-0.05,-0.09,0.9,2.26,4.03,-2.93,926.92,35.35
2130438,-0.05,-0.09,0.9,2.2,4.21,-2.87,926.93,35.36
2130488,-0.04,-0.08,0.91,1.95,4.88,-2.87,926.92,35.34
2130526,-0.05,-0.08,0.93,2.01,4.88,-2.87,926.89,35.34
2130564,-0.06,-0.09,0.97,1.83,5.86,-2.38,926.86,35.35
2130602,-0.04,-0.09,1.01,1.4,5.92,-2.44,926.88,35.36
2130641,-0.06,-0.08,1.05,1.59,6.65,-2.38,926.93,35.36
2130679,-0.05,-0.08,1.06,1.65,6.23,-2.08,926.96,35.36
2130717,-0.06,-0.08,1.08,1.95,6.23,-2.01,926.96,35.36
2130755,-0.05,-0.08,1.05,2.08,5.25,-2.01,926.94,35.37
2130793,-0.06,-0.08,1.06,2.38,4.82,-1.83,926.9,35.34
2130843,-0.05,-0.08,1.02,2.44,5.19,-1.59,926.92,35.35
2130881,-0.06,-0.08,1.04,2.75,5.07,-1.71,926.88,35.34
2130919,-0.05,-0.08,1.02,2.5,5.86,-1.59,926.93,35.36
2130957,-0.05,-0.09,1.03,2.69,4.58,-1.28,926.87,35.36
2130995,-0.05,-0.09,1.03,2.38,4.39,-1.34,926.86,35.36
2131033,-0.04,-0.09,1.05,2.32,4.88,-1.22,926.86,35.35
2131071,-0.03,-0.09,1.06,2.32,5.92,-1.4,926.9,35.36
2131109,-0.05,-0.09,1.01,2.44,5.92,-1.22,926.91,35.36
2131147,-0.07,-0.09,0.98,2.62,5.37,-1.22,926.84,35.35
2131185,-0.04,-0.08,0.96,2.32,5.74,-1.1,926.81,35.35
2131235,-0.06,-0.09,0.97,2.5,5.37,-1.04,926.81,35.35
2131273,-0.05,-0.1,0.92,2.44,6.1,-0.98,926.88,35.36
2131311,-0.05,-0.09,0.95,2.75,5.37,-0.98,926.83,35.35
2131349,-0.06,-0.09,0.92,2.5,6.23,-0.79,926.8,35.36
2131387,-0.05,-0.08,0.91,2.14,5.92,-0.79,926.8,35.36
2131425,-0.06,-0.09,0.9,1.65,6.9,-0.73,926.81,35.36
2131463,-0.05,-0.09,0.91,0.98,6.29,-0.79,926.8,35.37
2131501,-0.06,-0.09,0.94,0.61,6.47,-0.67,926.8,35.37
2131539,-0.05,-0.1,0.92,-0.06,7.63,-0.61,926.78,35.36
2131589,-0.05,-0.08,1.05,-0.24,6.29,-0.67,926.77,35.36
2131627,-0.07,-0.1,0.98,-0.61,6.96,-0.55,926.8,35.37
2131665,-0.07,-0.08,1.07,-0.31,5.19,-0.49,926.77,35.35
2131703,-0.05,-0.09,1.09,-0.49,6.47,-0.37,926.73,35.35
2131741,-0.04,-0.08,1.05,-0.43,4.33,-0.37,926.81,35.36
2131779,-0.08,-0.08,1.04,-0.31,4.09,-0.24,926.71,35.36
2131817,-0.07,-0.09,0.94,-0.55,3.42,-0.31,926.65,35.36
2131855,-0.06,-0.08,0.96,0.0,2.38,-0.12,926.72,35.36
2131893,-0.06,-0.09,0.89,0.0,2.14,0.0,926.69,35.36
2131943,-0.07,-0.08,0.9,0.31,-0.31,-0.12,926.74,35.34
2131981,-0.07,-0.08,0.9,0.24,1.04,0.0,926.7,35.36
2132019,-0.06,-0.08,0.91,0.55,0.12,0.31,926.69,35.36
2132057,-0.07,-0.09,0.97,0.98,0.98,0.24,926.64,35.35
2132095,-0.06,-0.09,0.95,0.79,1.53,0.06,926.75,35.36
2132133,-0.07,-0.08,1.02,1.1,2.44,-0.12,926.7,35.36
2132171,-0.04,-0.09,0.99,1.16,2.93,-0.12,926.65,35.35
2132209,-0.05,-0.09,1.0,1.16,2.44,0.18,926.72,35.36
2132247,-0.04,-0.09,0.97,0.49,2.99,0.06,926.72,35.34
2132285,-0.08,-0.08,1.0,0.79,1.22,0.24,926.71,35.35
2132335,-0.05,-0.1,0.94,-0.43,2.14,0.31,926.7,35.33
2132373,-0.06,-0.08,1.01,-0.37,0.31,0.24,926.69,35.34
2132411,-0.06,-0.09,1.0,-1.4,1.53,0.37,926.65,35.33
2132449,-0.03,-0.08,1.06,-1.77,0.98,0.24,926.73,35.34
2132487,-0.03,-0.09,1.14,-2.08,2.01,0.31,926.77,35.35
2132525,-0.05,-0.09,1.14,-2.08,1.46,0.37,926.71,35.37
2132563,-0.05,-0.08,1.21,-2.01,1.83,0.12,926.73,35.34
2132601,-0.06,-0.08,1.19,-2.01,2.75,-0.06,926.76,35.36
2132639,-0.05,-0.07,1.24,-1.28,1.59,-0.06,926.74,35.35
2132767,-0.05,-0.07,1.22,0.18,1.95,0.0,926.68,35.29
2132805,-0.03,-0.08,1.21,0.61,1.46,-0.12,926.72,35.3
2132843,-0.05,-0.08,1.2,0.98,1.65,-0.18,926.73,35.31
2132933,-0.03,-0.08,1.13,1.46,1.28,-0.12,926.66,35.27
2132971,-0.04,-0.07,1.16,2.44,0.31,-0.31,926.66,35.31
2133009,-0.05,-0.08,1.1,2.2,1.59,-0.12,926.68,35.31
2133047,-0.04,-0.08,1.09,2.56,0.43,-0.12,926.62,35.3
2133085,-0.06,-0.09,1.05,2.44,1.16,-0.24,926.74,35.32
2133123,-0.05,-0.08,1.02,2.62,1.28,-0.31,926.64,35.32
2133161,-0.05,-0.07,1.04,3.36,2.08,-0.37,926.67,35.33
2133211,-0.03,-0.08,1.0,3.3,2.99,-0.49,926.66,35.32
2133249,-0.06,-0.07,1.05,3.78,3.11,-0.43,926.66,35.33
2133287,-0.07,-0.09,1.02,3.54,4.88,-0.43,926.66,35.31
2133325,-0.04,-0.08,1.06,3.6,3.66,-0.37,926.61,35.32
2133363,-0.06,-0.07,1.1,3.66,3.6,-0.37,926.7,35.34
2133401,-0.07,-0.09,1.03,3.36,4.52,-0.24,926.71,35.34
2133439,-0.05,-0.07,1.08,4.09,3.6,-0.31,926.62,35.34
2133477,-0.04,-0.09,0.92,3.42,4.94,-0.18,926.65,35.34
2133515,-0.09,-0.08,0.88,4.15,3.17,-0.18,926.65,35.33
2133565,-0.06,-0.09,0.79,4.39,4.7,-0.06,926.61,35.33
2133603,-0.07,-0.08,0.73,4.39,3.23,-0.06,926.58,35.33
2133641,-0.09,-0.08,0.66,4.39,2.81,0.06,926.57,35.34
2133679,-0.07,-0.08,0.64,3.85,3.54,-0.06,926.58,35.33
2133717,-0.06,-0.07,0.72,4.27,3.85,0.18,926.52,35.34
2133755,-0.07,-0.09,0.66,3.23,4.27,0.67,926.55,35.34
2133794,-0.1,-0.08,0.75,3.85,1.89,0.79,926.51,35.34
2133832,-0.06,-0.09,0.78,2.81,3.97,0.85,926.49,35.36
2133870,-0.04,-0.08,0.87,2.87,1.95,0.85,926.48,35.34
2133908,-0.09,-0.07,0.92,2.2,1.28,1.59,926.51,35.35
2133958,-0.08,-0.09,0.97,1.95,0.73,1.71,926.52,35.33
2133996,-0.07,-0.08,1.05,1.77,0.49,1.65,926.47,35.34
2134034,-0.07,-0.09,1.07,2.01,1.28,2.08,926.54,35.35
2134072,-0.08,-0.08,1.06,2.32,1.22,1.89,926.51,35.36
2134110,-0.08,-0.07,1.04,2.56,2.2,2.08,926.56,35.35
2134148,-0.05,-0.08,1.03,2.87,2.44,2.26,926.53,35.36
2134186,-0.07,-0.08,0.97,2.99,2.99,2.2,926.53,35.35
2134224,-0.09,-0.08,0.9,3.17,2.69,2.5,926.5,35.35
2134262,-0.07,-0.08,0.91,3.54,2.5,2.56,926.57,35.36
2134300,-0.06,-0.09,0.85,3.3,4.46,2.5,926.53,35.35
2134350,-0.04,-0.08,0.88,3.78,5.0,2.69,926.58,35.34
2134388,-0.05,-0.1,0.83,4.09,5.07,2.75,926.49,35.33
2134426,-0.05,-0.09,0.82,4.03,5.37,2.75,926.55,35.34
2134464,-0.05,-0.09,0.78,4.33,7.2,2.81,926.52,35.36
2134502,-0.05,-0.09,0.74,3.97,7.39,2.87,926.56,35.34
2134540,-0.04,-0.09,0.74,3.97,6.47,2.56,926.5,35.36
2134578,-0.04,-0.09,0.71,3.17,5.49,2.69,926.57,35.36
2134616,-0.02,-0.1,0.75,2.93,4.64,2.75,926.54,35.34
2134654,-0.01,-0.11,0.71,1.46,4.76,2.5,926.52,35.34
2134704,-0.06,-0.08,0.77,1.16,-0.24,2.62,926.49,35.35
2134742,-0.04,-0.11,0.83,0.55,0.85,2.56,926.46,35.35
2134780,0.0,-0.11,0.89,-0.18,1.77,2.26,926.47,35.35
2134818,-0.05,-0.08,0.9,-0.18,1.95,1.89,926.49,35.33
2134856,-0.07,-0.07,1.02,-0.12,1.77,1.95,926.47,35.34
2134894,-0.02,-0.11,1.07,-0.37,6.59,1.71,926.51,35.35
2134932,-0.07,-0.09,1.2,1.04,5.86,1.4,926.49,35.34
2134970,-0.07,-0.11,1.16,0.79,6.77,1.65,926.49,35.34
2135009,-0.08,-0.07,1.11,0.61,5.98,1.46,926.54,35.35
2135047,-0.04,-0.06,1.19,0.98,9.34,1.22,926.53,35.35
2135096,-0.0,-0.09,1.15,0.73,8.0,1.16,926.52,35.33
2135134,-0.05,-0.08,1.2,1.34,7.87,1.16,926.53,35.34
2135173,-0.02,-0.1,1.14,0.73,6.77,0.85,926.52,35.34
2135211,-0.01,-0.07,1.35,1.77,5.62,0.67,926.47,35.35
2135249,-0.01,-0.09,1.27,0.92,6.59,0.61,926.47,35.33
2135287,-0.03,-0.07,1.34,2.14,4.46,0.12,926.48,35.34
2135325,-0.05,-0.1,1.28,2.14,8.42,-0.12,926.49,35.34
2135363,-0.0,-0.08,1.37,2.2,6.35,-0.31,926.44,35.35
2135401,-0.07,-0.07,1.38,3.11,8.24,-0.18,926.44,35.33
2135439,-0.05,-0.08,1.35,3.42,8.97,-0.37,926.45,35.34
2135489,-0.02,-0.08,1.46,4.46,9.95,-0.55,926.45,35.34
2135527,-0.04,-0.1,1.39,5.25,8.3,-0.61,926.46,35.34
2135565,-0.06,-0.08,1.44,6.29,8.48,-0.55,926.42,35.32
2135603,-0.05,-0.09,1.32,5.55,9.89,-0.73,926.45,35.34
2135641,-0.04,-0.06,1.35,5.92,8.06,-0.85,926.43,35.34
2135679,-0.04,-0.08,1.26,5.49,9.03,-0.85,926.44,35.35
2135717,-0.04,-0.09,1.21,5.8,8.12,-0.92,926.43,35.33
2135755,-0.04,-0.08,1.2,6.04,7.45,-0.85,926.41,35.33
2135793,-0.04,-0.09,1.17,6.1,6.71,-0.79,926.42,35.33
2135869,-0.06,-0.08,1.1,7.02,7.26,-1.1,926.46,35.3
2135907,-0.08,-0.09,1.07,8.54,8.85,-1.04,926.4,35.32
2135945,-0.05,-0.11,0.95,8.0,11.05,-0.85,926.38,35.32
2136034,-0.08,-0.1,0.72,8.79,14.65,-0.61,926.34,35.3
2136073,-0.05,-0.07,0.7,9.7,12.51,-0.61,926.29,35.32
2136111,-0.06,-0.11,0.67,9.22,14.34,-0.49,926.2,35.3
2136149,-0.06,-0.1,0.56,8.0,13.31,-0.31,926.2,35.33
2136187,-0.05,-0.07,0.62,8.54,12.45,-0.06,926.23,35.32
2136225,-0.02,-0.11,0.38,5.13,15.44,-0.12,926.16,35.33
2136275,-0.05,-0.07,0.42,5.68,10.74,0.06,926.2,35.31
2136313,-0.02,-0.1,0.34,4.15,10.99,0.37,926.17,35.32
2136351,-0.0,-0.1,0.46,3.17,8.3,0.37,926.23,35.32
2136389,-0.02,-0.1,0.48,1.59,9.03,0.37,926.18,35.32
2136427,-0.06,-0.09,0.52,0.49,7.45,0.55,926.21,35.33
2136465,-0.01,-0.11,0.58,-0.67,8.79,0.43,926.19,35.33
2136503,-0.02,-0.1,0.62,-2.01,9.52,0.49,926.19,35.32
2136541,-0.04,-0.1,0.69,-2.08,9.52,0.43,926.24,35.33
2136579,-0.02,-0.1,0.8,-2.99,10.93,0.31,926.17,35.34
2136617,-0.01,-0.09,0.93,-2.99,12.08,0.06,926.14,35.32
2136667,-0.01,-0.11,1.04,-3.17,13.18,0.18,926.17,35.32
2136705,-0.02,-0.1,1.21,-2.5,15.38,0.06,926.11,35.34
2136743,0.02,-0.08,1.24,-2.38,18.13,0.18,926.2,35.33
2136781,0.02,-0.06,1.33,-1.28,17.15,0.18,926.14,35.32
2136819,-0.02,-0.08,1.3,-0.98,18.31,0.24,926.17,35.33
2136857,-0.02,-0.09,1.2,-0.31,18.43,0.18,926.17,35.34
2136895,0.02,-0.07,1.2,0.79,20.14,0.12,926.19,35.34
2136933,0.01,-0.09,1.06,1.04,20.57,-0.12,926.15,35.32
2136972,0.0,-0.07,1.07,1.4,19.65,0.0,926.18,35.34
2137021,0.0,-0.1,1.09,1.77,22.89,-0.12,926.14,35.33
2137059,0.02,-0.1,1.13,1.83,20.75,-0.06,926.1,35.32
2137097,-0.0,-0.09,1.17,2.01,20.94,0.12,926.06,35.33
2137135,-0.01,-0.12,1.05,1.65,21.79,0.06,926.12,35.35
2137173,0.06,-0.08,1.13,0.92,19.35,-0.06,926.18,35.33
2137212,0.05,-0.08,1.1,0.18,19.17,-0.06,926.13,35.34
2137250,0.04,-0.09,1.12,-0.37,15.08,-0.12,926.23,35.35
2137288,0.02,-0.1,1.14,-0.67,14.4,-0.31,926.15,35.32
2137326,0.05,-0.09,1.19,-1.16,11.11,-0.49,926.21,35.34
2137364,0.04,-0.1,1.24,-1.16,8.73,-0.55,926.2,35.35
2137414,0.02,-0.09,1.18,-1.4,7.14,-1.1,926.23,35.32
2137452,0.04,-0.1,1.18,-1.28,7.14,-1.28,926.24,35.32
2137490,0.05,-0.1,1.19,-0.85,5.55,-1.59,926.21,35.34
2137528,0.02,-0.1,1.2,-1.04,5.13,-1.89,926.26,35.35
2137566,0.0,-0.1,1.15,-1.04,5.37,-2.38,926.2,35.34
2137604,0.05,-0.11,1.12,-1.28,5.49,-2.99,926.18,35.34
2137642,0.03,-0.1,1.08,-1.46,4.64,-3.48,926.25,35.34
2137680,0.03,-0.12,0.98,-2.08,5.55,-3.66,926.24,35.35
2137718,0.02,-0.1,0.99,-2.32,6.29,-4.33,926.2,35.36
2137768,0.01,-0.1,0.95,-3.36,4.64,-4.46,926.2,35.34
2137806,-0.01,-0.1,0.96,-4.03,5.13,-4.76,926.19,35.33
2137844,-0.03,-0.1,0.97,-4.46,5.31,-5.0,926.19,35.34
2137882,-0.01,-0.08,1.12,-4.15,4.88,-5.19,926.22,35.33
2137920,-0.01,-0.1,1.04,-4.21,6.04,-5.07,926.28,35.34
2137959,-0.03,-0.08,1.06,-2.75,4.33,-5.25,926.27,35.34
2137997,-0.03,-0.09,1.02,-2.2,5.86,-5.25,926.26,35.34
2138035,-0.02,-0.11,0.87,-2.08,7.08,-5.19,926.24,35.34
2138073,-0.03,-0.08,0.87,-1.46,3.11,-5.0,926.23,35.35
2138111,-0.05,-0.1,0.86,-1.83,5.0,-4.94,926.19,35.34
2138161,0.01,-0.08,0.96,-2.56,3.6,-5.07,926.17,35.33
2138199,-0.04,-0.08,1.06,-3.36,3.85,-4.82,926.11,35.33
2138237,-0.04,-0.11,1.1,-4.15,3.48,-4.76,926.12,35.33
2138275,-0.02,-0.07,1.4,-3.11,1.89,-4.64,926.21,35.34
2138313,-0.01,-0.09,1.38,-4.03,7.81,-4.76,926.21,35.34
2138351,-0.02,-0.06,1.49,-2.44,4.27,-4.88,926.26,35.35
2138389,-0.03,-0.07,1.5,-2.08,8.12,-4.64,926.25,35.34
2138427,-0.01,-0.08,1.41,-1.65,7.14,-4.64,926.22,35.33
2138466,-0.05,-0.07,1.45,-0.67,7.57,-4.64,926.18,35.33
2138515,-0.02,-0.11,1.33,-0.55,7.57,-4.64,926.19,35.34
2138553,0.0,-0.06,1.45,-0.12,5.55,-4.94,926.17,35.33
2138592,0.0,-0.09,1.39,-1.04,8.61,-5.13,926.2,35.33
2138630,0.02,-0.08,1.54,-0.55,5.86,-4.88,926.19,35.33
2138668,-0.0,-0.07,1.63,0.79,5.86,-4.82,926.14,35.34
2138706,-0.01,-0.09,1.58,0.43,6.29,-4.88,926.21,35.33
2138744,0.0,-0.09,1.57,1.28,8.36,-5.31,926.24,35.34
2138782,-0.01,-0.07,1.52,1.71,5.8,-5.25,926.21,35.34
2138820,-0.01,-0.05,1.52,2.56,3.97,-5.13,926.23,35.34
2138896,-0.01,-0.07,1.36,2.99,3.6,-5.43,926.16,35.32
2138934,-0.05,-0.11,1.24,4.39,4.64,-5.37,926.12,35.33
2138972,0.02,-0.09,1.19,2.08,3.17,-5.62,926.08,35.31
2139061,-0.07,-0.1,0.92,0.67,4.7,-5.62,926.04,35.29
2139100,0.01,-0.11,1.1,1.4,5.55,-6.23,926.07,35.3
2139138,0.01,-0.12,0.88,-1.65,8.79,-6.53,926.04,35.32
2139176,-0.06,-0.07,0.96,-0.31,5.8,-6.16,926.03,35.31
2139214,-0.04,-0.12,0.81,-1.83,11.84,-6.23,926.03,35.32
2139252,0.01,-0.09,0.93,-1.77,8.54,-6.47,926.05,35.32
2139290,-0.03,-0.09,0.97,-2.69,9.46,-6.04,925.96,35.32
2139340,-0.05,-0.1,1.06,-3.42,8.48,-6.23,925.99,35.32
2139378,-0.02,-0.11,1.14,-3.72,10.31,-6.23,926.0,35.33
2139416,0.02,-0.11,1.18,-5.0,9.34,-6.1,925.98,35.32
2139454,-0.02,-0.08,1.35,-3.6,7.26,-6.1,925.96,35.31
2139492,-0.03,-0.09,1.29,-4.76,10.93,-6.16,925.94,35.31
2139530,-0.03,-0.07,1.47,-2.56,6.71,-6.23,926.01,35.33
2139568,0.01,-0.1,1.38,-4.21,9.09,-5.98,925.99,35.32
2139607,-0.04,-0.08,1.44,-1.4,3.6,-6.29,925.81,35.33
2139645,-0.06,-0.08,1.34,-2.14,5.8,-6.16,925.85,35.32
2139694,-0.04,-0.1,1.32,-1.04,3.78,-6.1,925.82,35.32
2139733,-0.03,-0.09,1.29,-0.06,2.56,-6.04,925.82,35.32
2139771,-0.07,-0.1,1.17,0.31,1.53,-5.92,925.77,35.32
2139809,-0.05,-0.08,1.11,1.16,-0.24,-5.98,925.69,35.34
2139847,-0.04,-0.08,1.06,0.67,-0.67,-5.86,925.71,35.32
2139885,-0.08,-0.09,1.06,0.12,-1.34,-5.62,925.65,35.32
2139923,-0.08,-0.1,1.06,-0.31,-2.26,-5.55,925.61,35.32
2139961,-0.06,-0.1,1.14,-0.92,-3.05,-5.43,925.55,35.32
2139999,-0.04,-0.09,1.1,-2.32,-3.17,-5.43,925.58,35.33
2140049,-0.06,-0.09,1.15,-2.14,-2.75,-5.37,925.52,35.31
2140087,-0.08,-0.1,1.15,-2.14,-3.78,-5.43,925.54,35.33
2140125,-0.09,-0.09,1.21,-2.2,-3.05,-5.31,925.52,35.32
2140163,-0.07,-0.08,1.3,-2.62,-4.09,-5.13,925.56,35.34
2140201,-0.07,-0.09,1.33,-2.56,-1.65,-5.25,925.56,35.34
2140239,-0.05,-0.09,1.3,-2.38,-1.71,-4.88,925.56,35.32
2140278,-0.05,-0.1,1.29,-2.75,-0.61,-4.82,925.59,35.33
2140316,-0.06,-0.09,1.19,-3.85,-1.46,-4.82,925.56,35.33
2140354,-0.07,-0.07,1.21,-4.03,-1.59,-4.58,925.45,35.33
2140392,-0.02,-0.1,1.19,-4.88,-0.98,-4.64,925.45,35.34
2140442,-0.05,-0.08,1.15,-6.16,-1.16,-4.7,925.48,35.32
2140480,-0.05,-0.09,1.19,-5.86,-0.12,-5.0,925.54,35.33
2140518,-0.08,-0.1,1.18,-6.53,0.49,-4.82,925.46,35.32
2140556,-0.04,-0.09,1.22,-7.14,0.37,-4.7,925.47,35.32
2140594,-0.06,-0.09,1.26,-6.84,0.98,-4.94,925.49,35.33
2140632,-0.07,-0.09,1.27,-6.96,1.83,-4.82,925.45,35.34
2140670,-0.02,-0.08,1.33,-6.96,1.1,-4.82,925.48,35.34
2140708,-0.06,-0.08,1.31,-6.9,1.1,-4.76,925.41,35.34
2140746,-0.07,-0.09,1.34,-6.65,-0.85,-4.76,925.44,35.34
2140796,-0.06,-0.09,1.39,-6.29,-1.34,-4.64,925.37,35.32
2140834,-0.07,-0.09,1.36,-5.92,-1.71,-4.39,925.33,35.32
2140872,-0.05,-0.07,1.37,-5.68,-1.65,-4.27,925.36,35.32
2140910,-0.07,-0.08,1.32,-4.76,-1.53,-4.27,925.36,35.33
2140948,-0.08,-0.08,1.33,-3.05,-2.56,-4.33,925.34,35.32
2140986,-0.06,-0.09,1.34,-2.26,-1.04,-4.33,925.33,35.33
2141024,-0.08,-0.08,1.34,-1.34,-2.32,-3.97,925.3,35.33
2141063,-0.07,-0.09,1.34,-0.79,-1.22,-3.66,925.33,35.33
2141101,-0.05,-0.06,1.36,0.0,-2.44,-3.72,925.26,35.31
2141150,-0.09,-0.07,1.31,1.1,-1.59,-3.42,925.24,35.31
2141189,-0.05,-0.09,1.27,1.53,-3.05,-3.3,925.2,35.32
2141227,-0.08,-0.09,1.17,0.92,-2.75,-3.11,925.08,35.32
2141265,-0.09,-0.07,1.14,0.79,-3.85,-2.75,925.21,35.33
2141303,-0.07,-0.08,1.07,0.12,-2.2,-2.75,925.09,35.31
2141341,-0.06,-0.08,1.1,-0.12,-5.43,-2.38,925.05,35.31
2141379,-0.07,-0.11,1.07,-0.92,-3.78,-2.14,925.08,35.32
2141417,-0.07,-0.08,1.1,-1.16,-7.14,-2.01,924.99,35.32
2141455,-0.08,-0.09,1.15,-1.89,-6.23,-1.65,925.06,35.32
2141505,-0.07,-0.09,1.15,-2.81,-7.26,-1.53,925.05,35.31
2141543,-0.05,-0.08,1.25,-3.42,-8.3,-1.46,925.02,35.31
2141581,-0.09,-0.11,1.15,-4.09,-6.53,-1.1,924.97,35.31
2141619,-0.08,-0.07,1.22,-3.85,-8.67,-1.1,924.95,35.34
2141657,-0.07,-0.08,1.18,-4.88,-5.98,-0.79,925.02,35.33
2141696,-0.06,-0.08,1.24,-4.46,-6.65,-0.79,924.98,35.32
2141734,-0.1,-0.07,1.31,-4.58,-4.94,-0.49,925.04,35.32
2141772,-0.09,-0.07,1.38,-3.54,-4.33,-0.24,925.02,35.32
2141810,-0.07,-0.08,1.41,-2.44,-1.65,-0.24,925.04,35.32
2141885,-0.09,-0.07,1.38,-0.18,2.5,0.12,925.06,35.28
2141923,-0.07,-0.06,1.31,0.92,5.43,0.43,925.0,35.3
2141961,-0.05,-0.06,1.3,2.26,6.47,0.37,925.02,35.31
2142051,-0.05,-0.09,1.19,3.78,6.65,0.92,924.92,35.27
2142089,-0.05,-0.09,1.12,3.72,6.47,1.28,924.85,35.27
2142127,-0.06,-0.09,0.98,3.17,7.57,1.71,924.86,35.28
2142165,-0.04,-0.07,0.95,2.93,7.69,1.77,924.83,35.28
2142203,-0.03,-0.08,0.95,2.99,7.26,2.01,924.84,35.29
2142241,-0.05,-0.1,0.87,2.44,7.26,2.32,924.79,35.3
2142279,-0.03,-0.06,0.91,2.5,5.86,2.5,924.82,35.29
2142329,-0.02,-0.08,0.86,0.73,4.58,2.87,924.77,35.3
2142367,-0.0,-0.07,0.98,1.28,1.59,2.81,924.77,35.31
2142405,-0.01,-0.11,0.91,0.12,2.38,2.69,924.71,35.3
2142443,-0.01,-0.08,0.95,0.79,-0.18,2.69,924.7,35.29
2142481,-0.01,-0.08,0.9,0.61,0.55,2.44,924.69,35.3
2142519,-0.0,-0.08,0.9,1.04,-1.28,2.08,924.69,35.29
2142557,0.0,-0.09,0.93,1.22,1.28,1.83,924.67,35.3
2142595,0.01,-0.09,0.94,1.89,0.55,1.59,924.71,35.31
2142633,-0.01,-0.1,0.99,2.56,0.85,1.34,924.67,35.3
2142671,-0.03,-0.09,0.91,2.87,2.32,1.16,924.65,35.3
2142721,0.01,-0.09,0.91,3.11,3.3,0.79,924.55,35.29
2142759,0.01,-0.09,0.81,3.11,3.66,0.61,924.53,35.29
2142797,0.02,-0.08,0.8,2.75,3.05,0.43,924.48,35.29
2142835,0.01,-0.1,0.78,2.14,5.37,0.06,924.51,35.3
2142873,0.02,-0.09,0.88,2.2,2.81,-0.12,924.46,35.29
2142911,0.01,-0.1,0.9,2.2,3.6,-0.06,924.45,35.3
2142949,-0.0,-0.1,0.85,2.32,2.93,-0.18,924.47,35.28
2142987,-0.01,-0.08,0.9,3.23,2.69,-0.49,924.44,35.29
2143025,0.02,-0.08,0.81,3.3,3.17,-0.79,924.47,35.29
2143075,0.01,-0.08,0.83,4.46,2.75,-0.73,924.39,35.28
2143113,0.02,-0.09,0.79,4.33,4.33,-1.16,924.36,35.28
2143151,-0.0,-0.08,0.83,4.46,4.64,-1.53,924.34,35.28
2143189,0.01,-0.08,0.85,3.91,4.7,-1.65,924.3,35.29
2143227,0.01,-0.09,0.88,3.85,5.92,-2.08,924.31,35.28
2143265,0.01,-0.09,0.92,3.85,6.9,-2.32,924.36,35.3
2143303,0.01,-0.09,0.92,3.85,8.3,-2.32,924.3,35.28
2143341,-0.01,-0.08,0.9,3.91,9.28,-2.5,924.26,35.29
2143380,-0.02,-0.08,0.95,3.85,8.36,-2.87,924.2,35.29
2143418,-0.0,-0.08,0.95,3.66,8.85,-2.87,924.19,35.29
2143467,0.0,-0.07,1.01,3.17,6.41,-2.87,924.16,35.29
2143505,0.0,-0.08,1.0,2.44,6.77,-2.81,924.15,35.29
2143543,-0.02,-0.07,1.02,2.5,4.7,-2.99,924.16,35.3
2143582,-0.02,-0.09,1.02,3.17,4.58,-3.17,924.18,35.28
2143620,-0.01,-0.08,0.98,3.05,3.85,-3.17,924.12,35.3
2143658,-0.0,-0.07,1.01,3.85,3.05,-3.48,924.09,35.3
2143696,-0.01,-0.08,0.94,3.85,3.48,-3.42,924.03,35.29
2143734,-0.01,-0.08,0.9,4.15,2.75,-3.48,924.04,35.3
2143772,-0.01,-0.09,0.89,4.21,3.66,-3.72,924.04,35.3
2143822,-0.01,-0.08,0.82,3.85,4.27,-3.78,924.03,35.28
2143860,-0.03,-0.07,0.81,3.91,5.49,-4.03,923.96,35.3
2143898,-0.01,-0.09,0.77,3.36,6.41,-4.09,923.94,35.3
2143936,-0.01,-0.08,0.76,2.99,6.16,-4.27,923.96,35.31
2143974,-0.05,-0.08,0.77,2.81,7.02,-4.33,923.9,35.3
2144012,-0.03,-0.09,0.71,2.26,8.3,-4.39,923.93,35.3
2144050,-0.05,-0.07,0.76,2.26,7.51,-4.46,923.85,35.31
2144088,-0.04,-0.08,0.75,2.08,8.36,-4.27,923.83,35.3
2144126,-0.04,-0.09,0.76,1.89,9.28,-4.21,923.87,35.31
2144164,-0.05,-0.08,0.8,1.89,9.58,-4.21,923.88,35.31
2144214,-0.05,-0.08,0.85,2.26,9.22,-4.03,923.82,35.28
2144252,-0.04,-0.09,0.8,1.89,11.17,-3.85,923.83,35.31
2144290,-0.05,-0.07,0.82,2.75,10.38,-3.97,923.78,35.3
2144328,-0.03,-0.08,0.8,2.44,12.33,-3.91,923.81,35.31
2144366,-0.04,-0.08,0.84,2.69,11.78,-4.03,923.81,35.31
2144405,-0.04,-0.08,0.91,3.54,12.94,-3.78,923.81,35.31
2144443,-0.05,-0.09,0.88,3.54,13.92,-3.72,923.77,35.32
2144481,-0.05,-0.07,0.92,4.7,13.24,-3.72,923.77,35.3
2144519,-0.06,-0.06,0.88,5.07,13.43,-3.6,923.72,35.3
2144569,-0.05,-0.08,0.85,6.1,13.18,-3.48,923.68,35.28
2144607,-0.02,-0.09,0.79,6.41,12.94,-3.6,923.68,35.31
2144645,-0.03,-0.08,0.73,6.41,12.51,-3.54,923.66,35.31
2144683,-0.06,-0.07,0.68,5.62,12.57,-3.23,923.54,35.3
2144721,-0.05,-0.08,0.7,5.25,12.33,-3.17,923.54,35.29
2144759,-0.05,-0.09,0.69,4.33,12.76,-3.23,923.57,35.29
2144797,-0.05,-0.08,0.73,3.97,12.15,-3.23,923.58,35.3
2144836,-0.03,-0.08,0.75,3.36,13.0,-3.11,923.61,35.3
2144874,-0.03,-0.08,0.77,3.17,12.08,-3.05,923.58,35.3
2144912,-0.03,-0.07,0.83,2.75,11.29,-3.11,923.43,35.29
2144987,-0.03,-0.08,0.86,2.38,9.64,-3.05,923.5,35.28
2145026,-0.03,-0.07,0.89,2.08,8.67,-3.23,923.39,35.29
2145064,-0.04,-0.08,0.86,1.95,8.67,-3.23,923.36,35.29
2145153,-0.04,-0.08,0.85,1.4,8.06,-3.3,923.41,35.25
2145191,-0.06,-0.08,0.87,1.22,7.87,-3.11,923.4,35.28
2145229,-0.03,-0.07,0.88,0.92,8.12,-3.36,923.47,35.29
2145267,-0.06,-0.07,0.88,0.73,6.9,-3.36,923.4,35.29
2145305,-0.06,-0.07,0.88,0.49,5.86,-3.42,923.41,35.29
2145343,-0.03,-0.07,0.94,0.31,6.29,-3.42,923.31,35.29
2145393,-0.05,-0.08,0.92,0.0,5.92,-3.3,923.29,35.27
2145431,-0.07,-0.07,0.93,-0.61,4.94,-3.42,923.34,35.29
2145469,-0.06,-0.06,1.07,-0.61,4.64,-3.54,923.36,35.29
2145507,-0.04,-0.06,1.13,-0.79,5.98,-3.54,923.4,35.3
2145546,-0.07,-0.05,1.13,-0.43,7.26,-3.48,923.41,35.3
2145584,-0.04,-0.05,1.21,0.0,8.61,-3.66,923.4,35.29
2145622,-0.02,-0.05,1.21,0.12,10.31,-3.6,923.37,35.29
2145660,-0.07,-0.06,1.2,0.92,10.68,-3.36,923.34,35.28
2145698,-0.06,-0.06,1.18,0.85,10.13,-2.93,923.37,35.29
2145748,-0.05,-0.05,1.11,0.61,7.63,-2.99,923.32,35.29
2145786,-0.04,-0.04,1.07,0.12,6.71,-2.75,923.31,35.29
2145824,-0.04,-0.06,1.06,-0.31,5.37,-2.69,923.29,35.3
2145862,-0.04,-0.07,1.05,-0.79,4.58,-2.62,923.21,35.29
2145900,-0.04,-0.07,1.03,-1.77,3.17,-2.26,923.22,35.29
2145938,-0.04,-0.06,1.0,-2.81,2.5,-2.08,923.22,35.29
2145976,-0.05,-0.07,0.98,-4.15,3.6,-2.38,923.26,35.28
2146014,-0.02,-0.08,0.94,-4.94,2.99,-2.75,923.24,35.28
2146053,-0.04,-0.07,1.0,-5.92,2.56,-2.81,923.23,35.3
2146091,-0.04,-0.08,1.03,-5.98,3.42,-2.75,923.17,35.28
2146140,-0.02,-0.06,1.08,-6.9,3.91,-2.93,923.16,35.26
2146179,-0.04,-0.05,1.15,-7.02,2.69,-2.87,923.19,35.26
2146217,-0.04,-0.06,1.2,-7.45,2.2,-2.87,923.24,35.29
2146255,-0.04,-0.05,1.3,-7.14,2.5,-3.17,923.19,35.3
2146293,-0.03,-0.05,1.35,-7.2,2.01,-3.11,923.16,35.28
2146331,-0.04,-0.04,1.42,-6.71,0.92,-3.17,923.13,35.28
2146369,-0.05,-0.02,1.46,-6.23,0.92,-3.3,923.19,35.28
2146407,-0.04,-0.01,1.55,-6.1,1.83,-3.36,923.18,35.27
2146445,-0.05,-0.03,1.57,-5.25,1.71,-3.3,923.23,35.28
2146495,-0.04,-0.01,1.62,-3.6,0.31,-3.23,923.28,35.27
2146533,-0.04,-0.01,1.59,-2.56,1.71,-3.48,923.31,35.29
2146571,-0.03,-0.02,1.55,-1.4,1.16,-3.3,923.19,35.27
2146609,-0.03,-0.02,1.5,-0.43,1.22,-3.48,923.27,35.28
2146647,-0.06,-0.04,1.44,0.92,1.46,-3.6,923.19,35.27
2146685,-0.04,-0.04,1.39,1.4,1.53,-3.6,923.18,35.28
2146723,-0.05,-0.03,1.38,1.89,0.37,-3.66,923.2,35.27
2146761,-0.05,-0.04,1.35,2.08,0.73,-3.54,923.16,35.28
2146800,-0.03,-0.04,1.29,2.26,1.1,-3.78,923.21,35.29
2146849,-0.04,-0.05,1.32,3.05,1.04,-3.48,923.13,35.28
2146887,-0.04,-0.07,1.23,2.99,1.95,-3.48,923.13,35.27
2146926,-0.06,-0.04,1.21,2.87,1.4,-3.48,923.12,35.29
2146964,-0.05,-0.05,1.22,3.17,1.95,-3.36,923.14,35.28
2147002,-0.03,-0.08,1.16,2.99,2.93,-3.66,923.16,35.28
2147040,-0.04,-0.08,1.11,3.42,3.6,-3.66,923.14,35.29
2147078,-0.02,-0.07,1.07,3.17,4.39,-3.36,923.15,35.28
2147116,-0.03,-0.07,1.01,2.62,5.49,-3.42,923.05,35.29
2147154,-0.06,-0.05,1.04,2.26,4.64,-3.54,923.07,35.28
2147192,-0.04,-0.09,1.04,1.46,5.68,-3.36,923.04,35.29
2147242,-0.04,-0.08,1.02,0.73,5.49,-3.42,923.04,35.28
2147280,-0.03,-0.06,1.09,0.43,5.62,-3.36,923.06,35.3
2147318,-0.05,-0.07,1.06,0.0,6.16,-3.11,922.98,35.29
2147356,-0.06,-0.07,1.13,0.61,5.68,-3.05,923.03,35.28
2147394,-0.03,-0.08,1.14,0.98,7.57,-3.11,922.98,35.3
2147432,-0.06,-0.07,1.11,1.1,8.42,-2.99,922.94,35.29
2147471,-0.05,-0.07,1.12,1.16,9.03,-2.62,922.98,35.3
2147509,-0.03,-0.07,1.1,1.16,9.09,-2.75,922.97,35.29
2147547,-0.03,-0.07,1.11,1.22,8.79,-2.32,922.93,35.3
2147596,-0.03,-0.08,1.08,0.73,8.48,-2.01,922.9,35.28
2147634,-0.04,-0.06,1.07,0.79,7.32,-2.14,922.89,35.28
2147673,-0.04,-0.06,1.08,0.55,6.84,-1.89,922.91,35.28
2147711,-0.03,-0.07,1.07,0.37,6.59,-1.59,922.88,35.29
2147749,-0.02,-0.08,1.11,0.24,5.37,-1.89,922.87,35.28
2147787,-0.02,-0.08,1.09,-0.06,5.43,-1.83,922.91,35.3
2147825,-0.02,-0.06,1.06,0.0,5.19,-1.65,922.87,35.28
2147863,-0.02,-0.07,1.05,0.0,4.88,-1.65,922.84,35.29
2147901,-0.03,-0.07,1.04,-0.12,4.39,-1.77,922.89,35.29
2147939,-0.05,-0.08,0.99,-0.18,4.58,-1.59,922.8,35.27
2148015,-0.02,-0.08,1.03,-0.49,5.43,-2.01,922.74,35.26
2148053,-0.03,-0.07,1.02,-0.49,4.94,-2.08,922.77,35.27
2148091,-0.04,-0.07,1.02,-0.73,6.65,-1.95,922.8,35.29
2148181,-0.04,-0.07,0.97,-1.04,8.67,-2.38,922.74,35.25
2148219,-0.04,-0.09,0.88,-1.59,11.9,-2.5,922.7,35.26
2148257,-0.02,-0.07,0.93,-1.16,11.54,-2.75,922.68,35.26
2148295,-0.02,-0.09,0.91,-1.16,13.98,-2.81,922.7,35.26
2148333,-0.02,-0.09,0.91,-0.67,14.59,-2.69,922.68,35.26
2148371,-0.03,-0.08,0.89,-0.18,16.17,-3.11,922.73,35.27
2148421,-0.02,-0.09,0.87,0.31,15.08,-3.11,922.63,35.26
2148459,-0.0,-0.08,0.78,-0.06,13.61,-2.81,922.62,35.27
2148497,-0.02,-0.08,0.78,0.24,11.11,-3.05,922.54,35.28
2148535,-0.01,-0.1,0.71,-0.98,11.35,-3.3,922.45,35.28
2148573,0.01,-0.07,0.78,-2.14,6.1,-3.11,922.41,35.28
2148611,-0.0,-0.08,0.83,-3.48,4.15,-3.05,922.36,35.29
2148650,-0.03,-0.09,0.87,-4.76,2.87,-3.17,922.33,35.28
2148688,0.0,-0.09,1.0,-6.04,-0.18,-3.36,922.29,35.28
2148726,-0.01,-0.07,1.05,-6.71,-0.55,-3.23,922.36,35.28
2148776,-0.01,-0.06,1.2,-6.71,-1.83,-3.23,922.33,35.28
2148814,-0.03,-0.06,1.19,-7.39,-1.04,-3.42,922.3,35.26
2148852,-0.05,-0.05,1.33,-6.35,-2.99,-3.48,922.38,35.28
2148890,-0.04,-0.06,1.36,-6.65,-1.22,-3.66,922.39,35.28
2148928,-0.03,-0.04,1.41,-5.74,-1.59,-4.09,922.38,35.27
2148966,-0.03,-0.03,1.43,-4.88,-0.49,-4.33,922.33,35.28
2149004,-0.01,-0.04,1.44,-4.46,0.0,-4.52,922.31,35.27
2149042,-0.02,-0.04,1.51,-3.42,-1.04,-4.82,922.25,35.3
2149080,-0.05,-0.05,1.47,-3.36,0.18,-4.76,922.3,35.28
2149118,-0.04,-0.04,1.45,-3.42,0.67,-5.07,922.28,35.28
2149168,-0.04,-0.06,1.43,-3.48,1.04,-5.19,922.26,35.27
2149206,-0.05,-0.04,1.36,-3.72,0.67,-5.49,922.2,35.26
2149244,-0.06,-0.03,1.35,-3.36,1.16,-5.37,922.18,35.27
2149283,-0.02,-0.06,1.35,-2.99,1.4,-5.31,922.2,35.27
2149321,-0.05,-0.03,1.41,-2.5,0.73,-5.19,922.21,35.28
2149359,-0.07,-0.04,1.38,-1.89,1.34,-5.19,922.17,35.27
2149397,-0.09,-0.04,1.42,-0.85,0.12,-5.31,922.14,35.28
2149435,-0.08,-0.06,1.39,-0.61,1.4,-5.13,922.14,35.28
2149473,-0.05,-0.05,1.34,-0.55,-0.06,-5.13,922.09,35.28
2149523,-0.06,-0.04,1.24,-0.79,0.31,-4.88,922.1,35.29
2149561,-0.07,-0.06,1.2,-1.1,0.67,-4.88,922.05,35.28
2149599,-0.06,-0.06,1.18,-1.22,-0.06,-4.64,921.98,35.28
2149637,-0.07,-0.05,1.21,-1.34,-0.61,-4.82,921.99,35.28
2149675,-0.07,-0.05,1.2,-1.53,1.16,-4.46,921.98,35.28
2149713,-0.08,-0.04,1.28,-0.85,0.55,-4.46,922.04,35.28
2149751,-0.07,-0.06,1.27,-0.92,1.34,-4.33,922.02,35.29
2149789,-0.07,-0.06,1.27,-0.37,0.0,-4.33,922.03,35.28
2149827,-0.08,-0.05,1.29,0.37,0.43,-4.09,921.95,35.27
2149877,-0.05,-0.05,1.23,1.1,1.71,-4.15,921.95,35.27
2149915,-0.07,-0.06,1.2,1.95,1.4,-4.15,921.88,35.28
2149953,-0.07,-0.07,1.11,1.77,2.26,-3.97,921.85,35.28
2149991,-0.07,-0.06,1.02,2.26,1.65,-3.78,921.88,35.29
2150029,-0.07,-0.06,1.0,2.87,1.46,-3.91,921.83,35.29
2150067,-0.05,-0.08,0.89,2.69,1.04,-3.91,921.85,35.29
2150106,-0.07,-0.06,0.93,3.11,-0.92,-3.72,921.72,35.28
2150144,-0.06,-0.08,0.8,1.89,0.79,-3.48,921.77,35.29
2150182,-0.1,-0.06,0.87,2.01,-0.98,-3.36,921.67,35.28
2150220,-0.08,-0.07,0.92,0.92,0.43,-3.05,921.7,35.3
2150269,-0.08,-0.07,1.0,0.55,-0.85,-3.17,921.64,35.28
2150307,-0.06,-0.08,0.99,-0.12,1.16,-2.99,921.65,35.3
2150346,-0.05,-0.06,1.01,0.18,-0.37,-2.93,921.59,35.29
2150384,-0.07,-0.06,1.01,-0.12,0.0,-2.56,921.65,35.29
2150422,-0.07,-0.06,0.92,-0.79,-0.37,-2.5,921.6,35.28
2150460,-0.09,-0.05,1.0,-0.06,-0.79,-2.2,921.57,35.28
2150498,-0.08,-0.08,0.93,-0.85,-0.79,-2.08,921.55,35.28
2150536,-0.08,-0.07,0.96,-0.31,-2.32,-2.14,921.58,35.3
2150574,-0.06,-0.07,0.97,-0.12,-1.65,-2.08,921.58,35.27
2150624,-0.07,-0.07,0.93,0.31,-2.5,-1.65,921.53,35.29
2150662,-0.09,-0.06,0.89,0.85,-1.53,-1.65,921.54,35.29
2150700,-0.1,-0.07,0.85,1.46,-0.61,-1.65,921.61,35.28
2150738,-0.08,-0.07,0.83,1.59,0.73,-1.59,921.6,35.29
2150776,-0.09,-0.07,0.83,1.95,1.46,-1.34,921.6,35.29
2150814,-0.09,-0.07,0.83,2.38,3.42,-1.04,921.56,35.29
2150852,-0.07,-0.08,0.83,2.69,4.39,-0.85,921.55,35.27
2150890,-0.06,-0.07,0.88,3.23,4.64,-0.73,921.56,35.28
2150928,-0.07,-0.07,0.85,3.54,5.68,-0.55,921.51,35.28
2151005,-0.06,-0.07,0.84,4.64,6.47,-0.43,921.51,35.26
2151043,-0.06,-0.07,0.82,5.19,5.49,-0.31,921.49,35.27
2151081,-0.05,-0.07,0.81,5.19,5.92,-0.31,921.45,35.26
2151170,-0.04,-0.09,0.85,4.33,5.98,0.18,921.42,35.24
2151209,-0.04,-0.08,0.84,3.11,5.07,0.24,921.39,35.25
2151247,-0.05,-0.08,0.88,2.56,4.39,0.37,921.39,35.26
2151285,-0.04,-0.08,0.85,2.08,4.15,0.31,921.38,35.27
2151323,-0.03,-0.07,0.84,1.71,3.91,0.24,921.44,35.28
2151361,-0.04,-0.07,0.84,1.71,3.42,0.31,921.44,35.27
2151399,-0.05,-0.08,0.83,1.77,3.91,0.61,921.39,35.26
2151449,-0.03,-0.08,0.89,2.14,3.91,0.55,921.37,35.26
2151487,-0.04,-0.07,0.89,2.56,4.21,0.43,921.43,35.26
2151525,-0.04,-0.07,0.93,3.17,3.97,0.55,921.39,35.28
2151563,-0.02,-0.08,0.92,3.66,4.88,0.79,921.45,35.28
2151601,-0.02,-0.08,0.91,4.03,3.78,0.49,921.34,35.27
2151639,-0.03,-0.08,0.89,4.39,4.03,0.37,921.36,35.28
2151677,-0.02,-0.08,0.88,4.15,3.48,0.31,921.36,35.28
2151715,-0.01,-0.07,0.87,3.72,3.91,0.31,921.3,35.27
2151753,-0.03,-0.08,0.85,3.48,2.87,0.24,921.3,35.28
2151803,-0.02,-0.09,0.85,2.44,3.66,0.12,921.32,35.26
2151841,-0.0,-0.07,0.86,2.08,3.85,0.06,921.28,35.27
2151879,-0.02,-0.07,0.88,2.2,3.54,0.18,921.26,35.27
2151917,-0.02,-0.09,0.81,1.59,5.13,0.0,921.27,35.27
2151955,-0.01,-0.08,0.83,1.65,5.37,-0.31,921.22,35.27
2151993,0.0,-0.08,0.86,1.4,6.59,-0.37,921.26,35.28
2152031,-0.0,-0.09,0.81,1.16,6.23,-0.24,921.22,35.28
2152069,0.01,-0.08,0.86,1.53,5.86,-0.43,921.23,35.27
2152107,0.02,-0.09,0.83,0.85,7.02,-0.49,921.19,35.27
2152145,0.02,-0.08,0.9,1.22,6.04,-0.61,921.21,35.29
2152195,-0.0,-0.09,0.86,1.28,6.71,-0.73,921.24,35.26
2152233,0.0,-0.08,0.91,1.95,6.59,-1.04,921.18,35.28
2152271,0.0,-0.08,0.92,1.83,8.3,-1.1,921.14,35.27
2152309,0.0,-0.08,0.91,1.83,8.06,-1.1,921.13,35.27
2152347,0.0,-0.08,0.91,2.01,8.3,-1.22,921.15,35.28
2152385,-0.0,-0.08,0.9,2.2,9.64,-1.46,921.17,35.28
2152423,0.02,-0.08,0.91,2.38,9.46,-1.65,921.17,35.29
2152461,0.02,-0.08,0.91,2.32,9.7,-1.59,921.1,35.28
2152499,0.01,-0.07,0.91,2.32,9.22,-1.71,921.07,35.28
2152537,0.03,-0.08,0.94,1.89,8.42,-1.77,921.05,35.29
2152587,0.02,-0.08,0.95,1.1,8.12,-1.95,921.1,35.28
2152625,0.01,-0.07,0.98,0.67,7.39,-2.14,921.1,35.28
2152663,0.01,-0.07,1.0,0.24,7.75,-2.26,921.08,35.29
2152701,0.01,-0.07,1.03,-0.24,7.14,-2.26,921.04,35.28
2152739,0.02,-0.07,1.05,-0.43,8.12,-2.5,921.11,35.28
2152777,0.03,-0.07,1.06,-0.24,8.06,-2.56,921.04,35.29
2152815,0.02,-0.07,1.08,0.31,7.81,-2.56,921.01,35.27
2152853,0.01,-0.07,1.06,0.67,8.06,-2.81,921.08,35.28
2152891,0.02,-0.07,1.04,0.73,8.24,-2.87,921.07,35.3
2152941,0.03,-0.07,1.05,0.85,7.45,-3.11,921.03,35.28
2152979,0.02,-0.08,1.02,0.43,7.93,-3.42,921.05,35.28
2153017,0.02,-0.07,1.07,0.55,7.32,-3.54,920.92,35.28
2153055,0.01,-0.07,1.08,0.06,8.91,-3.91,921.08,35.3
2153093,0.03,-0.07,1.11,-0.18,8.42,-3.78,921.02,35.3
2153131,0.0,-0.06,1.16,-0.12,9.46,-4.15,920.98,35.28
2153169,0.02,-0.07,1.16,-0.37,10.8,-4.33,921.04,35.29
2153207,-0.01,-0.05,1.21,-0.06,10.99,-4.27,921.05,35.28
2153246,0.0,-0.06,1.24,0.61,12.88,-4.39,921.01,35.29
2153284,0.04,-0.06,1.28,0.06,13.85,-4.76,920.97,35.28
2153333,0.01,-0.06,1.29,0.67,14.22,-4.39,921.02,35.28
2153371,0.02,-0.05,1.28,0.67,13.55,-4.58,920.94,35.28
2153410,0.03,-0.05,1.29,1.22,12.39,-4.33,920.97,35.28
2153448,0.04,-0.06,1.15,0.67,11.11,-4.27,920.96,35.28
2153486,0.02,-0.07,1.16,0.92,7.57,-4.33,920.96,35.28
2153524,0.02,-0.09,1.04,-0.31,6.41,-4.27,920.91,35.29
2153562,0.02,-0.08,1.04,-1.04,2.56,-4.46,920.91,35.28
2153600,0.03,-0.09,0.98,-1.95,3.42,-4.7,920.9,35.29
2153638,0.02,-0.08,1.03,-2.2,2.14,-5.07,920.91,35.28
2153688,0.03,-0.09,1.02,-3.48,3.17,-5.25,920.92,35.28
2153726,0.01,-0.08,1.08,-3.42,2.38,-5.8,920.91,35.28
2153764,0.01,-0.08,1.12,-3.66,4.27,-5.86,920.92,35.28
2153802,0.01,-0.07,1.16,-3.72,4.03,-6.16,920.94,35.29
2153840,0.01,-0.08,1.16,-3.91,5.13,-6.47,920.96,35.27
2153878,-0.0,-0.07,1.16,-3.97,5.0,-6.71,920.92,35.29
2153916,-0.01,-0.07,1.19,-4.03,5.0,-6.59,920.9,35.29
2153954,-0.01,-0.07,1.21,-4.15,4.03,-6.65,920.86,35.29
2153992,-0.03,-0.07,1.22,-4.46,3.42,-6.77,920.89,35.28
2154030,-0.03,-0.07,1.25,-4.52,3.42,-6.53,920.83,35.29
2154106,-0.02,-0.06,1.29,-3.78,2.08,-6.77,920.93,35.26
2154144,-0.03,-0.07,1.27,-3.54,1.77,-6.71,920.81,35.26
2154182,-0.03,-0.06,1.29,-3.3,1.77,-6.77,920.78,35.26
2154272,-0.04,-0.06,1.25,-2.87,1.65,-6.71,920.77,35.23
2154310,-0.03,-0.06,1.23,-2.69,1.89,-6.59,920.74,35.26
2154348,-0.03,-0.06,1.24,-2.5,1.83,-6.77,920.74,35.26
2154386,-0.05,-0.06,1.25,-2.62,1.46,-6.65,920.73,35.25
2154424,-0.05,-0.06,1.27,-2.26,2.2,-6.53,920.76,35.26
2154462,-0.05,-0.06,1.27,-2.08,2.87,-6.53,920.76,35.25
2154512,-0.06,-0.05,1.28,-1.28,3.91,-6.23,920.78,35.25
2154550,-0.04,-0.06,1.27,-0.92,5.0,-6.16,920.75,35.25
2154588,-0.04,-0.06,1.25,-0.31,5.74,-6.1,920.83,35.27
2154626,-0.04,-0.06,1.24,-0.24,5.74,-5.98,920.76,35.26
2154664,-0.04,-0.06,1.21,-0.31,5.92,-5.49,920.74,35.26
2154702,-0.03,-0.06,1.19,-0.12,4.82,-5.55,920.76,35.27
2154740,-0.03,-0.06,1.17,-0.24,4.94,-5.43,920.67,35.25
2154778,-0.04,-0.06,1.12,-0.12,4.39,-5.37,920.72,35.26
2154816,-0.03,-0.07,1.11,0.12,3.85,-5.37,920.68,35.27
2154866,-0.04,-0.07,1.05,0.0,3.17,-5.19,920.64,35.26
2154904,-0.03,-0.07,1.07,-0.31,2.38,-5.07,920.66,35.26
2154942,-0.02,-0.08,1.05,-0.67,2.44,-5.13,920.59,35.28
2154980,-0.04,-0.07,1.04,-1.16,1.16,-5.0,920.5,35.26
2155018,-0.03,-0.07,1.07,-1.1,0.18,-5.0,920.48,35.26
2155056,-0.03,-0.08,1.02,-1.77,0.18,-5.13,920.49,35.26
2155095,-0.03,-0.07,1.07,-1.83,-1.1,-5.0,920.48,35.27
2155133,-0.04,-0.08,1.04,-2.01,-0.31,-5.19,920.45,35.28
2155171,-0.04,-0.07,1.04,-2.01,-0.43,-5.13,920.52,35.27
2155209,-0.05,-0.07,1.03,-1.89,0.24,-5.07,920.38,35.26
2155258,-0.05,-0.08,1.03,-1.71,0.98,-5.25,920.53,35.28
2155296,-0.05,-0.07,1.0,-1.77,1.28,-5.25,920.46,35.27
2155335,-0.04,-0.07,0.99,-1.46,1.89,-5.31,920.46,35.27
2155373,-0.05,-0.07,0.99,-1.4,2.14,-5.31,920.5,35.27
2155411,-0.05,-0.07,1.01,-1.16,2.5,-5.13,920.45,35.26
2155449,-0.06,-0.07,1.0,-0.85,3.17,-4.94,920.52,35.26
2155487,-0.07,-0.08,0.99,-0.49,3.66,-4.94,920.46,35.26
2155525,-0.04,-0.08,1.0,-0.31,3.6,-4.88,920.5,35.27
2155563,-0.05,-0.07,1.01,-0.43,3.78,-4.58,920.5,35.28
2155613,-0.04,-0.08,1.0,-0.31,4.46,-4.52,920.49,35.27
2155651,-0.06,-0.07,0.98,-0.18,3.78,-4.39,920.4,35.27
2155689,-0.04,-0.08,1.02,-0.18,3.36,-4.39,920.49,35.27
2155727,-0.01,-0.08,0.99,-0.43,3.91,-4.27,920.41,35.27
2155765,-0.04,-0.07,1.01,-0.43,3.17,-4.21,920.38,35.26
2155803,-0.03,-0.07,1.01,-0.61,3.78,-4.15,920.44,35.29
2155841,-0.02,-0.07,1.01,-0.79,3.85,-4.09,920.37,35.28
2155879,-0.03,-0.07,1.03,-0.92,3.66,-3.91,920.36,35.26
2155917,-0.04,-0.07,1.04,-0.79,3.36,-3.91,920.36,35.26
2155967,-0.03,-0.08,1.05,-0.98,3.85,-3.97,920.23,35.25
2156005,-0.03,-0.08,1.05,-1.22,3.66,-4.09,920.27,35.26
2156043,-0.03,-0.07,1.04,-1.59,4.09,-3.97,920.29,35.26
2156081,-0.02,-0.07,1.05,-1.77,3.54,-4.03,920.29,35.26
2156119,-0.02,-0.08,1.05,-2.2,3.78,-4.15,920.27,35.26
2156157,-0.03,-0.08,1.04,-2.69,3.66,-3.97,920.22,35.25
2156195,-0.02,-0.06,1.07,-3.42,3.54,-4.27,920.27,35.27
2156233,-0.02,-0.07,1.12,-3.91,2.99,-4.09,920.21,35.26
2156271,-0.03,-0.07,1.13,-4.15,1.95,-4.09,920.16,35.27
2156309,-0.04,-0.06,1.17,-4.21,1.59,-4.27,920.21,35.27
2156359,-0.02,-0.07,1.24,-4.52,1.65,-4.15,920.18,35.25
2156397,-0.02,-0.06,1.25,-4.58,0.79,-4.33,920.17,35.27
2156435,-0.04,-0.05,1.25,-3.97,1.04,-4.46,920.21,35.28
2156473,-0.03,-0.06,1.25,-3.78,0.92,-4.39,920.12,35.26
2156511,-0.03,-0.05,1.24,-3.54,0.61,-4.52,920.14,35.28
2156549,-0.03,-0.05,1.23,-3.3,0.85,-4.7,920.07,35.27
2156587,-0.03,-0.06,1.23,-2.99,0.55,-4.76,920.16,35.28
2156625,-0.03,-0.06,1.21,-2.93,1.46,-4.88,920.09,35.28
2156663,-0.05,-0.06,1.21,-2.69,0.85,-4.88,920.05,35.27
2156713,-0.06,-0.05,1.16,-3.23,2.32,-5.07,919.97,35.26
2156751,-0.05,-0.06,1.18,-3.11,3.3,-5.0,919.98,35.27
2156789,-0.04,-0.06,1.15,-3.6,3.48,-5.25,919.99,35.26
2156827,-0.06,-0.05,1.23,-3.05,3.17,-5.13,919.99,35.26
2156865,-0.06,-0.06,1.22,-3.05,4.94,-5.07,919.98,35.27
2156903,-0.04,-0.04,1.27,-2.26,4.64,-5.25,919.95,35.27
2156941,-0.05,-0.04,1.32,-1.59,4.88,-5.31,920.0,35.26
2156979,-0.06,-0.06,1.25,-1.28,5.74,-5.13,919.91,35.27
2157017,-0.06,-0.03,1.27,-0.73,5.43,-5.37,919.92,35.27
2157093,-0.06,-0.05,1.27,-0.12,5.31,-5.07,919.89,35.25
2157131,-0.06,-0.05,1.28,0.79,5.68,-5.13,919.91,35.26
2157169,-0.05,-0.04,1.28,1.16,6.29,-5.0,919.83,35.26
2157259,-0.07,-0.04,1.22,2.75,6.04,-4.76,919.77,35.23
2157297,-0.07,-0.05,1.2,3.11,6.84,-4.58,919.77,35.25
2157335,-0.06,-0.06,1.14,3.3,6.29,-4.58,919.77,35.25
2157373,-0.06,-0.05,1.12,3.05,5.86,-4.52,919.72,35.26
2157411,-0.06,-0.05,1.04,2.69,5.86,-4.27,919.65,35.25
2157449,-0.06,-0.06,1.05,2.56,5.49,-4.03,919.68,35.26
2157487,-0.06,-0.06,1.0,1.89,5.07,-3.91,919.66,35.26
2157537,-0.07,-0.05,1.03,1.46,3.78,-3.72,919.55,35.24
2157575,-0.07,-0.06,1.0,0.79,3.54,-3.54,919.54,35.25
2157613,-0.06,-0.05,1.04,0.67,2.01,-3.54,919.55,35.25
2157651,-0.06,-0.06,1.02,0.37,2.5,-3.48,919.57,35.24
2157689,-0.06,-0.06,1.03,0.55,1.95,-3.42,919.55,35.25
2157727,-0.06,-0.05,1.05,1.1,1.4,-3.23,919.53,35.25
2157765,-0.07,-0.06,1.04,1.34,1.59,-3.05,919.52,35.26
2157803,-0.07,-0.06,1.03,1.95,1.83,-2.93,919.51,35.26
2157841,-0.06,-0.06,1.01,2.01,1.89,-2.87,919.57,35.27
2157891,-0.07,-0.07,0.93,2.26,0.43,-2.69,919.44,35.25
2157929,-0.07,-0.07,0.84,2.14,0.18,-2.44,919.49,35.24
2157967,-0.06,-0.06,0.79,2.2,-0.24,-2.38,919.44,35.26
2158005,-0.07,-0.07,0.73,2.01,-1.1,-2.14,919.4,35.26
2158043,-0.08,-0.07,0.71,1.83,-1.83,-1.95,919.46,35.26
2158082,-0.06,-0.07,0.7,1.34,-1.04,-1.89,919.46,35.28
2158120,-0.06,-0.07,0.72,1.28,-0.67,-1.83,919.45,35.27
2158158,-0.06,-0.07,0.74,1.16,0.06,-1.71,919.45,35.27
2158196,-0.07,-0.07,0.75,1.16,1.95,-1.65,919.44,35.26
2158246,-0.06,-0.06,0.76,0.98,3.91,-1.59,919.55,35.26
2158284,-0.04,-0.06,0.79,1.28,5.8,-1.28,919.48,35.27
2158322,-0.05,-0.07,0.81,1.46,7.26,-1.22,919.36,35.27
2158360,-0.06,-0.06,0.82,1.53,6.96,-1.1,919.43,35.25
2158398,-0.04,-0.06,0.82,1.71,8.48,-0.98,919.44,35.26
2158436,-0.03,-0.06,0.85,2.2,7.75,-0.85,919.39,35.26
2158474,-0.05,-0.07,0.85,2.14,7.14,-0.61,919.42,35.26
2158512,-0.05,-0.07,0.84,2.14,6.9,-0.61,919.43,35.26
2158550,-0.03,-0.06,0.89,2.62,7.2,-0.61,919.42,35.27
2158588,-0.03,-0.07,0.83,2.56,7.39,-0.43,919.35,35.26
2158638,-0.05,-0.06,0.88,3.11,6.47,-0.43,919.37,35.25
2158676,-0.04,-0.07,0.82,2.99,7.57,-0.24,919.35,35.25
2158714,-0.03,-0.06,0.84,3.42,7.26,-0.24,919.43,35.25
2158752,-0.03,-0.07,0.82,3.85,8.06,-0.24,919.34,35.26
2158790,-0.04,-0.07,0.8,3.97,7.75,-0.06,919.33,35.26
2158828,-0.03,-0.07,0.81,4.03,9.03,-0.12,919.32,35.28
2158867,-0.03,-0.06,0.82,4.27,9.95,0.0,919.28,35.28
2158904,-0.04,-0.07,0.82,4.39,10.99,-0.12,919.33,35.26
2158943,-0.05,-0.07,0.81,4.33,11.35,0.06,919.35,35.25
2158992,-0.04,-0.06,0.86,4.33,11.41,0.0,919.35,35.26
2159030,-0.02,-0.07,0.86,4.27,10.86,0.24,919.24,35.24
2159069,-0.03,-0.07,0.87,4.33,10.19,0.31,919.33,35.26
2159107,-0.02,-0.07,0.84,4.39,9.03,0.37,919.29,35.27
2159145,-0.03,-0.07,0.81,4.03,7.45,0.31,919.27,35.26
2159183,-0.01,-0.07,0.78,3.97,5.92,0.24,919.21,35.25
2159221,-0.02,-0.07,0.78,3.54,4.64,0.18,919.16,35.26
2159259,-0.03,-0.07,0.77,2.93,4.58,0.06,919.15,35.27
2159297,-0.01,-0.08,0.8,2.14,3.6,0.06,919.15,35.26
2159335,-0.01,-0.08,0.82,1.59,3.36,-0.18,919.12,35.26
2159385,-0.01,-0.06,0.81,0.79,3.17,-0.37,919.15,35.25
2159423,-0.01,-0.07,0.84,0.24,3.11,-0.43,919.18,35.26
2159461,-0.01,-0.07,0.83,-0.18,2.93,-0.61,919.11,35.25
2159499,-0.02,-0.06,0.89,-0.43,2.44,-0.73,919.18,35.25
2159537,-0.02,-0.07,0.89,-0.67,2.99,-0.73,919.15,35.25
2159575,-0.01,-0.06,0.92,-0.67,2.75,-0.85,919.18,35.25
2159613,-0.01,-0.06,0.97,-0.49,2.26,-1.1,919.14,35.25
2159651,-0.0,-0.07,0.95,-0.73,2.69,-1.16,919.18,35.24
2159690,-0.01,-0.05,0.99,-0.43,2.2,-1.53,919.21,35.25
2159739,-0.02,-0.06,0.96,-0.43,3.11,-1.59,919.2,35.25
2159777,-0.01,-0.06,1.0,0.12,2.93,-1.95,919.15,35.24
2159815,-0.0,-0.07,0.98,-0.18,4.03,-2.08,919.19,35.25
2159853,-0.0,-0.05,1.0,0.06,3.36,-2.38,919.17,35.24
2159891,-0.02,-0.05,0.99,0.06,4.33,-2.56,919.14,35.24
2159930,-0.0,-0.06,1.0,0.18,4.46,-2.81,919.2,35.24
2159968,-0.01,-0.05,1.02,0.18,4.82,-3.17,919.1,35.25
2160006,-0.01,-0.06,1.01,-0.12,4.64,-3.23,919.1,35.26
2160044,-0.01,-0.06,1.05,-0.43,4.33,-3.36,919.1,35.24
2160082,-0.01,-0.05,1.03,-0.85,3.05,-3.54,919.07,35.26
2160157,-0.02,-0.05,1.05,-1.34,1.1,-3.48,919.16,35.22
2160196,-0.02,-0.06,1.04,-1.28,0.24,-3.66,919.12,35.22
2160234,-0.01,-0.05,1.05,-1.34,-0.37,-3.85,919.07,35.23
2160323,-0.01,-0.05,1.05,-0.98,0.31,-4.27,919.1,35.2
2160361,-0.02,-0.04,1.09,-0.79,0.79,-4.58,919.08,35.21
2160399,-0.02,-0.04,1.07,-0.79,1.89,-4.76,919.14,35.22
2160437,-0.03,-0.03,1.12,-0.24,1.53,-4.7,919.15,35.22
2160476,-0.01,-0.04,1.11,-0.31,2.5,-5.13,919.12,35.22
2160514,-0.03,-0.04,1.12,0.06,2.14,-5.19,919.15,35.22
2160563,-0.03,-0.04,1.1,0.12,2.93,-5.13,919.15,35.23
2160602,-0.02,-0.04,1.12,0.06,2.75,-5.25,919.15,35.22
2160640,-0.03,-0.04,1.11,0.06,3.6,-5.31,919.17,35.24
2160678,-0.03,-0.04,1.07,-0.06,3.42,-5.31,919.14,35.23
2160716,-0.02,-0.05,1.01,0.0,3.42,-5.55,919.12,35.24
2160754,-0.02,-0.06,0.93,-0.61,2.2,-5.49,919.2,35.24
2160792,-0.03,-0.06,0.9,-0.31,0.85,-5.19,919.14,35.23
2160830,-0.01,-0.06,0.81,-0.37,0.24,-5.37,919.17,35.24
2160868,-0.02,-0.06,0.76,-0.31,-1.65,-5.43,919.14,35.24
2160918,-0.04,-0.08,0.68,-1.65,-1.28,-5.25,919.08,35.23
2160956,-0.03,-0.05,0.76,-1.77,-2.87,-5.49,919.08,35.24
2160994,-0.04,-0.06,0.83,-2.38,-1.16,-5.74,919.08,35.24
2161032,-0.03,-0.07,0.82,-2.87,-0.43,-5.49,919.12,35.25
2161070,-0.03,-0.05,0.99,-2.38,-0.06,-5.8,919.2,35.24
2161109,-0.04,-0.06,0.94,-3.48,3.17,-5.86,919.2,35.25
2161147,-0.05,-0.03,1.08,-2.5,2.75,-5.8,919.25,35.25
2161185,-0.05,-0.04,1.07,-2.93,6.96,-5.98,919.18,35.24
2161223,-0.03,-0.04,1.1,-1.83,6.84,-6.04,919.22,35.25
2161261,-0.05,-0.03,1.11,-1.89,8.97,-5.98,919.26,35.24
2161311,-0.05,-0.02,1.12,-0.85,8.0,-5.68,919.25,35.24
2161349,-0.05,-0.03,1.14,-0.06,9.09,-5.8,919.25,35.25
2161387,-0.04,-0.02,1.15,0.98,7.87,-5.49,919.21,35.25
2161425,-0.05,-0.03,1.13,1.77,8.73,-5.43,919.22,35.25
2161463,-0.04,-0.04,1.09,2.2,7.87,-5.31,919.17,35.26
2161501,-0.05,-0.02,1.13,2.56,7.45,-5.13,919.19,35.25
2161539,-0.05,-0.04,1.05,3.05,7.26,-4.94,919.15,35.24
2161577,-0.04,-0.02,1.09,4.09,5.13,-4.94,919.17,35.24
2161616,-0.04,-0.03,1.06,4.27,5.8,-4.7,919.22,35.25
2161665,-0.04,-0.04,1.04,4.76,4.39,-4.58,919.23,35.24
2161703,-0.03,-0.04,1.02,5.19,4.21,-4.64,919.16,35.24
2161742,-0.04,-0.04,1.0,5.13,4.33,-4.64,919.19,35.25
2161780,-0.04,-0.03,0.99,5.13,4.15,-4.52,919.14,35.25
2161818,-0.04,-0.05,0.89,4.52,4.7,-4.52,919.17,35.25
2161856,-0.04,-0.05,0.87,4.03,3.85,-4.64,919.15,35.25
2161894,-0.03,-0.05,0.88,2.93,4.52,-4.7,919.14,35.25
2161932,-0.03,-0.05,0.88,2.38,4.58,-4.76,919.16,35.25
2161970,-0.04,-0.04,0.93,1.71,4.03,-4.58,919.16,35.26
2162008,-0.04,-0.04,0.97,0.98,5.13,-4.52,919.15,35.25
2162058,-0.05,-0.04,1.02,0.43,5.07,-4.64,919.15,35.24
2162096,-0.04,-0.03,1.08,0.24,4.27,-4.58,919.2,35.25
2162134,-0.04,-0.03,1.08,-0.06,5.0,-4.46,919.19,35.24
2162172,-0.02,-0.03,1.08,-0.18,3.97,-4.39,919.15,35.25
2162210,-0.04,-0.03,1.09,0.12,3.42,-4.27,919.16,35.24
2162248,-0.03,-0.05,1.02,0.24,3.3,-4.33,919.2,35.26
2162287,-0.05,-0.03,1.04,0.55,2.08,-4.33,919.16,35.25
2162325,-0.04,-0.04,1.01,0.67,2.14,-4.33,919.17,35.25
2162363,-0.04,-0.04,0.99,0.73,1.22,-4.46,919.24,35.26
2162413,-0.04,-0.04,1.0,0.61,1.65,-4.33,919.15,35.24
2162451,-0.02,-0.06,0.99,0.49,1.77,-4.58,919.21,35.24
2162489,-0.04,-0.05,0.97,0.06,1.95,-4.58,919.16,35.24
2162527,-0.04,-0.05,0.99,-0.12,2.2,-4.46,919.19,35.24
2162565,-0.05,-0.05,0.98,-0.73,3.11,-4.76,919.22,35.26
2162603,-0.04,-0.04,1.0,-0.67,2.87,-4.76,919.23,35.24
2162641,-0.04,-0.03,1.05,-0.49,3.17,-4.88,919.25,35.25
2162679,-0.02,-0.04,1.04,-0.24,3.42,-4.64,919.22,35.25
2162717,-0.03,-0.03,1.08,0.55,2.62,-4.76,919.26,35.25
2162767,-0.03,-0.04,1.06,0.92,3.11,-4.39,919.29,35.25
2162805,-0.05,-0.03,1.03,1.34,2.08,-4.64,919.24,35.24
2162843,-0.05,-0.03,1.03,1.77,2.2,-4.58,919.25,35.25
2162882,-0.03,-0.05,1.01,1.59,2.2,-4.58,919.26,35.25
2162920,-0.03,-0.04,1.03,1.53,1.34,-4.52,919.25,35.25
2162958,-0.04,-0.04,0.99,1.04,1.59,-4.58,919.27,35.26
2162996,-0.04,-0.04,1.03,0.73,1.71,-4.52,919.26,35.24
2163034,-0.03,-0.04,1.03,0.37,2.01,-4.7,919.24,35.24
2163072,-0.04,-0.04,1.05,0.0,1.34,-4.58,919.26,35.26
2163110,-0.04,-0.03,1.15,0.0,-0.12,-4.58,919.25,35.24
2163186,-0.04,0.0,1.25,-0.12,-1.16,-4.27,919.25,35.22
2163224,-0.04,-0.02,1.26,0.24,-0.24,-4.21,919.28,35.24
2163262,-0.05,-0.01,1.27,0.0,-0.73,-4.03,919.28,35.23
2163351,-0.04,-0.01,1.32,0.73,-0.06,-3.91,919.28,35.2
2163389,-0.06,0.0,1.33,1.04,1.22,-4.03,919.31,35.22
2163427,-0.04,-0.01,1.32,1.89,1.83,-3.91,919.34,35.22
2163465,-0.04,-0.02,1.3,2.44,3.3,-4.09,919.31,35.22
2163503,-0.04,-0.01,1.27,2.99,3.91,-3.91,919.34,35.22
2163542,-0.05,-0.02,1.27,3.91,5.25,-3.85,919.39,35.21
2163591,-0.06,-0.04,1.18,4.64,7.51,-3.78,919.38,35.22
2163629,-0.05,-0.04,1.15,5.19,8.79,-3.78,919.42,35.22
2163668,-0.04,-0.06,1.01,5.37,11.17,-3.72,919.4,35.23
2163706,-0.04,-0.05,0.95,5.55,11.84,-3.66,919.49,35.23
2163744,-0.05,-0.05,0.9,5.49,12.51,-3.54,919.44,35.23
2163782,-0.03,-0.08,0.82,4.7,12.63,-3.36,919.39,35.24
2163820,-0.02,-0.07,0.81,3.91,12.15,-3.23,919.37,35.24
2163858,-0.02,-0.08,0.8,2.62,11.47,-3.3,919.4,35.23
2163896,-0.0,-0.08,0.8,1.53,10.25,-3.05,919.42,35.25
2163934,-0.01,-0.07,0.82,0.49,8.24,-3.11,919.4,35.25
2163984,-0.0,-0.08,0.79,-1.34,8.18,-2.87,919.4,35.23
2164022,-0.02,-0.07,0.84,-1.4,5.86,-2.93,919.37,35.23
2164060,-0.02,-0.08,0.83,-2.75,5.25,-2.99,919.33,35.22
2164098,-0.02,-0.07,0.87,-3.17,5.31,-3.11,919.35,35.22
2164137,-0.0,-0.07,0.96,-3.85,5.8,-3.17,919.34,35.23
2164175,-0.02,-0.06,1.03,-3.85,5.13,-3.36,919.37,35.24
2164213,-0.03,-0.06,1.03,-3.97,6.65,-3.23,919.42,35.23
2164251,-0.03,-0.06,1.08,-3.6,6.77,-3.48,919.35,35.25
2164289,-0.03,-0.05,1.1,-3.48,7.93,-3.54,919.44,35.24
2164339,-0.02,-0.04,1.16,-2.56,6.84,-3.42,919.43,35.24
2164377,-0.03,-0.05,1.15,-1.89,7.45,-3.42,919.43,35.23
2164415,-0.02,-0.04,1.18,-1.34,7.08,-3.48,919.46,35.23
2164453,-0.03,-0.05,1.24,-0.24,6.59,-3.42,919.46,35.24
2164491,-0.04,-0.06,1.19,-0.06,6.71,-3.36,919.43,35.24
2164529,-0.03,-0.04,1.2,0.61,5.43,-3.42,919.37,35.24
2164567,-0.04,-0.05,1.15,0.92,6.35,-3.54,919.4,35.24
2164605,-0.02,-0.06,1.12,1.1,4.46,-3.6,919.34,35.23
2164643,-0.04,-0.06,1.05,1.04,4.58,-3.54,919.33,35.24
2164693,-0.04,-0.06,1.03,1.04,3.78,-3.97,919.26,35.23
2164731,-0.04,-0.07,0.98,0.85,4.09,-3.85,919.34,35.24
2164769,-0.03,-0.06,0.98,0.79,3.85,-3.91,919.33,35.24
2164807,-0.05,-0.07,0.95,0.85,5.37,-4.03,919.33,35.24
2164845,-0.04,-0.07,0.87,0.73,6.1,-4.03,919.32,35.24
2164884,-0.05,-0.05,0.88,0.55,4.64,-4.21,919.39,35.24
2164922,-0.06,-0.07,0.85,0.37,5.37,-4.09,919.35,35.24
2164960,-0.02,-0.08,0.83,-0.31,5.8,-4.21,919.33,35.24
2164998,-0.06,-0.06,0.84,-0.73,5.55,-4.27,919.31,35.24
2165036,-0.06,-0.06,0.9,-1.71,4.21,-3.85,919.32,35.24
2165086,-0.03,-0.07,0.86,-3.6,6.35,-4.27,919.33,35.23
2165124,-0.06,-0.05,0.97,-3.11,2.75,-4.03,919.35,35.23
2165162,-0.04,-0.07,0.98,-3.72,4.7,-3.6,919.32,35.23
2165200,-0.03,-0.06,0.99,-3.54,2.56,-3.91,919.38,35.23
2165238,-0.05,-0.04,1.09,-2.87,3.3,-3.72,919.38,35.24
2165276,-0.04,-0.07,1.06,-2.87,2.62,-3.54,919.4,35.25
2165314,-0.05,-0.05,1.13,-2.44,2.69,-3.66,919.4,35.22
2165352,-0.04,-0.05,1.11,-2.2,3.48,-3.78,919.49,35.25
2165391,-0.05,-0.04,1.14,-1.83,2.99,-3.54,919.5,35.25
2165440,-0.04,-0.05,1.12,-1.77,3.85,-3.6,919.45,35.23
2165478,-0.05,-0.03,1.17,-1.34,3.66,-3.54,919.49,35.23
2165517,-0.06,-0.05,1.15,-1.34,4.27,-3.3,919.53,35.24
2165555,-0.05,-0.03,1.19,-1.16,3.54,-3.3,919.46,35.23
2165593,-0.05,-0.03,1.25,-1.04,5.13,-3.23,919.46,35.25
2165631,-0.04,-0.04,1.24,-1.34,5.86,-3.05,919.49,35.24
2165669,-0.03,-0.02,1.36,-0.85,5.37,-3.17,919.43,35.24
2165707,-0.04,-0.04,1.31,-1.53,7.87,-3.05,919.45,35.24
2165745,-0.05,-0.02,1.32,-1.34,6.84,-3.05,919.47,35.25
2165795,-0.05,-0.03,1.27,-1.4,8.36,-2.69,919.42,35.22
2165833,-0.03,-0.03,1.29,-1.16,7.02,-2.75,919.44,35.24
2165871,-0.03,-0.03,1.28,-1.16,7.51,-2.56,919.48,35.24
2165909,-0.04,-0.04,1.24,-1.1,6.29,-2.32,919.42,35.24
2165947,-0.04,-0.04,1.21,-1.04,5.98,-2.32,919.5,35.25
2165986,-0.05,-0.04,1.19,-0.98,5.0,-2.2,919.46,35.25
2166024,-0.05,-0.06,1.18,-1.04,5.43,-2.2,919.5,35.24
2166062,-0.03,-0.05,1.15,-1.22,4.82,-1.95,919.5,35.25
2166100,-0.04,-0.05,1.18,-0.55,4.27,-2.01,919.44,35.23
2166138,-0.01,-0.07,1.12,-1.1,4.39,-1.89,919.56,35.25
2166214,-0.05,-0.05,1.25,-0.31,3.66,-1.77,919.46,35.22
2166252,-0.04,-0.05,1.27,-0.37,4.46,-1.71,919.48,35.23
2166290,-0.03,-0.02,1.34,0.18,3.11,-1.95,919.49,35.23
2166379,-0.02,-0.04,1.37,0.24,4.64,-1.89,919.48,35.19
2166417,-0.02,-0.04,1.36,0.79,5.25,-2.01,919.5,35.21
2166455,-0.03,-0.05,1.3,0.92,7.08,-2.01,919.53,35.22
2166493,-0.02,-0.04,1.29,1.59,6.1,-2.2,919.5,35.22
2166532,-0.03,-0.06,1.24,1.16,7.26,-2.32,919.53,35.23
2166570,-0.03,-0.06,1.21,1.22,6.9,-2.38,919.47,35.21
2166619,-0.02,-0.06,1.18,1.1,5.74,-2.14,919.5,35.21
2166657,-0.03,-0.07,1.12,0.73,5.37,-2.08,919.46,35.21
2166696,-0.03,-0.06,1.1,0.49,4.15,-2.01,919.48,35.22
2166734,-0.03,-0.06,1.07,0.0,3.72,-2.01,919.53,35.24
2166772,-0.02,-0.06,1.06,-0.43,2.93,-1.89,919.42,35.21
2166810,-0.04,-0.06,1.07,-0.67,2.56,-1.89,919.49,35.24
2166848,-0.01,-0.06,1.07,-1.22,2.87,-2.08,919.43,35.22
2166886,-0.03,-0.06,1.11,-1.16,2.5,-2.01,919.5,35.22
2166924,-0.02,-0.07,1.07,-1.77,2.81,-1.95,919.46,35.22
2166962,-0.03,-0.06,1.09,-1.77,1.71,-2.14,919.45,35.22
2167012,-0.01,-0.07,1.1,-1.89,3.17,-2.38,919.42,35.22
2167050,-0.0,-0.07,1.15,-1.77,2.99,-2.56,919.45,35.22
2167088,-0.01,-0.07,1.11,-2.38,2.93,-2.38,919.48,35.22
2167127,-0.03,-0.06,1.22,-1.71,1.59,-2.75,919.4,35.23
2167165,-0.02,-0.08,1.16,-2.44,3.54,-2.81,919.43,35.22
2167203,-0.02,-0.06,1.2,-2.5,2.14,-2.99,919.4,35.22
2167241,-0.04,-0.07,1.18,-2.26,4.39,-3.11,919.33,35.22
2167279,-0.02,-0.05,1.17,-2.01,4.46,-3.36,919.46,35.22
2167317,-0.02,-0.07,1.22,-1.71,5.19,-3.42,919.36,35.21
2167367,-0.01,-0.07,1.17,-1.65,3.72,-3.72,919.39,35.21
2167405,-0.04,-0.08,1.2,-0.92,4.82,-3.72,919.41,35.22
2167443,-0.02,-0.08,1.14,-0.85,4.52,-3.85,919.37,35.21
2167481,-0.02,-0.05,1.23,-0.24,3.05,-3.85,919.35,35.22
2167519,-0.03,-0.07,1.13,-0.73,4.7,-3.85,919.4,35.22
2167557,0.0,-0.06,1.12,-0.92,3.66,-3.97,919.38,35.23
2167595,-0.01,-0.07,1.13,-0.67,3.17,-4.21,919.37,35.23
2167633,-0.02,-0.08,1.11,-0.92,2.5,-4.03,919.33,35.23
2167672,-0.03,-0.06,1.11,-0.79,3.11,-4.03,919.29,35.22
2167721,-0.01,-0.07,1.1,-0.79,2.08,-4.03,919.28,35.21
2167759,-0.03,-0.06,1.13,-0.67,2.01,-4.27,919.28,35.23
2167798,-0.01,-0.07,1.16,-0.37,2.32,-4.33,919.3,35.22
2167836,0.0,-0.07,1.18,-0.37,1.53,-4.27,919.28,35.23
2167874,-0.03,-0.06,1.13,-0.12,1.28,-4.33,919.21,35.22
2167912,-0.04,-0.06,1.09,0.43,1.16,-4.39,919.27,35.23
2167950,-0.0,-0.07,1.08,0.79,0.98,-4.52,919.24,35.23
2167988,-0.01,-0.08,1.04,0.98,0.67,-4.58,919.27,35.22
2168026,-0.04,-0.08,0.97,1.22,0.79,-4.64,919.2,35.23
2168064,-0.01,-0.07,0.95,1.53,0.24,-4.76,919.26,35.24
2168114,-0.02,-0.07,0.87,1.16,-0.06,-4.88,919.24,35.22
2168152,-0.02,-0.08,0.86,1.04,-1.46,-4.7,919.21,35.23
2168190,-0.0,-0.09,0.84,0.43,-1.4,-5.07,919.25,35.23
2168228,-0.03,-0.07,0.84,0.31,-1.71,-5.07,919.21,35.23
2168266,-0.02,-0.07,0.86,0.37,-1.95,-4.94,919.14,35.23
2168304,-0.02,-0.08,0.84,0.24,-1.53,-4.94,919.24,35.22
2168342,-0.03,-0.07,0.87,0.37,-1.83,-5.31,919.19,35.22
2168380,-0.04,-0.08,0.87,0.24,-1.53,-5.0,919.27,35.24
2168418,-0.03,-0.08,0.86,0.37,-1.16,-5.13,919.28,35.24
2168468,-0.04,-0.07,0.84,0.37,-0.61,-5.37,919.25,35.24
2168506,-0.05,-0.08,0.8,0.06,1.04,-5.13,919.23,35.23
2168544,-0.04,-0.07,0.75,-0.55,2.01,-5.13,919.16,35.23
2168582,-0.04,-0.07,0.82,-0.73,2.93,-5.37,919.15,35.24
2168620,-0.04,-0.07,0.79,-1.95,4.76,-5.37,919.19,35.22
2168658,-0.05,-0.06,0.91,-1.83,4.27,-5.37,919.19,35.24
2168696,-0.03,-0.08,0.85,-2.99,6.16,-5.25,919.16,35.23
2168734,-0.05,-0.06,0.92,-2.81,4.7,-5.19,919.17,35.23
2168772,-0.05,-0.06,0.95,-2.81,6.41,-5.19,919.15,35.22
2168822,-0.05,-0.05,0.99,-2.26,5.68,-4.94,919.21,35.22
2168860,-0.05,-0.05,1.03,-1.77,6.16,-4.94,919.16,35.22
2168898,-0.06,-0.06,1.01,-1.4,6.47,-4.82,919.17,35.24
2168936,-0.05,-0.05,1.07,-0.61,6.35,-4.76,919.11,35.24
2168975,-0.04,-0.05,1.07,-0.43,7.02,-4.7,919.18,35.23
2169013,-0.06,-0.05,1.09,0.37,6.23,-4.58,919.15,35.23
2169051,-0.06,-0.05,1.07,0.67,7.32,-4.46,919.09,35.23
2169089,-0.06,-0.05,1.09,0.98,7.14,-4.52,919.11,35.23
2169127,-0.06,-0.05,1.06,1.22,8.0,-4.27,919.08,35.22
2169165,-0.06,-0.04,1.05,1.59,7.51,-4.15,919.1,35.24
2169241,-0.06,-0.06,1.02,1.53,8.48,-3.91,919.08,35.2
2169279,-0.06,-0.04,1.03,1.65,7.51,-3.78,919.07,35.21
2169317,-0.06,-0.05,1.01,1.4,8.18,-3.6,919.03,35.22
2169487,-0.07,-0.04,1.05,0.06,7.14,-3.05,918.96,35.16
2169525,-0.07,-0.03,1.08,0.06,7.02,-2.75,918.98,35.19
2169563,-0.07,-0.04,1.1,0.61,6.9,-2.75,918.99,35.19
2169601,-0.07,-0.04,1.11,0.98,5.8,-2.62,919.02,35.18
2169639,-0.07,-0.03,1.13,2.01,5.74,-2.44,919.05,35.2
2169677,-0.07,-0.04,1.1,2.62,5.68,-2.26,918.97,35.2
2169727,-0.08,-0.03,1.08,3.72,4.46,-2.08,918.97,35.19
2169765,-0.08,-0.04,1.03,4.33,4.27,-1.77,918.99,35.22
2169803,-0.09,-0.05,1.0,4.7,3.97,-1.59,918.98,35.2
2169841,-0.07,-0.05,0.96,4.94,2.44,-1.53,919.02,35.22
2169879,-0.08,-0.05,0.93,5.31,2.01,-1.34,918.95,35.2
2169917,-0.08,-0.05,0.85,5.43,1.89,-1.04,918.95,35.22
2169956,-0.07,-0.05,0.85,5.68,0.61,-0.92,918.95,35.22
2169994,-0.07,-0.06,0.79,5.43,1.28,-0.67,918.98,35.21
2170032,-0.07,-0.05,0.75,5.31,0.79,-0.67,918.95,35.21
2170070,-0.08,-0.06,0.73,4.7,1.22,-0.55,918.94,35.22
2170120,-0.06,-0.06,0.69,3.54,1.16,-0.31,919.0,35.22
2170158,-0.07,-0.06,0.68,2.32,2.56,-0.24,918.97,35.21
2170196,-0.07,-0.06,0.69,1.53,1.89,-0.06,918.96,35.22
2170234,-0.06,-0.06,0.73,0.73,2.5,0.06,919.02,35.22
2170272,-0.06,-0.06,0.73,0.06,2.62,0.37,919.09,35.22
2170310,-0.06,-0.06,0.8,-0.37,2.32,0.31,919.04,35.22
2170348,-0.05,-0.06,0.8,-0.73,3.3,0.61,919.07,35.22
2170386,-0.06,-0.06,0.85,-0.49,3.11,0.67,919.08,35.22
2170424,-0.05,-0.06,0.86,-0.67,3.6,0.67,919.13,35.22
2170474,-0.05,-0.05,0.91,-0.12,3.11,0.85,919.08,35.2
2170512,-0.05,-0.06,0.87,-0.18,4.09,1.16,919.11,35.2
2170550,-0.05,-0.06,0.92,0.61,2.62,0.92,919.18,35.22
2170588,-0.05,-0.06,0.96,1.16,2.81,1.28,919.14,35.22
2170626,-0.04,-0.06,0.98,1.71,2.5,1.34,919.16,35.23
2170664,-0.05,-0.03,1.07,2.5,2.5,1.28,919.17,35.23
2170703,-0.06,-0.05,1.02,2.93,5.07,1.22,919.14,35.22
2170741,-0.05,-0.06,1.05,4.33,4.76,0.92,919.26,35.22
2170779,-0.04,-0.06,1.06,4.94,6.35,0.98,919.11,35.21
2170817,-0.03,-0.05,1.0,5.49,7.08,1.16,919.13,35.23
2170867,-0.03,-0.04,0.97,5.49,6.35,1.22,919.08,35.2
2170905,-0.04,-0.06,0.93,5.07,6.23,0.98,919.11,35.21
2170943,-0.04,-0.07,0.93,4.03,5.31,1.16,919.07,35.21
2170981,-0.02,-0.07,0.92,2.99,5.19,1.04,919.14,35.22
2171019,-0.03,-0.06,0.9,2.26,5.49,0.92,919.11,35.22
2171057,-0.05,-0.06,0.86,1.71,5.25,0.79,919.18,35.22
2171095,-0.01,-0.06,0.85,1.46,5.13,0.79,919.2,35.22
2171133,-0.02,-0.08,0.85,1.46,5.07,0.73,919.25,35.22
2171171,-0.04,-0.08,0.77,1.1,5.8,0.43,919.19,35.23
2171221,-0.02,-0.05,0.81,1.16,5.25,0.18,919.22,35.21
2171259,-0.02,-0.08,0.79,0.67,5.62,0.37,919.25,35.22
2171297,-0.03,-0.07,0.78,0.49,5.74,0.18,919.24,35.22
2171335,-0.01,-0.07,0.87,1.1,6.16,0.0,919.15,35.21
2171373,-0.01,-0.07,0.83,0.61,6.47,-0.18,919.29,35.22
2171412,-0.04,-0.05,0.92,0.98,5.19,-0.12,919.25,35.22
2171450,-0.01,-0.07,0.98,0.85,6.1,0.06,919.28,35.22
2171488,0.01,-0.07,1.04,0.55,7.08,-0.24,919.25,35.22
2171526,-0.02,-0.04,1.06,0.61,7.2,-0.12,919.24,35.21
2171564,-0.01,-0.05,1.12,0.85,7.51,-0.06,919.28,35.22
2171614,-0.0,-0.05,1.14,1.16,9.34,-0.37,919.27,35.23
2171652,-0.01,-0.05,1.13,1.83,8.61,-0.37,919.3,35.23
2171690,0.0,-0.06,1.11,2.01,10.07,-0.43,919.28,35.22
2171728,0.01,-0.04,1.13,2.5,8.12,-0.31,919.28,35.21
2171766,-0.0,-0.04,1.09,2.5,8.48,-0.37,919.27,35.23
2171804,0.01,-0.05,1.09,2.99,6.53,-0.37,919.34,35.22
2171842,0.02,-0.07,1.11,3.23,6.47,-0.49,919.37,35.24
2171880,0.03,-0.06,1.09,4.03,4.03,-0.61,919.31,35.23
2171918,0.04,-0.06,1.08,3.72,2.87,-0.61,919.28,35.24
2171956,0.05,-0.07,1.03,3.85,2.2,-1.04,919.24,35.23
2172006,0.03,-0.08,0.98,3.72,1.46,-1.4,919.28,35.22
2172044,0.04,-0.08,0.91,3.36,1.59,-1.83,919.32,35.24
2172082,0.03,-0.06,0.87,3.36,0.24,-2.38,919.27,35.22
2172120,0.04,-0.07,0.83,2.99,1.22,-2.81,919.21,35.22
2172158,0.04,-0.08,0.8,2.87,1.53,-3.23,919.29,35.23
2172196,0.05,-0.08,0.84,3.05,1.04,-3.72,919.31,35.24
2172234,0.03,-0.09,0.75,2.5,1.83,-3.91,919.18,35.22
2172272,0.02,-0.07,0.79,2.38,1.22,-4.39,919.23,35.21
2172311,0.04,-0.09,0.78,1.83,2.14,-4.76,919.26,35.22
2172386,0.04,-0.07,0.82,0.0,-0.37,-5.37,919.2,35.19
2172424,0.04,-0.08,0.82,-1.34,0.0,-6.16,919.19,35.21
2172462,0.02,-0.06,0.96,-1.46,-0.85,-6.29,919.22,35.21
2172552,-0.01,-0.05,1.14,-1.77,0.24,-6.77,919.34,35.19
2172590,-0.0,-0.06,1.12,-2.44,1.28,-7.08,919.45,35.2
2172628,0.01,-0.04,1.25,-2.14,0.49,-7.2,919.41,35.21
2172666,0.01,-0.04,1.21,-2.44,1.83,-7.02,919.46,35.2
2172704,-0.01,-0.03,1.26,-1.89,0.49,-7.02,919.45,35.2
2172742,-0.02,-0.03,1.24,-1.71,1.22,-6.96,919.45,35.2
2172781,-0.02,-0.04,1.22,-1.53,1.22,-6.84,919.56,35.22
2172830,-0.03,-0.04,1.26,-1.22,2.01,-6.96,919.55,35.2
2172868,-0.01,-0.03,1.24,-1.16,2.26,-7.02,919.54,35.2
2172907,-0.0,-0.03,1.27,-0.79,2.5,-6.9,919.53,35.21
2172945,-0.03,-0.02,1.31,-0.31,3.05,-6.77,919.59,35.22
2172983,-0.04,-0.02,1.29,-0.43,4.27,-6.59,919.61,35.21
2173021,-0.03,-0.01,1.33,0.06,4.46,-6.47,919.6,35.22
2173059,-0.02,-0.02,1.32,-0.31,4.52,-5.98,919.64,35.22
2173097,-0.03,-0.02,1.31,-0.12,4.21,-5.8,919.6,35.22
2173135,-0.02,-0.02,1.35,0.24,5.07,-5.68,919.59,35.22
2173185,-0.0,-0.04,1.26,0.37,5.92,-5.31,919.67,35.2
2173223,-0.02,-0.03,1.2,0.98,6.23,-5.19,919.76,35.2
2173261,-0.01,-0.05,1.13,1.46,8.18,-5.25,919.71,35.22
2173299,-0.01,-0.06,1.12,2.56,8.97,-5.49,919.7,35.21
2173337,-0.02,-0.05,1.0,2.44,10.07,-5.37,919.75,35.22
2173375,-0.02,-0.05,1.01,3.66,10.74,-5.49,919.68,35.22
2173413,-0.01,-0.07,0.98,3.54,13.24,-5.43,919.64,35.21
2173451,-0.01,-0.07,0.94,3.78,12.88,-5.25,919.75,35.22
2173490,-0.01,-0.07,0.92,3.66,12.33,-5.25,919.68,35.21
2173539,-0.01,-0.06,0.86,3.17,12.51,-5.07,919.71,35.22
2173577,-0.0,-0.07,0.85,2.44,11.66,-5.31,919.7,35.22
2173616,-0.0,-0.07,0.83,1.77,9.52,-5.13,919.75,35.22
2173654,-0.0,-0.08,0.91,0.67,8.18,-5.07,919.69,35.21
2173692,-0.01,-0.07,0.96,-15.5,7.39,-5.19,919.69,35.22
2173730,-0.02,-0.06,0.97,-0.92,7.57,-5.13,919.86,35.23
2173768,-0.03,-0.05,1.01,-1.16,6.47,-5.07,919.76,35.22
2173806,-0.03,-0.06,1.01,-1.53,7.08,-5.07,919.71,35.22
2173844,-0.03,-0.05,1.04,-2.14,6.53,-5.0,919.77,35.22
2173882,-0.01,-0.06,1.08,-2.32,6.77,-5.13,919.72,35.23
2173932,-0.02,-0.05,1.13,-2.56,5.98,-4.88,919.69,35.2
2173970,-0.01,-0.04,1.21,-2.93,5.19,-4.88,919.73,35.22
2174008,-0.03,-0.03,1.26,-2.87,4.39,-4.7,919.77,35.21
2174047,-0.04,-0.03,1.27,-3.17,4.94,-4.88,919.81,35.23
2174085,-0.02,-0.02,1.43,-2.81,3.17,-4.82,919.74,35.23
2174123,0.01,-0.03,1.4,-3.91,5.49,-4.7,919.8,35.22
2174161,-0.03,-0.0,1.47,-2.75,3.17,-4.94,919.72,35.22
2174199,-0.03,-0.01,1.47,-2.75,5.49,-4.7,919.75,35.23
2174237,-0.02,-0.02,1.48,-2.32,4.58,-4.88,919.77,35.21
2174287,-0.04,-0.02,1.44,-1.53,4.7,-4.76,919.81,35.22
2174325,-0.03,-0.02,1.36,-1.46,4.33,-4.64,919.83,35.22
2174363,-0.03,-0.02,1.39,-0.55,3.42,-4.82,919.77,35.21
2174401,-0.01,-0.04,1.3,-0.61,4.33,-4.82,919.82,35.22
2174439,-0.03,-0.03,1.27,-0.67,2.87,-4.76,919.84,35.22
2174477,-0.05,-0.05,1.19,-0.67,3.72,-4.82,919.81,35.22
2174516,-0.02,-0.05,1.15,-1.28,3.3,-5.0,919.79,35.22
2174554,-0.04,-0.04,1.17,-1.22,2.62,-4.94,919.8,35.22
2174592,-0.03,-0.06,1.09,-2.2,3.78,-5.13,919.78,35.22
2174642,-0.03,-0.05,1.16,-1.95,2.93,-4.88,919.75,35.2
2174680,-0.04,-0.05,1.13,-2.14,2.87,-5.0,919.8,35.21
2174718,-0.06,-0.05,1.19,-1.65,2.75,-4.94,919.78,35.21
2174756,-0.03,-0.05,1.18,-1.95,3.23,-4.88,919.8,35.22
2174794,-0.04,-0.04,1.24,-1.83,2.01,-5.0,919.82,35.22
2174832,-0.05,-0.05,1.21,-1.71,2.69,-4.94,919.86,35.22
2174870,-0.04,-0.04,1.18,-2.01,2.44,-4.94,919.84,35.22
2174908,-0.04,-0.05,1.24,-1.34,2.62,-4.82,919.83,35.22
2174947,-0.03,-0.06,1.17,-1.71,3.17,-4.94,919.85,35.21
2174985,-0.06,-0.04,1.2,-1.16,2.26,-4.7,919.83,35.21
2175034,-0.03,-0.06,1.15,-1.59,3.97,-4.88,919.75,35.19
2175073,-0.05,-0.05,1.18,-1.59,2.81,-4.94,919.84,35.22
2175111,-0.04,-0.06,1.15,-2.01,4.33,-4.82,919.86,35.22
2175149,-0.04,-0.05,1.21,-1.89,4.15,-5.13,919.84,35.22
2175187,-0.05,-0.05,1.21,-1.77,6.1,-4.76,919.84,35.22
2175225,-0.05,-0.06,1.19,-1.28,6.59,-4.76,919.9,35.22
2175263,-0.05,-0.04,1.21,-0.55,7.39,-4.94,919.9,35.22
2175301,-0.06,-0.06,1.15,-0.12,8.85,-4.76,919.9,35.23
2175339,-0.04,-0.05,1.16,0.61,8.67,-4.52,919.92,35.23
2175415,-0.03,-0.06,1.11,0.43,8.73,-4.33,919.86,35.19
2175453,-0.06,-0.06,1.07,0.55,8.91,-4.27,919.84,35.21
2175491,-0.04,-0.07,1.04,0.12,7.93,-4.15,919.84,35.21
2175581,-0.05,-0.07,1.01,-0.85,4.88,-3.66,919.81,35.16
2175619,-0.03,-0.07,1.0,-1.59,4.7,-3.66,919.76,35.2
2175657,-0.04,-0.06,1.08,-1.4,3.42,-3.6,919.76,35.2
2175695,-0.04,-0.07,1.09,-1.95,3.72,-3.48,919.74,35.18
2175733,-0.04,-0.06,1.12,-1.65,2.56,-3.42,919.84,35.2
2175771,-0.06,-0.06,1.16,-1.28,3.05,-3.54,919.83,35.2
2175821,-0.04,-0.06,1.16,-1.4,3.17,-3.42,919.77,35.19
2175859,-0.04,-0.06,1.2,-0.61,2.69,-3.36,919.78,35.19
2175897,-0.05,-0.07,1.13,-0.79,4.15,-3.23,919.83,35.2
2175936,-0.05,-0.06,1.14,-0.06,4.15,-3.23,919.83,35.2
2175974,-0.05,-0.06,1.12,0.18,4.64,-3.23,919.8,35.19
2176012,-0.07,-0.07,1.05,0.43,5.13,-3.17,919.83,35.2
2176050,-0.04,-0.06,1.06,0.79,5.86,-3.17,919.83,35.2
2176088,-0.04,-0.07,1.02,0.49,7.57,-3.3,919.81,35.19
2176126,-0.06,-0.06,1.04,0.67,7.02,-2.87,919.83,35.2
2176164,-0.05,-0.07,1.05,0.79,9.03,-2.87,919.84,35.2
2176214,-0.04,-0.06,1.06,0.24,10.44,-3.05,919.77,35.18
2176252,-0.05,-0.06,1.1,0.61,11.66,-3.11,919.81,35.2
2176290,-0.05,-0.07,1.11,0.31,12.57,-3.11,919.74,35.18
2176328,-0.03,-0.06,1.16,0.18,12.88,-2.99,919.74,35.2
2176366,-0.01,-0.06,1.17,-0.06,13.24,-3.11,919.77,35.2
2176404,-0.05,-0.06,1.18,-0.24,11.54,-2.87,919.8,35.2
2176443,-0.04,-0.06,1.21,-0.31,11.17,-2.87,919.72,35.19
2176481,-0.02,-0.06,1.16,-0.61,10.74,-2.62,919.78,35.21
2176519,-0.04,-0.05,1.21,0.31,7.93,-2.69,919.7,35.2
2176569,-0.04,-0.08,1.16,0.06,6.84,-2.26,919.69,35.19
2176607,-0.04,-0.08,1.12,0.0,5.62,-2.2,919.57,35.19
2176645,-0.05,-0.07,1.07,0.12,3.3,-2.08,919.58,35.19
2176683,-0.04,-0.09,0.96,-1.1,2.32,-2.14,919.57,35.2
2176721,-0.04,-0.07,0.89,-1.22,0.73,-2.2,919.54,35.2
2176759,-0.03,-0.07,0.86,-2.38,-0.18,-2.01,919.54,35.2
2176797,-0.05,-0.07,0.93,-2.38,-1.77,-1.77,919.58,35.2
2176835,-0.05,-0.09,0.91,-2.99,-1.77,-1.71,919.59,35.2
2176873,-0.07,-0.07,0.97,-2.2,-2.56,-2.08,919.59,35.19
2176923,-0.06,-0.07,1.0,-1.65,-0.98,-1.95,919.68,35.19
2176961,-0.05,-0.07,1.04,-0.92,-0.98,-2.08,919.61,35.21
2176999,-0.06,-0.07,1.03,-0.24,0.67,-2.26,919.56,35.19
2177037,-0.05,-0.06,1.03,-0.24,2.01,-2.26,919.58,35.21
2177075,-0.06,-0.06,1.05,0.37,2.01,-2.26,919.57,35.19
2177113,-0.07,-0.07,1.09,0.24,3.11,-2.14,919.62,35.19
2177151,-0.05,-0.06,1.11,0.12,4.76,-2.08,919.61,35.19
2177190,-0.03,-0.05,1.21,0.31,4.58,-2.26,919.64,35.2
2177228,-0.04,-0.06,1.2,-0.24,5.13,-2.01,919.64,35.21
2177266,-0.05,-0.03,1.3,-0.12,4.21,-2.08,919.63,35.2
2177315,-0.01,-0.05,1.29,-0.61,6.65,-1.77,919.6,35.18
2177354,-0.01,-0.04,1.31,0.12,5.31,-2.2,919.67,35.2
2177392,-0.03,-0.04,1.27,0.12,5.0,-1.95,919.58,35.18
2177430,-0.01,-0.04,1.32,0.61,4.09,-2.38,919.56,35.2
2177468,0.0,-0.05,1.31,0.31,4.82,-2.5,919.56,35.2
2177506,-0.01,-0.05,1.28,0.18,3.3,-2.56,919.63,35.19
2177544,-0.04,-0.05,1.26,0.73,2.87,-2.75,919.6,35.2
2177582,-0.0,-0.06,1.19,0.43,4.52,-2.99,919.56,35.2
2177620,-0.0,-0.05,1.14,0.43,4.21,-3.36,919.54,35.21
2177670,-0.01,-0.06,1.14,0.0,3.05,-3.23,919.53,35.18
2177708,-0.01,-0.09,1.09,-0.92,3.05,-3.42,919.55,35.18
2177746,0.01,-0.07,1.09,-1.22,3.54,-3.6,919.5,35.19
2177784,-0.01,-0.07,1.09,-1.34,2.08,-3.6,919.46,35.19
2177822,-0.02,-0.07,1.09,-1.83,1.28,-3.72,919.54,35.19
2177860,-0.01,-0.06,1.06,-2.14,1.34,-3.97,919.55,35.19
2177898,0.01,-0.06,1.07,-2.69,1.34,-4.27,919.53,35.2
2177936,-0.01,-0.06,1.1,-2.99,0.85,-4.33,919.48,35.19
2177975,-0.01,-0.07,1.09,-3.54,0.79,-4.52,919.52,35.19
2178024,-0.02,-0.05,1.14,-3.54,0.98,-4.76,919.55,35.18
2178062,-0.01,-0.06,1.15,-3.42,2.2,-4.82,919.56,35.19
2178101,-0.02,-0.06,1.14,-3.05,1.28,-5.19,919.52,35.19
2178139,-0.02,-0.06,1.14,-2.62,1.59,-5.19,919.49,35.19
2178177,-0.02,-0.06,1.15,-2.56,1.71,-5.25,919.53,35.19
2178215,-0.02,-0.06,1.19,-2.32,1.89,-5.37,919.45,35.19
2178253,-0.02,-0.05,1.17,-2.32,2.01,-5.55,919.54,35.2
2178291,-0.05,-0.05,1.21,-2.08,2.01,-5.74,919.51,35.2
2178329,-0.02,-0.06,1.18,-1.89,2.5,-5.8,919.46,35.2
2178367,-0.03,-0.05,1.19,-1.4,2.93,-5.92,919.46,35.2
2178443,-0.03,-0.06,1.16,-0.98,2.87,-6.1,919.46,35.17
2178481,-0.03,-0.05,1.12,-0.79,2.56,-6.47,919.49,35.18
2178519,-0.04,-0.06,1.12,-0.67,2.99,-6.35,919.48,35.18
2178608,-0.04,-0.06,1.09,-0.43,2.75,-6.71,919.41,35.15
2178647,-0.02,-0.07,1.07,-0.43,3.72,-6.9,919.35,35.16
2178685,-0.02,-0.05,1.08,-0.31,3.78,-6.77,919.43,35.15
2178723,-0.04,-0.06,1.07,-0.18,4.33,-6.71,919.38,35.18
2178761,-0.02,-0.05,1.06,-0.18,3.6,-6.84,919.45,35.18
2178799,-0.05,-0.04,1.08,0.12,3.36,-6.96,919.4,35.18
2178849,-0.04,-0.05,1.05,0.73,3.05,-6.59,919.44,35.18
2178887,-0.02,-0.05,1.04,1.16,2.01,-6.84,919.4,35.18
2178925,-0.03,-0.05,1.06,1.71,1.28,-6.77,919.4,35.19
2178963,-0.05,-0.06,0.97,1.34,1.95,-6.65,919.37,35.18
2179001,-0.05,-0.06,0.96,1.77,1.04,-6.96,919.34,35.2
2179039,-0.02,-0.06,0.95,1.71,1.65,-6.71,919.32,35.2
2179077,-0.06,-0.06,0.94,1.53,0.73,-6.84,919.33,35.19
2179115,-0.04,-0.06,0.94,1.04,0.85,-6.77,919.28,35.18
2179153,-0.03,-0.05,1.01,0.61,0.79,-7.14,919.25,35.19
2179191,-0.04,-0.06,1.0,0.0,2.14,-7.08,919.24,35.19
2179241,-0.06,-0.05,1.08,0.12,1.16,-6.96,919.23,35.17
2179279,-0.06,-0.07,1.03,-0.55,2.93,-6.96,919.31,35.19
2179317,-0.06,-0.04,1.05,0.0,2.14,-6.84,919.33,35.19
2179355,-0.06,-0.04,1.03,0.49,2.87,-6.71,919.38,35.2
2179393,-0.06,-0.06,1.0,0.67,3.3,-6.77,919.29,35.18
2179431,-0.07,-0.04,1.02,0.92,1.95,-6.41,919.25,35.2
2179469,-0.06,-0.06,1.04,0.67,2.93,-6.35,919.21,35.2
2179507,-0.05,-0.06,1.03,0.49,2.99,-6.41,919.24,35.18
2179545,-0.06,-0.04,1.09,0.73,2.08,-6.16,919.24,35.2
2179595,-0.06,-0.06,1.05,0.24,2.62,-6.04,919.19,35.18
2179633,-0.05,-0.04,1.12,0.0,2.08,-5.98,919.2,35.2
2179671,-0.06,-0.05,1.12,0.12,2.5,-5.74,919.24,35.2
2179709,-0.06,-0.05,1.13,0.49,1.83,-5.43,919.25,35.19
2179747,-0.05,-0.05,1.11,0.61,2.56,-5.49,919.21,35.19
2179785,-0.06,-0.05,1.09,0.79,2.38,-5.37,919.18,35.19
2179824,-0.06,-0.05,1.06,0.85,2.81,-5.37,919.19,35.19
2179862,-0.05,-0.06,1.04,1.1,2.01,-5.25,919.23,35.19
2179900,-0.06,-0.06,1.02,1.04,3.36,-5.25,919.24,35.2
2179949,-0.05,-0.06,0.99,1.16,2.87,-5.19,919.22,35.19
2179988,-0.06,-0.06,0.97,1.28,3.54,-5.13,919.19,35.19
2180026,-0.07,-0.06,0.96,1.34,3.36,-5.13,919.14,35.19
2180064,-0.06,-0.06,0.97,1.34,4.27,-5.0,919.14,35.19
2180102,-0.06,-0.06,0.97,1.34,4.27,-5.0,919.18,35.2
2180140,-0.07,-0.06,0.97,1.46,4.82,-5.0,919.17,35.19
2180178,-0.06,-0.07,0.93,1.34,5.31,-4.94,919.15,35.2
2180216,-0.06,-0.06,0.96,1.4,5.25,-4.76,919.14,35.2
2180254,-0.06,-0.06,0.91,1.53,5.8,-4.46,919.17,35.21
2180292,-0.07,-0.06,0.92,1.77,4.7,-4.46,919.17,35.2
2180342,-0.07,-0.06,0.88,1.83,5.31,-4.27,919.13,35.19
2180380,-0.06,-0.06,0.91,1.89,4.33,-4.09,919.08,35.18
2180418,-0.06,-0.07,0.9,2.01,4.39,-3.91,919.07,35.19
2180456,-0.07,-0.06,0.88,1.83,3.97,-3.78,919.08,35.2
2180494,-0.06,-0.06,0.9,1.95,3.66,-3.6,919.04,35.2
2180533,-0.05,-0.06,0.89,1.77,3.85,-3.6,919.05,35.2
2180571,-0.07,-0.06,0.9,1.83,3.3,-3.36,919.05,35.21
2180609,-0.08,-0.07,0.88,1.59,3.17,-3.23,919.08,35.2
2180647,-0.06,-0.06,0.91,1.65,3.23,-3.23,918.99,35.19
2180697,-0.06,-0.06,0.9,1.4,3.05,-3.11,918.99,35.19
2180735,-0.07,-0.06,0.91,1.46,2.87,-2.62,919.09,35.2
2180773,-0.06,-0.07,0.91,1.53,2.93,-2.69,918.99,35.19
2180811,-0.06,-0.06,0.93,1.28,2.5,-2.62,919.08,35.2
2180849,-0.07,-0.06,0.92,1.34,2.5,-2.26,919.07,35.2
2180887,-0.06,-0.06,0.92,1.4,2.38,-2.38,919.07,35.19
2180925,-0.06,-0.06,0.94,1.53,2.62,-2.26,919.08,35.2
2180963,-0.05,-0.06,0.96,1.53,2.69,-2.14,919.09,35.19
2181001,-0.06,-0.06,0.97,1.83,2.5,-2.08,919.16,35.2
2181039,-0.06,-0.06,0.96,2.5,3.11,-2.01,919.13,35.2
2181089,-0.05,-0.06,0.96,3.17,3.11,-1.89,919.11,35.18
2181127,-0.05,-0.06,0.94,3.36,2.87,-1.77,919.07,35.18
2181166,-0.06,-0.07,0.91,3.72,3.3,-1.71,919.08,35.19
2181204,-0.06,-0.07,0.87,3.6,3.54,-1.65,919.05,35.19
2181242,-0.04,-0.06,0.87,2.99,3.6,-1.46,919.11,35.2
2181280,-0.05,-0.07,0.85,2.38,3.72,-1.28,919.07,35.18
2181318,-0.05,-0.07,0.85,1.89,3.42,-1.28,919.03,35.19
2181356,-0.04,-0.07,0.87,0.98,3.85,-1.28,919.02,35.19
2181394,-0.04,-0.07,0.88,0.37,3.17,-1.1,919.12,35.2
2181470,-0.05,-0.07,0.89,-0.79,3.6,-1.22,919.03,35.16
2181508,-0.04,-0.07,0.95,-0.98,3.23,-0.98,919.13,35.19
2181546,-0.03,-0.07,0.95,-1.83,3.42,-0.85,919.07,35.18
2181635,-0.04,-0.06,1.02,-2.32,3.23,-0.98,919.05,35.14
2181673,-0.03,-0.05,1.1,-2.01,2.14,-0.98,919.09,35.15
2181712,-0.04,-0.06,1.07,-2.32,2.93,-0.79,919.08,35.15
2181750,-0.03,-0.05,1.13,-2.01,1.89,-0.85,919.12,35.17
2181788,-0.04,-0.05,1.13,-1.77,2.5,-0.98,919.1,35.18
2181826,-0.03,-0.05,1.14,-1.34,2.14,-0.92,919.12,35.17
2181864,-0.03,-0.05,1.15,-1.4,2.26,-1.04,919.1,35.18
2181914,-0.03,-0.05,1.13,-1.34,2.26,-1.1,919.1,35.16
2181952,-0.04,-0.05,1.13,-1.22,2.56,-1.28,919.08,35.16
2181990,-0.03,-0.05,1.13,-1.34,2.38,-1.28,919.13,35.18
2182028,-0.03,-0.05,1.17,-1.34,2.2,-1.22,919.13,35.18
2182066,-0.03,-0.05,1.16,-1.46,2.5,-1.28,919.1,35.19
2182104,-0.03,-0.04,1.19,-1.16,2.32,-1.28,919.18,35.18
2182142,-0.03,-0.04,1.19,-1.16,2.69,-1.34,919.17,35.18
2182180,-0.03,-0.05,1.2,-1.1,2.81,-1.46,919.17,35.19
2182218,-0.04,-0.05,1.18,-0.55,2.99,-1.46,919.14,35.19
2182268,-0.04,-0.05,1.17,-0.18,3.54,-1.34,919.11,35.18
2182306,-0.04,-0.04,1.17,0.06,3.3,-1.46,919.17,35.2
2182344,-0.03,-0.04,1.16,0.49,3.78,-1.53,919.11,35.19
2182382,-0.03,-0.04,1.17,0.67,3.72,-1.53,919.14,35.19
2182421,-0.04,-0.05,1.16,1.1,3.72,-1.46,919.15,35.2
2182459,-0.04,-0.05,1.15,1.4,3.85,-1.4,919.14,35.18
2182497,-0.03,-0.05,1.14,1.4,4.39,-1.53,919.06,35.18
2182535,-0.03,-0.05,1.13,1.59,4.33,-1.65,919.1,35.18
2182573,-0.03,-0.05,1.08,1.59,4.39,-1.71,919.06,35.2
2182623,-0.04,-0.05,1.07,1.71,4.21,-1.65,919.03,35.17
2182661,-0.03,-0.06,1.04,1.28,4.39,-1.53,919.04,35.17
2182699,-0.03,-0.06,1.04,1.04,3.85,-1.65,919.05,35.17
2182737,-0.04,-0.06,1.04,0.85,3.48,-1.59,919.1,35.17
2182775,-0.03,-0.06,1.02,0.73,3.66,-1.65,919.12,35.18
2182813,-0.03,-0.05,1.05,0.79,3.17,-1.59,919.03,35.17
2182852,-0.04,-0.06,1.05,0.67,3.78,-1.59,919.05,35.16
2182890,-0.03,-0.06,1.06,0.85,3.72,-1.59,919.11,35.17
2182928,-0.04,-0.05,1.09,0.98,3.66,-1.53,919.08,35.17
2182966,-0.03,-0.06,1.07,1.46,4.27,-1.59,919.1,35.17
2183016,-0.04,-0.05,1.06,2.08,4.39,-1.53,919.04,35.17
2183054,-0.04,-0.06,1.02,2.5,5.19,-1.59,919.15,35.18
2183092,-0.06,-0.06,1.03,2.99,5.37,-1.46,919.1,35.18
2183130,-0.04,-0.06,0.99,3.17,6.1,-1.16,919.08,35.16
2183168,-0.04,-0.06,0.97,3.54,5.62,-1.16,919.1,35.18
2183206,-0.04,-0.06,0.96,3.66,6.35,-1.22,919.1,35.16
2183244,-0.03,-0.06,0.94,3.72,6.41,-1.22,919.11,35.18
2183282,-0.03,-0.07,0.94,3.72,6.53,-1.1,919.07,35.17
2183321,-0.04,-0.06,0.91,3.85,6.77,-0.98,919.04,35.17
2183370,-0.03,-0.06,0.93,3.85,7.02,-1.1,919.03,35.16
2183408,-0.02,-0.06,0.94,3.6,6.77,-1.1,919.04,35.16
2183446,-0.03,-0.07,0.94,3.66,6.9,-0.98,919.02,35.18
2183485,-0.02,-0.07,0.94,3.78,6.84,-1.16,919.04,35.17
2183523,-0.02,-0.07,0.93,3.66,6.77,-1.16,919.06,35.18
2183561,-0.01,-0.07,0.9,3.72,7.02,-1.1,919.06,35.18
2183599,-0.03,-0.07,0.87,3.54,5.86,-1.16,919.05,35.18
2183637,-0.03,-0.07,0.85,3.6,5.92,-1.04,919.03,35.18
2183675,-0.02,-0.07,0.84,3.54,5.92,-1.22,919.08,35.19
2183713,-0.02,-0.07,0.84,3.23,5.68,-1.28,919.05,35.19
2183763,-0.03,-0.07,0.85,3.11,5.74,-1.28,919.02,35.18
2183801,-0.02,-0.07,0.87,2.93,6.16,-1.28,919.07,35.18
2183839,-0.03,-0.07,0.86,2.87,6.53,-1.28,919.06,35.19
2183877,-0.03,-0.07,0.86,2.75,6.77,-1.4,919.06,35.18
2183915,-0.01,-0.07,0.86,2.69,7.63,-1.4,918.98,35.18
2183953,-0.02,-0.07,0.86,2.44,7.75,-1.46,919.07,35.18
2183992,-0.02,-0.07,0.86,2.38,7.81,-1.34,919.03,35.19
2184030,-0.03,-0.07,0.86,2.14,8.67,-1.46,918.98,35.18
2184068,-0.02,-0.07,0.88,1.89,8.42,-1.53,919.01,35.19
2184117,-0.02,-0.07,0.91,1.4,8.42,-1.53,919.03,35.17
2184155,-0.01,-0.07,0.9,0.92,8.42,-1.53,919.03,35.17
2184194,-0.01,-0.07,0.91,0.43,8.24,-1.53,919.05,35.18
2184232,-0.01,-0.07,0.93,0.06,7.87,-1.4,918.99,35.19
2184270,-0.01,-0.07,0.93,-0.24,7.51,-1.53,919.04,35.19
2184308,-0.01,-0.06,0.95,-0.43,7.08,-1.4,919.1,35.19
2184346,-0.02,-0.06,0.97,-0.79,6.9,-1.53,919.06,35.17
2184384,0.0,-0.06,0.98,-0.98,6.16,-1.71,919.08,35.18
2184422,-0.0,-0.06,0.99,-0.92,5.86,-1.59,919.01,35.16
2184460,-0.01,-0.06,1.02,-0.85,4.94,-1.71,919.06,35.18
2184536,-0.01,-0.06,1.03,-0.79,3.6,-1.83,919.04,35.14
2184574,-0.01,-0.06,1.04,-0.67,3.36,-1.89,918.99,35.16
2184612,-0.01,-0.06,1.0,-0.73,2.81,-2.26,919.05,35.17
2184701,-0.01,-0.06,1.02,-0.49,3.05,-2.38,919.0,35.12
2184740,-0.01,-0.06,1.04,-0.55,2.75,-2.5,919.05,35.14
2184778,-0.01,-0.06,1.01,-0.61,3.36,-2.69,919.06,35.15
2184816,-0.01,-0.06,1.04,-0.31,2.99,-2.75,919.03,35.16
2184854,-0.01,-0.06,1.04,-0.37,4.33,-2.93,919.04,35.15
2184892,0.0,-0.05,1.03,-0.31,4.7,-3.11,919.07,35.15
2184942,-0.0,-0.05,1.03,-0.37,4.76,-3.05,919.08,35.15
2184980,-0.01,-0.06,1.06,-0.31,4.39,-3.23,919.04,35.16
2185018,-0.01,-0.05,1.06,-0.37,4.09,-3.11,919.06,35.15
2185056,0.0,-0.04,1.08,-0.55,3.11,-3.11,919.05,35.15
2185094,-0.0,-0.05,1.09,-0.79,3.36,-3.23,919.07,35.17
2185132,-0.0,-0.05,1.11,-0.79,2.99,-3.42,919.04,35.16
2185170,-0.01,-0.05,1.14,-0.92,2.87,-3.42,919.0,35.16
2185208,-0.01,-0.05,1.14,-0.98,2.62,-3.3,919.05,35.17
2185246,-0.01,-0.04,1.2,-0.61,2.14,-3.6,919.13,35.18
2185296,-0.02,-0.03,1.17,-0.61,2.26,-3.36,919.04,35.16
2185334,0.0,-0.03,1.19,-0.18,2.14,-3.42,919.0,35.16
2185372,-0.01,-0.04,1.21,-0.06,1.53,-3.42,919.06,35.17
2185410,-0.02,-0.03,1.25,-0.06,0.85,-3.42,919.03,35.17
2185448,-0.01,-0.02,1.3,0.43,0.37,-3.17,919.0,35.17
2185486,-0.01,-0.03,1.3,0.12,0.37,-3.05,919.05,35.18
2185524,-0.0,-0.02,1.33,0.43,-0.06,-3.3,919.03,35.17
2185562,-0.02,-0.03,1.31,0.18,0.43,-3.11,919.02,35.17
2185600,-0.01,-0.01,1.34,0.31,0.73,-3.36,919.03,35.18
2185639,-0.01,-0.02,1.39,1.4,2.32,-3.23,918.95,35.15
2185688,-0.0,-0.02,1.31,1.53,3.54,-3.23,919.01,35.15
2185726,-0.03,-0.01,1.36,2.26,3.91,-3.36,919.05,35.16
2185765,-0.01,-0.05,1.28,2.44,7.39,-3.54,919.08,35.16
2185803,0.01,-0.04,1.26,2.81,6.84,-3.66,919.09,35.16
2185841,-0.02,-0.04,1.21,3.54,7.93,-3.6,919.07,35.16
2185879,0.01,-0.06,1.1,3.11,9.22,-3.72,919.04,35.16
2185917,0.02,-0.05,1.1,3.72,9.28,-4.15,919.1,35.16
2185955,-0.0,-0.07,1.02,3.78,9.64,-3.85,919.07,35.16
2185993,0.0,-0.07,0.97,3.48,8.79,-4.03,919.01,35.16
2186043,-0.0,-0.06,0.96,2.87,9.89,-4.27,918.94,35.14
2186081,0.0,-0.07,0.99,2.26,8.48,-4.27,919.01,35.16
2186119,0.0,-0.07,1.0,1.77,8.73,-4.21,918.97,35.15
2186157,-0.01,-0.07,1.01,1.34,8.54,-4.33,918.98,35.16
2186195,-0.02,-0.06,1.07,1.04,8.24,-4.33,918.91,35.16
2186233,-0.01,-0.04,1.08,0.31,8.54,-4.21,918.96,35.15
2186271,-0.01,-0.06,1.1,0.12,8.3,-4.39,919.01,35.16
2186309,-0.02,-0.07,1.01,-0.31,8.18,-4.39,918.98,35.17
2186347,-0.02,-0.06,1.07,-0.06,7.26,-4.27,918.96,35.16
2186385,-0.0,-0.08,1.04,-0.98,8.85,-4.15,918.99,35.16
2186435,-0.02,-0.03,1.09,-1.16,6.41,-4.15,918.96,35.17
2186473,-0.03,-0.06,1.08,-1.65,8.06,-4.09,918.94,35.18
2186511,0.02,-0.05,1.22,-1.95,7.32,-4.39,918.94,35.16
2186549,-0.0,-0.05,1.31,-2.2,7.26,-4.15,919.01,35.16
2186587,-0.0,-0.05,1.31,-1.95,6.53,-3.97,918.93,35.16
2186625,-0.02,-0.03,1.35,-1.46,5.62,-4.09,918.88,35.16
2186663,-0.01,-0.04,1.33,-1.59,5.55,-3.97,918.89,35.17
2186701,0.0,-0.03,1.4,-1.59,3.72,-4.03,918.87,35.17
2186739,-0.02,-0.05,1.34,-1.59,4.52,-3.85,918.92,35.18
2186789,0.01,-0.05,1.38,-1.28,4.46,-4.09,918.83,35.16
2186827,0.02,-0.05,1.31,-1.22,5.19,-4.39,918.87,35.16
2186865,0.01,-0.03,1.34,-0.92,3.6,-4.46,918.9,35.18
2186903,-0.0,-0.03,1.39,-0.31,4.03,-4.52,918.89,35.16
2186941,0.02,-0.05,1.3,-0.79,5.25,-4.82,918.84,35.16
2186979,0.01,-0.04,1.34,-0.24,1.46,-4.88,918.84,35.16
2187017,-0.02,-0.07,1.23,0.06,2.08,-4.82,918.81,35.16
2187055,-0.01,-0.06,1.21,0.24,0.24,-4.76,918.91,35.18
2187094,-0.01,-0.06,1.17,0.37,0.79,-4.88,918.9,35.17
2187132,-0.03,-0.08,1.06,0.73,0.73,-4.88,918.83,35.16
2187181,-0.01,-0.07,0.96,0.61,1.04,-5.31,918.88,35.16
2187220,0.0,-0.07,1.02,1.04,3.11,-5.43,918.83,35.17
2187258,-0.01,-0.08,0.95,-0.18,4.03,-5.55,918.84,35.18
2187296,-0.02,-0.06,1.07,-0.12,3.3,-5.74,918.82,35.17
2187334,-0.03,-0.09,1.07,-0.31,5.86,-5.62,918.79,35.18
2187372,0.0,-0.07,1.1,-0.61,5.55,-5.98,918.79,35.18
2187410,-0.02,-0.04,1.12,-0.37,6.41,-5.98,918.83,35.17
2187448,-0.03,-0.05,1.07,-0.73,6.9,-5.86,918.75,35.16
2187486,-0.03,-0.04,1.16,-0.43,5.92,-5.92,918.73,35.18
2187562,-0.03,-0.04,1.25,-0.43,5.74,-5.55,918.7,35.14
2187600,-0.04,-0.03,1.31,0.43,5.74,-5.43,918.69,35.16
2187638,-0.02,-0.04,1.26,0.0,6.59,-5.86,918.69,35.15
2187728,-0.02,-0.06,1.2,0.61,7.75,-5.25,918.67,35.12
2187766,-0.06,-0.03,1.2,0.61,7.51,-5.19,918.68,35.13
2187804,-0.03,-0.03,1.13,0.73,8.85,-5.07,918.65,35.15
2187842,-0.03,-0.04,1.19,0.61,8.85,-4.88,918.62,35.15
2187880,-0.03,-0.05,1.18,0.79,8.54,-4.82,918.63,35.15
2187918,-0.05,-0.06,1.15,1.16,6.71,-4.64,918.61,35.14
2187956,-0.05,-0.05,1.12,1.22,7.32,-4.46,918.6,35.15
2188006,-0.01,-0.06,1.08,1.16,6.47,-4.46,918.55,35.14
2188044,-0.04,-0.05,1.05,0.73,5.86,-4.27,918.53,35.16
2188082,-0.06,-0.06,1.02,1.22,5.25,-4.09,918.57,35.14
2188120,-0.03,-0.05,1.04,0.61,5.68,-4.15,918.57,35.16
2188158,-0.03,-0.05,1.06,0.49,5.55,-4.09,918.51,35.14
2188196,-0.05,-0.06,1.06,0.43,5.43,-3.97,918.5,35.16
2188235,-0.04,-0.07,1.05,0.43,5.8,-3.91,918.53,35.16
2188273,-0.04,-0.05,1.03,0.06,5.86,-3.78,918.48,35.15
2188311,-0.04,-0.05,1.06,0.24,5.37,-3.72,918.47,35.16
2188360,-0.05,-0.06,1.01,-0.12,4.88,-3.6,918.37,35.14
2188399,-0.06,-0.05,1.08,0.0,4.21,-3.66,918.44,35.16
2188437,-0.03,-0.07,1.01,-0.73,5.74,-3.66,918.41,35.16
2188475,-0.03,-0.05,1.07,-0.24,2.81,-3.6,918.38,35.16
2188513,-0.05,-0.06,1.02,-0.43,4.82,-3.6,918.41,35.16
2188551,-0.06,-0.06,1.01,-0.24,4.58,-3.48,918.4,35.15
2188589,-0.04,-0.05,1.06,0.06,4.21,-3.54,918.36,35.16
2188627,-0.09,-0.06,1.03,-0.31,3.91,-3.3,918.35,35.16
2188665,-0.09,-0.04,1.08,0.06,5.19,-3.3,918.38,35.17
2188715,-0.04,-0.05,1.1,0.0,7.69,-3.3,918.27,35.15
2188753,-0.04,-0.05,1.08,-0.18,6.35,-3.11,918.25,35.17
2188791,-0.08,-0.05,1.04,-0.49,6.77,-2.99,918.3,35.16
2188829,-0.06,-0.06,1.0,-0.67,8.12,-3.11,918.25,35.15
2188867,-0.04,-0.05,1.04,-0.49,6.41,-2.93,918.27,35.16
2188905,-0.05,-0.06,0.98,-1.1,7.63,-2.81,918.23,35.16
2188944,-0.08,-0.06,0.98,-0.98,4.58,-2.99,918.22,35.16
2188982,-0.04,-0.05,1.03,-1.95,5.31,-3.17,918.13,35.16
2189020,-0.03,-0.05,1.06,-2.38,4.76,-2.87,918.18,35.16
2189058,-0.06,-0.06,1.06,-2.81,4.58,-2.56,918.13,35.18
2189108,-0.04,-0.04,1.09,-3.48,3.6,-2.81,918.14,35.16
2189146,-0.05,-0.03,1.16,-3.42,2.56,-2.62,918.09,35.16
2189184,-0.02,-0.04,1.17,-3.66,1.95,-2.38,918.06,35.17
2189222,-0.04,-0.05,1.13,-2.69,2.5,-2.56,918.11,35.16
2189260,-0.02,-0.05,1.17,-2.32,2.01,-2.62,918.05,35.15
2189298,-0.02,-0.05,1.22,-2.26,2.2,-2.44,918.05,35.17
2189336,-0.04,-0.03,1.16,-2.01,1.28,-2.5,918.06,35.16
2189374,-0.06,-0.02,1.24,-1.1,0.24,-2.62,918.08,35.16
2189413,-0.01,-0.08,1.17,-1.16,1.1,-2.62,918.06,35.16
2189462,-0.03,-0.04,1.18,-0.61,-1.46,-2.81,918.07,35.17
2189500,-0.03,-0.04,1.14,-0.43,-0.98,-2.69,918.05,35.18
2189539,-0.02,-0.04,1.11,-0.43,-2.26,-2.5,918.02,35.16
2189577,-0.03,-0.04,1.14,-0.24,-3.48,-2.56,917.97,35.16
2189615,-0.04,-0.05,1.06,-0.55,-3.6,-2.69,917.94,35.16
2189653,-0.05,-0.05,1.06,-0.24,-4.7,-2.69,917.93,35.16
2189691,-0.01,-0.04,1.04,-0.79,-4.39,-2.75,917.94,35.17
2189729,-0.03,-0.05,1.04,-0.67,-5.31,-2.93,917.89,35.17
2189767,-0.03,-0.06,0.97,-1.1,-4.58,-2.87,917.9,35.17
2189817,-0.03,-0.05,1.06,-1.04,-5.62,-3.05,917.85,35.15
2189855,-0.03,-0.06,0.97,-1.71,-4.33,-3.23,917.85,35.14
2189893,-0.05,-0.04,1.05,-1.53,-4.88,-3.3,917.9,35.17
2189931,-0.04,-0.06,1.02,-1.53,-1.71,-3.6,917.88,35.15
2189970,-0.03,-0.05,1.06,-1.53,-2.69,-3.66,917.88,35.17
2190008,-0.04,-0.04,1.11,-1.34,-0.79,-3.54,917.87,35.17
2190046,-0.04,-0.05,1.09,-1.04,-0.18,-3.48,917.95,35.17
2190084,-0.04,-0.03,1.12,-0.37,0.61,-3.54,917.93,35.16
2190122,-0.05,-0.05,1.1,0.24,1.77,-3.42,917.93,35.16
2190172,-0.05,-0.04,1.06,1.04,2.5,-3.3,917.91,35.16
2190210,-0.04,-0.04,1.06,1.71,2.14,-3.23,917.89,35.17
2190248,-0.04,-0.04,1.03,2.26,1.28,-2.81,917.88,35.17
2190286,-0.05,-0.05,1.01,2.44,0.73,-2.69,917.85,35.16
2190324,-0.05,-0.04,1.02,3.05,0.73,-2.56,917.84,35.17
2190363,-0.04,-0.05,1.01,3.36,1.71,-2.75,917.78,35.16
2190401,-0.04,-0.03,1.03,3.66,0.73,-2.56,917.86,35.17
2190439,-0.02,-0.03,1.04,3.97,1.28,-2.62,917.81,35.17
2190477,-0.03,-0.06,0.94,3.72,1.89,-2.32,917.82,35.17
2190515,-0.03,-0.05,0.92,4.27,0.73,-2.38,917.84,35.16
2190592,-0.03,-0.06,0.72,4.7,2.87,-2.44,917.79,35.14
2190630,-0.02,-0.05,0.73,4.94,2.69,-2.5,917.8,35.12
2190668,-0.06,-0.04,0.73,4.76,3.48,-2.26,917.74,35.14
2190757,-0.03,-0.05,0.81,5.0,7.08,-2.44,917.68,35.12
2190796,-0.05,-0.04,0.96,5.55,8.54,-2.26,917.69,35.13
2190834,-0.01,-0.07,0.95,4.94,10.93,-2.08,917.66,35.13
2190872,0.0,-0.04,1.0,5.13,10.01,-2.38,917.69,35.14
2190910,-0.05,-0.06,0.87,4.7,11.47,-2.08,917.66,35.13
2190948,-0.03,-0.05,0.82,4.88,9.58,-1.89,917.68,35.14
2190998,-0.01,-0.06,0.76,4.7,10.62,-1.95,917.64,35.13
2191036,-0.01,-0.04,0.8,5.68,8.18,-1.46,917.65,35.13
2191074,-0.01,-0.08,0.82,6.1,7.26,-1.34,917.58,35.14
2191112,-0.0,-0.09,0.67,5.13,6.47,-1.83,917.58,35.14
2191150,-0.0,-0.05,0.8,5.0,3.91,-1.89,917.58,35.13
2191188,-0.04,-0.06,0.87,4.21,5.92,-1.65,917.55,35.13
2191226,0.02,-0.06,0.87,3.48,2.44,-1.71,917.57,35.14
2191264,-0.04,-0.06,0.9,2.99,3.42,-2.2,917.49,35.13
2191302,-0.04,-0.07,0.82,2.01,4.39,-2.08,917.58,35.15
2191340,0.01,-0.05,1.0,1.77,4.82,-2.08,917.54,35.13
2191390,0.0,-0.07,0.95,0.73,8.06,-2.32,917.54,35.13
2191428,-0.13,-0.07,0.94,2.26,6.77,-2.01,917.57,35.13
2191466,-0.03,-0.09,0.85,0.98,11.17,-2.14,917.54,35.13
2191504,0.01,-0.05,0.91,1.53,8.24,-2.56,917.52,35.12
2191542,-0.01,-0.06,0.87,0.73,8.85,-2.38,917.57,35.15
2191581,-0.01,-0.08,0.85,0.79,6.47,-2.08,917.52,35.13
2191619,0.04,-0.07,0.94,0.61,5.86,-2.56,917.49,35.14
2191657,-0.01,-0.06,0.94,-0.06,3.36,-2.44,917.45,35.16
2191695,-0.04,-0.06,0.96,0.06,1.28,-2.26,917.44,35.14
2191745,-0.0,-0.08,0.85,-1.16,2.2,-2.93,917.45,35.13
2191783,-0.01,-0.07,0.91,-1.04,-0.12,-3.11,917.39,35.13
2191821,0.0,-0.06,0.89,-1.65,0.18,-3.17,917.42,35.14
2191859,-0.02,-0.06,0.91,-1.65,1.1,-3.54,917.46,35.14
2191897,-0.01,-0.06,1.01,-1.4,1.34,-3.78,917.43,35.12
2191935,-0.03,-0.07,1.04,-1.46,2.08,-3.66,917.43,35.14
2191973,-0.04,-0.06,1.12,-1.28,1.95,-4.15,917.41,35.13
2192012,-0.04,-0.04,1.14,-1.65,3.48,-4.21,917.41,35.13
2192050,0.01,-0.04,1.16,-1.71,4.03,-4.09,917.46,35.16
2192088,-0.02,-0.04,1.17,-1.59,2.87,-4.52,917.49,35.15
2192138,-0.07,-0.07,1.11,-1.65,6.29,-4.09,917.47,35.13
2192176,-0.04,-0.04,1.16,-0.55,4.21,-4.46,917.52,35.13
2192214,-0.05,-0.04,1.05,-0.73,8.54,-4.39,917.46,35.15
2192252,-0.07,-0.06,1.07,0.98,7.08,-4.27,917.43,35.14
2192290,-0.04,-0.06,1.11,1.04,9.7,-4.15,917.42,35.15
2192328,-0.05,-0.06,1.1,1.46,10.01,-4.21,917.44,35.15
2192366,-0.05,-0.05,1.12,1.71,11.29,-3.72,917.43,35.15
2192405,-0.04,-0.05,1.11,2.26,12.57,-3.78,917.37,35.15
2192443,-0.05,-0.05,1.13,2.62,13.98,-3.66,917.34,35.16
2192492,-0.05,-0.05,1.11,2.93,15.01,-3.23,917.38,35.14
2192531,-0.06,-0.05,1.12,3.66,14.59,-3.17,917.34,35.14
2192569,-0.05,-0.06,1.1,3.6,14.71,-2.56,917.27,35.14
2192607,-0.04,-0.06,1.08,3.72,15.26,-2.62,917.32,35.14
2192645,-0.04,-0.06,1.06,3.72,15.08,-2.2,917.33,35.14
2192683,-0.04,-0.05,1.05,3.42,14.89,-1.83,917.28,35.15
2192721,-0.04,-0.06,1.05,3.17,14.28,-1.71,917.32,35.16
2192760,-0.03,-0.06,1.02,2.2,13.73,-1.53,917.31,35.15
2192798,-0.02,-0.06,1.07,1.83,11.96,-1.4,917.31,35.15
2192847,-0.0,-0.06,1.05,1.04,10.38,-1.34,917.29,35.14
2192886,-0.0,-0.05,1.03,-0.43,8.91,-1.04,917.28,35.14
2192924,-0.04,-0.07,1.06,-0.24,6.77,-0.92,917.3,35.14
2192962,-0.04,-0.08,1.03,-1.4,6.29,-0.98,917.27,35.15
2193000,-0.04,-0.06,1.08,-1.95,4.52,-0.92,917.27,35.14
2193038,-0.01,-0.07,1.1,-2.56,4.7,-0.79,917.3,35.15
2193076,-0.01,-0.06,1.09,-2.81,4.7,-1.04,917.23,35.15
2193114,-0.01,-0.06,1.1,-3.17,4.46,-1.16,917.21,35.16
2193152,0.0,-0.07,1.11,-3.6,4.88,-1.04,917.17,35.14
2193191,-0.02,-0.06,1.14,-3.78,4.09,-1.16,917.29,35.15
2193240,-0.01,-0.05,1.17,-3.78,4.7,-1.46,917.2,35.14
2193278,-0.01,-0.06,1.2,-3.48,3.36,-1.53,917.26,35.14
2193317,-0.03,-0.06,1.21,-3.11,3.78,-1.65,917.25,35.14
2193355,-0.02,-0.07,1.21,-2.44,4.21,-1.71,917.19,35.13
2193393,-0.03,-0.06,1.17,-1.4,4.09,-1.89,917.2,35.16
2193431,-0.03,-0.06,1.12,-0.67,5.98,-2.01,917.21,35.14
2193469,0.0,-0.06,1.12,0.12,5.55,-2.08,917.24,35.14
2193507,-0.01,-0.07,1.03,0.24,5.98,-2.01,917.15,35.14
2193545,-0.04,-0.06,1.02,1.16,5.62,-2.08,917.17,35.14
2193621,-0.02,-0.06,1.02,0.85,7.45,-2.01,917.16,35.12
2193659,-0.02,-0.05,1.08,0.98,7.14,-2.26,917.16,35.13
2193697,-0.03,-0.07,1.06,0.67,9.03,-2.26,917.12,35.11
2193787,-0.02,-0.07,1.12,1.04,12.39,-2.44,917.2,35.1
2193825,-0.03,-0.06,1.1,1.22,13.92,-2.32,917.08,35.09
2193863,-0.03,-0.05,1.18,1.77,14.4,-2.5,917.13,35.11
2193901,-0.04,-0.06,1.18,1.83,16.48,-2.5,917.14,35.12
2193939,0.0,-0.06,1.18,1.65,16.72,-2.75,917.11,35.12
2193977,-0.0,-0.06,1.19,1.4,18.43,-2.62,917.08,35.12
2194027,0.01,-0.06,1.14,0.98,17.7,-2.87,917.1,35.12
2194065,0.01,-0.07,1.14,0.43,17.21,-2.62,917.03,35.11
2194103,0.0,-0.04,1.1,-0.98,14.83,-2.69,917.09,35.12
2194141,0.01,-0.06,1.12,-1.34,13.06,-2.75,917.05,35.13
2194180,0.01,-0.06,1.09,-2.32,10.86,-2.87,917.05,35.14
2194218,0.01,-0.05,1.1,-2.99,8.91,-2.93,917.03,35.13
2194256,0.01,-0.06,1.06,-4.27,7.26,-3.05,917.02,35.15
2194294,-0.01,-0.06,1.13,-4.88,6.41,-2.99,916.84,35.12
2194332,-0.01,-0.06,1.11,-5.37,7.02,-3.36,916.98,35.14
2194370,-0.03,-0.05,1.2,-5.68,5.49,-3.23,916.97,35.13
2194420,-0.0,-0.06,1.21,-6.47,5.8,-3.54,916.95,35.11
2194458,-0.03,-0.04,1.22,-6.77,5.19,-3.72,916.98,35.12
2194496,-0.01,-0.04,1.22,-6.59,6.1,-3.85,917.0,35.12
2194534,0.01,-0.04,1.25,-6.96,5.43,-3.97,916.95,35.14
2194572,-0.01,-0.04,1.29,-6.71,4.46,-4.09,916.96,35.13
2194610,-0.04,-0.04,1.27,-7.08,3.78,-4.09,916.85,35.13
2194649,-0.02,-0.03,1.33,-6.84,3.17,-4.33,916.95,35.14
2194687,-0.01,-0.03,1.32,-7.08,3.6,-4.39,916.86,35.13
2194725,-0.02,-0.03,1.37,-6.53,1.16,-4.46,916.84,35.13
2194775,-0.03,-0.03,1.31,-6.04,1.83,-4.52,916.87,35.11
2194813,-0.02,-0.02,1.36,-5.37,0.49,-4.64,916.89,35.14
2194851,-0.02,-0.02,1.36,-4.76,0.67,-4.52,916.88,35.14
2194889,-0.04,-0.02,1.37,-4.03,-0.79,-4.64,916.86,35.13
2194927,-0.04,-0.02,1.34,-2.99,-0.12,-4.88,916.86,35.13
2194965,-0.02,-0.03,1.34,-2.5,-0.43,-4.76,916.84,35.12
2195003,-0.02,-0.03,1.33,-1.95,-0.67,-5.07,916.86,35.14
2195041,-0.03,-0.04,1.28,-1.28,-1.16,-5.07,916.8,35.12
2195079,-0.03,-0.04,1.27,-0.73,-0.98,-5.13,916.73,35.12
2195129,-0.03,-0.03,1.22,-0.49,-1.16,-5.13,916.79,35.12
2195167,-0.03,-0.04,1.22,-0.37,-1.71,-5.19,916.84,35.14
2195205,-0.03,-0.05,1.2,-0.43,-1.46,-5.31,916.75,35.13
2195243,-0.03,-0.05,1.2,-0.24,-1.71,-5.37,916.75,35.12
2195282,-0.01,-0.05,1.18,-0.43,-1.53,-5.25,916.73,35.14
2195320,-0.02,-0.04,1.16,-0.61,-2.38,-5.37,916.74,35.14
2195358,-0.05,-0.04,1.13,-0.73,-1.95,-5.37,916.76,35.14
2195396,-0.03,-0.05,1.11,-0.79,-1.34,-5.49,916.76,35.14
2195434,-0.04,-0.05,1.11,-0.92,-1.22,-5.55,916.71,35.14
2195484,-0.04,-0.04,1.07,-0.98,0.18,-5.62,916.73,35.13
2195522,-0.04,-0.04,1.09,-0.67,1.1,-5.8,916.67,35.13
2195560,-0.03,-0.05,1.11,-0.67,2.32,-5.98,916.7,35.14
2195598,-0.04,-0.05,1.12,-0.49,2.38,-5.86,916.73,35.14
2195636,-0.04,-0.06,1.14,-0.61,4.15,-5.92,916.66,35.14
2195674,-0.03,-0.05,1.11,-0.37,3.91,-6.23,916.69,35.14
2195712,-0.05,-0.03,1.11,-0.06,3.42,-5.92,916.59,35.13
2195751,-0.04,-0.04,1.05,-0.49,3.48,-5.92,916.65,35.13
2195789,-0.04,-0.06,1.08,-0.12,3.17,-5.86,916.59,35.16
2195827,-0.03,-0.05,1.04,-0.06,2.14,-5.74,916.58,35.13
2195877,-0.05,-0.05,1.04,0.18,2.69,-5.49,916.62,35.15
2195915,-0.05,-0.04,1.03,0.61,2.44,-5.74,916.58,35.14
2195953,-0.05,-0.04,1.07,0.85,2.08,-5.68,916.54,35.13
2195991,-0.05,-0.05,1.06,0.67,2.69,-5.62,916.5,35.14
2196029,-0.06,-0.05,1.08,1.1,2.75,-5.49,916.47,35.13
2196067,-0.07,-0.05,1.03,1.16,4.03,-5.49,916.47,35.14
2196105,-0.07,-0.03,1.11,1.59,2.87,-5.43,916.45,35.14
2196143,-0.07,-0.04,1.1,1.1,4.39,-5.19,916.45,35.14
2196181,-0.08,-0.04,1.13,1.46,4.03,-4.88,916.4,35.12
2196231,-0.07,-0.04,1.21,1.46,4.09,-4.52,916.49,35.14
2196269,-0.06,-0.03,1.22,1.65,3.66,-4.09,916.46,35.13
2196307,-0.07,-0.02,1.22,1.34,3.17,-4.03,916.39,35.13
2196345,-0.09,-0.03,1.21,1.28,3.66,-3.78,916.42,35.14
2196383,-0.03,-0.04,1.24,1.1,3.85,-3.6,916.32,35.13
2196421,-0.05,-0.03,1.23,1.22,2.2,-3.3,916.38,35.14
2196460,-0.04,-0.04,1.18,0.98,2.44,-3.42,916.31,35.12
2196498,-0.07,-0.05,1.2,1.46,2.2,-3.36,916.27,35.13
2196536,-0.04,-0.05,1.14,1.1,3.72,-3.48,916.27,35.13
2196574,-0.06,-0.05,1.18,1.46,2.69,-3.36,916.24,35.14
2196650,-0.08,-0.03,1.22,1.22,2.44,-3.11,916.22,35.11
2196688,-0.08,-0.02,1.31,1.22,2.2,-2.5,916.2,35.12
2196726,-0.07,-0.06,1.15,-0.24,4.58,-2.26,916.26,35.12
2196815,-0.01,-0.08,1.2,-1.34,5.74,-2.14,916.25,35.09
2196853,-0.01,-0.04,1.18,-0.92,5.19,-2.75,916.25,35.11
2196891,-0.0,-0.03,1.23,-2.01,6.71,-2.81,916.25,35.1
2196930,-0.01,-0.07,1.17,-2.93,6.84,-2.81,916.21,35.11
2196968,-0.02,-0.04,1.24,-3.36,6.77,-3.23,916.19,35.11
2197006,-0.02,-0.05,1.27,-3.6,7.75,-3.3,916.14,35.11
2197056,0.0,-0.04,1.27,-4.27,7.32,-3.78,916.16,35.1
2197094,-0.0,-0.03,1.27,-3.97,7.75,-3.85,916.11,35.11
2197132,0.03,-0.05,1.27,-4.7,8.0,-3.91,916.11,35.12
2197170,-0.0,-0.05,1.29,-4.58,6.53,-4.15,916.1,35.12
2197208,-0.01,-0.03,1.32,-4.82,6.47,-4.39,916.04,35.1
2197246,0.0,-0.02,1.37,-4.58,5.68,-4.52,916.07,35.12
2197284,0.01,-0.02,1.4,-3.66,3.54,-4.82,916.07,35.12
2197322,-0.01,-0.03,1.37,-2.99,3.17,-4.82,915.98,35.12
2197360,-0.03,-0.03,1.38,-1.83,2.81,-4.94,915.98,35.13
2197410,-0.03,-0.02,1.34,-1.4,2.44,-5.25,915.97,35.11
2197448,-0.04,-0.01,1.36,-0.73,2.56,-5.37,915.96,35.12
2197486,-0.05,-0.03,1.31,-0.43,4.94,-5.37,915.94,35.12
2197524,-0.01,-0.04,1.29,0.24,5.07,-5.74,915.93,35.12
2197563,-0.04,-0.04,1.22,0.61,5.86,-5.98,915.95,35.12
2197601,-0.05,-0.04,1.16,1.16,4.58,-5.68,915.9,35.13
2197639,-0.04,-0.04,1.14,1.59,5.49,-5.74,915.93,35.13
2197677,-0.0,-0.06,1.05,1.71,5.68,-6.23,915.87,35.14
2197715,-0.04,-0.05,1.01,2.26,4.7,-6.1,915.87,35.13
2197753,-0.04,-0.06,0.97,2.2,4.09,-5.74,915.84,35.12
2197803,-0.02,-0.05,0.93,2.01,3.85,-6.29,915.78,35.12
2197841,-0.04,-0.05,0.94,1.65,2.99,-6.23,915.76,35.13
2197879,-0.01,-0.07,0.96,1.4,2.69,-6.16,915.66,35.13
2197917,-0.03,-0.07,0.93,1.16,1.83,-6.65,915.74,35.14
2197955,-0.03,-0.06,0.94,1.16,0.55,-6.41,915.69,35.13
2197993,-0.03,-0.07,0.92,0.67,0.79,-6.04,915.6,35.13
2198031,-0.05,-0.05,0.88,0.98,-0.92,-5.98,915.63,35.14
2198069,-0.06,-0.06,0.85,0.98,-1.16,-5.92,915.58,35.14
2198107,-0.03,-0.09,0.8,0.55,-1.22,-5.8,915.54,35.14
2198157,-0.01,-0.07,0.81,0.73,-2.08,-5.92,915.56,35.13
2198195,-0.05,-0.07,0.69,0.43,-2.08,-5.8,915.56,35.12
2198233,-0.05,-0.06,0.74,1.04,-2.56,-5.68,915.49,35.13
2198271,-0.02,-0.09,0.68,0.49,0.43,-5.98,915.5,35.12
2198309,-0.03,-0.08,0.66,0.55,-0.12,-5.8,915.53,35.12
2198347,-0.05,-0.08,0.7,0.43,1.16,-5.98,915.63,35.13
2198385,-0.02,-0.08,0.74,-0.55,2.75,-5.74,915.55,35.12
2198423,-0.02,-0.07,0.85,-0.18,3.66,-5.98,915.48,35.11
2198462,-0.0,-0.08,0.87,-0.67,2.62,-5.92,915.6,35.12
2198500,-0.04,-0.07,0.95,-0.67,3.72,-5.98,915.61,35.13
2198549,0.0,-0.09,0.98,-1.1,4.76,-6.23,915.58,35.12
2198587,-0.0,-0.08,1.02,-1.28,3.48,-6.35,915.58,35.13
2198626,-0.02,-0.05,1.07,-1.16,3.36,-6.41,915.49,35.13
2198664,-0.02,-0.07,1.03,-1.22,4.82,-6.47,915.41,35.13
2198702,-0.04,-0.06,1.07,-0.73,4.21,-6.65,915.44,35.12
2198740,-0.04,-0.06,1.09,-0.61,4.39,-6.53,915.51,35.13
2198778,-0.01,-0.06,1.11,-0.79,4.64,-6.59,915.44,35.12
2198816,-0.03,-0.06,1.13,-0.49,5.07,-6.71,915.41,35.13
2198854,-0.03,-0.06,1.18,-0.31,4.64,-6.71,915.4,35.14
2198904,-0.04,-0.07,1.1,-0.98,5.68,-6.53,915.4,35.11
2198942,-0.04,-0.04,1.18,-0.37,3.17,-6.65,915.42,35.14
2198980,-0.04,-0.06,1.13,-0.92,4.94,-6.59,915.33,35.12
2199018,-0.04,-0.05,1.15,-0.49,3.42,-6.47,915.4,35.13
2199056,-0.04,-0.04,1.21,-0.49,3.66,-6.47,915.28,35.12
2199094,-0.04,-0.06,1.18,-0.85,5.43,-6.59,915.36,35.13
2199132,-0.06,-0.04,1.2,-0.98,5.62,-6.77,915.34,35.13
2199171,-0.06,-0.06,1.2,-0.55,6.71,-6.71,915.33,35.13
2199209,-0.04,-0.07,1.15,-1.4,6.84,-6.77,915.28,35.14
2199258,-0.06,-0.04,1.21,-1.22,6.53,-6.71,915.21,35.12
2199297,-0.05,-0.05,1.15,-1.28,5.92,-6.41,915.15,35.12
2199335,-0.06,-0.04,1.14,-1.46,3.85,-6.35,915.18,35.13
2199373,-0.07,-0.05,1.2,-1.22,2.32,-5.98,915.08,35.13
2199411,-0.07,-0.06,1.15,-2.14,1.77,-5.68,915.05,35.12
2199449,-0.1,-0.03,1.22,-1.46,-0.92,-5.43,915.01,35.12
2199487,-0.08,-0.06,1.18,-1.71,0.24,-5.37,915.02,35.12
2199525,-0.07,-0.05,1.14,-1.59,-0.49,-5.07,915.05,35.13
2199563,-0.06,-0.04,1.19,-1.1,-0.55,-4.82,915.0,35.14
2199601,-0.08,-0.06,1.13,-1.1,0.18,-4.94,914.96,35.13
2199677,-0.08,-0.04,1.19,-0.12,1.34,-4.58,915.0,35.1
2199715,-0.08,-0.06,1.17,0.31,2.44,-4.33,915.0,35.12
2199753,-0.1,-0.05,1.1,0.67,3.36,-4.21,915.01,35.11
2199843,-0.07,-0.05,1.04,1.16,4.94,-3.54,914.99,35.08
2199881,-0.07,-0.04,1.07,1.77,4.33,-3.54,914.96,35.1
2199919,-0.06,-0.06,1.04,1.65,5.98,-3.23,915.01,35.09
2199957,-0.07,-0.06,1.06,2.5,4.64,-3.05,914.94,35.11
2199995,-0.06,-0.06,1.02,2.32,6.96,-2.99,914.94,35.1
2200033,-0.07,-0.06,1.06,2.69,6.96,-2.62,914.92,35.11
2200083,-0.07,-0.06,1.02,3.23,9.28,-2.38,914.9,35.1
2200121,-0.07,-0.06,0.99,3.85,9.77,-2.26,914.92,35.1
2200159,-0.07,-0.06,1.0,4.21,10.5,-2.08,914.87,35.11
2200197,-0.07,-0.06,0.96,4.52,10.8,-1.71,914.84,35.1
2200235,-0.06,-0.07,0.91,4.88,11.78,-1.65,914.82,35.11
2200273,-0.05,-0.06,0.87,4.58,12.27,-1.4,914.81,35.11
2200312,-0.06,-0.06,0.93,4.82,11.54,-1.1,914.82,35.12
2200350,-0.06,-0.07,0.88,4.33,12.02,-0.73,914.81,35.12
2200388,-0.04,-0.06,0.93,4.33,10.8,-0.79,914.74,35.12
2200438,-0.04,-0.07,0.83,3.23,9.28,-0.49,914.78,35.11
2200476,-0.05,-0.06,0.88,3.48,5.8,-0.55,914.72,35.1
2200514,-0.02,-0.09,0.78,2.26,5.62,-0.49,914.72,35.11
2200552,-0.03,-0.08,0.72,1.59,4.03,-0.55,914.64,35.12
2200590,-0.03,-0.08,0.76,0.79,1.83,-0.61,914.61,35.11
2200628,-0.02,-0.09,0.72,-0.55,2.2,-0.73,914.53,35.12
2200666,-0.03,-0.07,0.84,-1.04,0.92,-0.85,914.58,35.12
2200704,-0.02,-0.09,0.83,-2.62,1.4,-0.79,914.51,35.1
2200742,-0.03,-0.08,0.92,-2.5,-0.85,-0.85,914.61,35.1
2200780,-0.04,-0.08,0.92,-3.54,0.92,-1.16,914.59,35.11
2200830,-0.02,-0.07,1.0,-3.42,0.12,-1.28,914.56,35.1
2200868,-0.02,-0.08,0.97,-4.27,0.92,-1.4,914.48,35.09
2200906,-0.02,-0.07,1.03,-3.48,0.37,-1.59,914.61,35.12
2200944,-0.01,-0.07,1.01,-4.21,1.59,-1.65,914.58,35.12
2200982,-0.02,-0.06,1.07,-3.3,0.43,-2.08,914.5,35.1
2201020,-0.05,-0.08,1.05,-3.3,0.92,-2.08,914.54,35.1
2201058,-0.03,-0.07,1.03,-3.05,0.79,-2.26,914.54,35.11
2201096,-0.02,-0.05,1.06,-2.56,1.89,-2.69,914.52,35.12
2201134,-0.03,-0.07,1.02,-2.08,2.93,-2.62,914.47,35.1
2201184,-0.04,-0.06,1.07,-1.71,1.65,-2.75,914.55,35.11
2201222,-0.06,-0.08,1.03,-1.83,3.11,-2.75,914.52,35.11
2201260,-0.03,-0.06,1.06,-1.95,2.69,-2.87,914.48,35.1
2201298,-0.05,-0.05,1.03,-2.01,2.81,-2.75,914.45,35.09
2201336,-0.07,-0.06,1.02,-1.65,2.08,-2.75,914.46,35.1
2201374,-0.04,-0.06,1.03,-1.95,2.44,-2.81,914.47,35.1
2201412,-0.05,-0.06,1.06,-1.77,1.53,-3.05,914.41,35.11
2201450,-0.07,-0.06,1.08,-1.46,0.67,-2.93,914.44,35.11
2201488,-0.06,-0.06,1.08,-1.65,1.34,-2.81,914.34,35.1
2201538,-0.04,-0.06,1.07,-1.34,1.89,-2.93,914.36,35.09
2201576,-0.06,-0.05,1.03,-1.71,2.01,-2.75,914.45,35.1
2201614,-0.09,-0.04,1.07,-1.59,2.32,-2.75,914.4,35.1
2201652,-0.07,-0.06,1.07,-1.59,3.54,-2.75,914.36,35.09
2201690,-0.05,-0.04,1.14,-1.77,3.66,-2.56,914.36,35.09
2201728,-0.08,-0.05,1.16,-1.77,3.78,-2.44,914.37,35.09
2201766,-0.07,-0.05,1.17,-1.22,4.46,-2.08,914.39,35.1
2201804,-0.06,-0.03,1.18,-1.4,5.0,-2.2,914.39,35.1
2201842,-0.06,-0.03,1.19,-0.92,5.19,-2.01,914.38,35.11
2201880,-0.07,-0.05,1.15,-0.61,5.07,-1.77,914.32,35.12
2201930,-0.06,-0.04,1.18,-0.49,4.76,-1.83,914.3,35.08
2201968,-0.04,-0.05,1.15,-0.98,5.0,-1.59,914.25,35.08
2202006,-0.05,-0.05,1.11,-1.28,2.69,-1.53,914.21,35.11
2202044,-0.06,-0.05,1.12,-1.16,2.32,-1.28,914.27,35.1
2202082,-0.05,-0.06,1.02,-2.2,2.2,-1.22,914.23,35.11
2202120,-0.07,-0.03,1.13,-1.77,-1.22,-1.04,914.18,35.1
2202158,-0.07,-0.08,1.0,-2.69,0.49,-0.67,914.24,35.1
2202196,-0.06,-0.05,1.1,-1.65,-1.1,-0.98,914.3,35.1
2202235,-0.05,-0.06,1.08,-2.01,1.46,-0.92,914.25,35.11
2202284,-0.06,-0.04,1.19,-0.31,-0.06,-0.79,914.24,35.09
2202322,-0.08,-0.05,1.22,0.31,2.75,-0.79,914.19,35.09
2202360,-0.02,-0.03,1.27,0.18,4.58,-0.92,914.26,35.1
2202398,-0.08,-0.01,1.41,2.62,3.11,-0.49,914.16,35.1
2202437,-0.03,-0.07,1.29,1.71,5.74,-0.24,914.19,35.1
2202475,-0.07,-0.05,1.31,2.62,3.36,-0.31,914.18,35.11
2202513,-0.07,-0.06,1.19,2.44,6.71,-0.24,914.21,35.1
2202551,-0.02,-0.06,1.15,3.17,5.98,-0.12,914.27,35.11
2202589,-0.04,-0.07,1.08,3.6,6.1,-0.12,914.26,35.11
2202665,-0.04,-0.07,0.89,4.03,9.03,-0.43,914.22,35.08
2202703,0.0,-0.06,0.95,4.27,7.93,-0.31,914.14,35.1
