timestamp,acc_x,acc_y,acc_z,rot_x,rot_y,rot_z,qfe,temp
5121518,-0.04,-0.05,1.1,1.1,5.55,1.04,885.99,30.99
5121556,-0.04,-0.05,1.11,1.16,4.27,1.1,885.96,31.0
5121594,-0.04,-0.06,1.12,1.1,4.33,1.34,886.0,31.0
5121632,-0.04,-0.07,1.1,1.1,4.46,1.16,885.93,30.99
5121670,-0.06,-0.05,1.12,0.85,5.43,1.34,886.05,31.0
5121720,-0.03,-0.06,1.08,0.67,5.0,1.34,885.96,30.98
5121758,-0.05,-0.06,1.07,0.92,5.62,1.16,885.9,30.99
5121796,-0.04,-0.06,1.06,0.79,6.35,1.04,885.92,30.99
5121835,-0.03,-0.06,1.07,0.79,7.32,1.04,885.9,31.0
5121873,-0.04,-0.05,1.09,0.92,7.69,0.98,885.85,30.99
5121911,-0.06,-0.05,1.13,1.34,7.2,0.98,885.97,31.0
5121949,-0.05,-0.06,1.16,1.65,7.39,1.04,885.85,31.0
5121987,-0.06,-0.06,1.2,1.71,7.45,1.1,885.82,31.0
5122025,-0.05,-0.05,1.21,1.89,7.26,1.1,885.92,31.0
5122063,-0.05,-0.04,1.16,2.14,6.23,1.34,885.86,31.0
5122139,-0.04,-0.06,1.12,2.81,6.1,1.59,885.87,30.97
5122177,-0.06,-0.06,1.07,3.3,5.55,1.65,885.85,30.98
5122215,-0.05,-0.05,1.01,3.3,4.64,1.65,885.89,30.99
5122379,-0.05,-0.07,0.86,2.81,3.42,1.83,885.82,30.91
5122418,-0.05,-0.06,0.87,2.69,3.42,1.83,885.83,30.94
5122456,-0.07,-0.07,0.8,2.2,4.09,2.01,885.84,30.96
5122494,-0.06,-0.07,0.81,2.01,3.85,1.89,885.79,30.95
5122532,-0.04,-0.08,0.81,1.77,4.76,1.71,885.79,30.96
5122570,-0.05,-0.07,0.85,1.46,4.21,2.14,885.77,30.95
5122608,-0.05,-0.07,0.86,1.34,3.66,2.14,885.72,30.95
5122658,-0.07,-0.06,0.96,0.61,4.46,2.32,885.72,30.95
5122696,-0.05,-0.06,1.08,0.73,5.49,2.14,885.69,30.95
5122734,-0.06,-0.07,1.09,0.61,6.1,2.08,885.7,30.95
5122772,-0.05,-0.05,1.14,0.61,5.8,2.2,885.68,30.96
5122811,-0.07,-0.06,1.13,0.92,7.02,2.38,885.75,30.97
5122849,-0.05,-0.06,1.15,1.16,6.84,2.26,885.7,30.98
5122887,-0.07,-0.04,1.16,1.59,6.59,2.26,885.68,30.96
5122925,-0.07,-0.05,1.14,1.77,7.63,2.56,885.65,30.96
5122963,-0.02,-0.05,1.21,1.53,8.0,2.38,885.62,30.96
5123013,-0.04,-0.05,1.22,1.95,7.75,2.44,885.61,30.96
5123051,-0.03,-0.06,1.21,1.83,7.2,2.75,885.65,30.96
5123089,-0.05,-0.03,1.22,2.01,7.2,2.44,885.56,30.96
5123127,-0.05,-0.05,1.18,2.32,7.08,2.62,885.63,30.97
5123166,-0.03,-0.04,1.19,2.2,4.94,2.87,885.63,30.97
5123204,-0.04,-0.06,1.14,2.38,4.58,2.75,885.62,30.98
5123242,-0.03,-0.07,1.06,2.26,4.27,2.81,885.63,30.97
5123280,-0.01,-0.05,1.11,2.32,3.11,2.99,885.61,30.99
5123318,-0.02,-0.07,0.97,2.38,3.11,2.93,885.66,30.99
5123356,-0.04,-0.07,0.91,2.38,2.38,2.93,885.61,30.98
5123406,-0.04,-0.08,0.89,2.75,4.21,2.69,885.63,30.98
5123444,-0.0,-0.08,0.83,2.26,2.62,2.62,885.57,30.98
5123482,-0.01,-0.06,0.88,1.89,2.81,2.5,885.64,30.99
5123520,-0.02,-0.08,0.85,1.53,2.87,2.38,885.51,30.98
5123558,-0.02,-0.07,0.97,0.79,2.5,2.5,885.48,30.98
5123597,-0.01,-0.07,1.02,0.49,2.08,2.38,885.5,30.99
5123635,-0.01,-0.07,1.03,0.24,1.77,1.95,885.55,31.0
5123673,-0.04,-0.06,1.05,0.06,2.38,1.83,885.49,30.98
5123711,0.0,-0.07,1.11,0.18,2.14,1.83,885.47,30.98
5123749,0.01,-0.06,1.12,0.12,2.99,1.34,885.45,30.98
5123799,-0.03,-0.03,1.13,0.18,2.81,1.46,885.49,30.98
5123837,0.0,-0.06,1.19,0.67,3.78,1.22,885.46,30.99
5123875,0.02,-0.07,1.18,0.61,3.6,0.67,885.42,30.97
5123913,-0.02,-0.05,1.17,0.79,3.6,0.67,885.49,30.99
5123951,0.0,-0.07,1.13,1.34,3.66,0.55,885.42,30.97
5123989,0.0,-0.05,1.13,1.46,3.66,0.0,885.44,31.0
5124027,0.0,-0.05,1.11,1.77,3.17,-0.06,885.3,30.98
5124066,-0.02,-0.06,1.09,1.59,2.87,-0.06,885.31,30.99
5124104,-0.0,-0.06,1.12,1.53,2.08,-0.37,885.37,30.99
5124153,0.01,-0.05,1.18,1.71,1.1,-0.37,885.31,30.97
5124192,-0.01,-0.05,1.21,1.59,-0.12,-0.43,885.29,30.98
5124230,-0.02,-0.05,1.23,1.59,-0.61,-0.43,885.32,30.99
5124268,-0.04,-0.05,1.22,1.71,-0.37,-0.61,885.25,30.98
5124306,-0.04,-0.04,1.2,1.83,-0.92,-0.55,885.31,30.99
5124344,-0.04,-0.04,1.15,1.95,-1.71,-0.67,885.24,30.99
5124382,-0.02,-0.04,1.16,1.95,-1.71,-0.92,885.28,31.0
5124420,-0.03,-0.05,1.15,2.26,-1.46,-0.79,885.18,30.99
5124458,-0.04,-0.06,1.17,2.44,-2.08,-0.79,885.12,30.99
5124497,-0.07,-0.05,1.15,2.5,-1.71,-0.79,885.14,30.99
5124546,-0.09,-0.04,1.16,2.69,-2.5,-0.55,885.03,30.98
5124584,-0.11,-0.06,1.09,2.69,-2.2,-0.37,885.05,30.99
5124623,-0.07,-0.05,1.09,2.56,-2.69,-0.49,885.07,31.0
5124661,-0.09,-0.05,1.06,2.56,-2.38,-0.43,885.0,31.0
5124699,-0.08,-0.06,1.04,2.5,-2.08,-0.06,884.94,30.99
5124737,-0.08,-0.05,1.06,2.5,-2.08,0.12,884.89,30.99
5124775,-0.12,-0.04,1.07,2.26,-2.32,0.55,884.88,30.99
5124813,-0.11,-0.07,1.07,2.14,-2.99,0.73,884.84,31.0
5124851,-0.08,-0.06,1.08,1.77,-3.3,0.98,884.78,31.01
5124901,-0.08,-0.05,1.09,1.46,-4.52,1.46,884.79,30.99
5124939,-0.07,-0.06,1.07,1.22,-4.03,1.59,884.88,31.01
5124978,-0.07,-0.07,1.04,1.22,-4.7,1.95,884.75,31.0
5125016,-0.09,-0.06,1.01,0.98,-5.55,2.32,884.74,31.0
5125054,-0.1,-0.07,0.99,0.98,-5.86,2.44,884.7,30.99
5125092,-0.08,-0.06,0.93,0.85,-5.98,2.69,884.72,31.0
5125130,-0.08,-0.06,0.89,0.43,-7.51,2.81,884.74,30.99
5125168,-0.09,-0.08,0.84,0.43,-6.53,3.23,884.68,30.99
5125206,-0.08,-0.08,0.84,-0.24,-6.47,3.23,884.62,31.0
5125282,-0.09,-0.06,0.88,-0.98,-6.96,3.91,884.61,30.95
5125320,-0.1,-0.07,0.91,-1.34,-6.47,4.03,884.56,30.95
5125358,-0.07,-0.06,1.0,-1.46,-7.75,4.21,884.57,30.95
5125448,-0.07,-0.06,1.02,-1.89,-8.42,4.88,884.56,30.94
5125486,-0.09,-0.06,1.04,-2.01,-8.36,4.88,884.48,30.94
5125524,-0.09,-0.05,1.06,-1.95,-8.73,5.37,884.51,30.95
5125562,-0.09,-0.06,1.07,-1.83,-8.79,5.37,884.46,30.95
5125601,-0.09,-0.06,1.06,-1.95,-8.3,5.37,884.55,30.95
5125639,-0.07,-0.05,1.1,-2.08,-8.3,5.68,884.51,30.94
5125677,-0.07,-0.06,1.09,-1.95,-7.57,5.92,884.52,30.95
5125727,-0.08,-0.04,1.09,-1.71,-7.39,6.23,884.54,30.96
5125765,-0.09,-0.05,1.13,-1.4,-6.9,6.53,884.5,30.94
5125803,-0.07,-0.04,1.1,-1.46,-6.96,6.47,884.45,30.94
5125841,-0.08,-0.04,1.13,-1.59,-6.41,6.71,884.46,30.95
5125879,-0.07,-0.05,1.12,-1.28,-5.49,6.96,884.43,30.95
5125917,-0.05,-0.06,1.14,-1.28,-5.98,6.96,884.44,30.96
5125956,-0.04,-0.05,1.13,-0.98,-5.74,7.2,884.48,30.96
5125994,-0.06,-0.05,1.05,-0.98,-5.68,7.57,884.41,30.96
5126032,-0.06,-0.04,1.09,-0.92,-5.92,7.51,884.38,30.96
5126082,-0.05,-0.07,1.09,-0.79,-6.23,7.51,884.37,30.96
5126120,-0.05,-0.06,1.1,-0.92,-6.23,7.63,884.32,30.96
5126158,-0.05,-0.06,1.06,-0.67,-5.43,7.81,884.36,30.96
5126196,-0.05,-0.06,1.08,-0.79,-6.23,8.06,884.32,30.97
5126234,-0.06,-0.04,1.08,-0.92,-6.47,8.12,884.31,30.97
5126272,-0.05,-0.05,1.1,-0.79,-6.16,8.12,884.23,30.97
5126311,-0.06,-0.06,1.11,-0.79,-5.92,8.18,884.21,30.96
5126349,-0.04,-0.04,1.13,-0.43,-6.47,8.42,884.23,30.96
5126387,-0.04,-0.04,1.14,-0.49,-6.59,8.36,884.19,30.97
5126437,-0.04,-0.05,1.12,-0.61,-6.35,8.24,884.17,30.95
5126475,-0.03,-0.06,1.1,-0.43,-6.35,8.36,884.2,30.96
5126513,-0.02,-0.06,1.08,-0.49,-6.47,8.36,884.19,30.96
5126551,-0.06,-0.06,1.04,-0.37,-6.65,8.42,884.12,30.97
5126589,-0.05,-0.06,1.02,-0.49,-6.41,8.36,884.1,30.96
5126627,-0.03,-0.05,1.01,-0.49,-5.98,8.3,884.15,30.96
5126666,-0.03,-0.05,1.03,-0.73,-5.74,8.24,884.05,30.96
5126704,-0.05,-0.06,0.99,-0.79,-5.55,8.36,884.08,30.96
5126742,-0.04,-0.05,0.99,-0.92,-4.88,8.24,884.12,30.96
5126780,-0.04,-0.05,0.96,-0.92,-3.72,8.18,884.03,30.94
5126830,-0.05,-0.05,0.96,-0.98,-3.23,8.24,884.04,30.95
5126868,-0.04,-0.06,0.97,-0.61,-1.89,8.36,883.94,30.94
5126906,-0.04,-0.06,0.91,-1.04,-1.4,8.3,884.02,30.95
5126944,-0.07,-0.04,0.97,-1.71,-1.95,8.42,883.9,30.96
5126982,-0.07,-0.06,1.0,-2.08,-1.04,8.54,883.9,30.96
5127021,-0.05,-0.05,1.0,-3.23,-1.28,8.61,883.91,30.96
5127059,-0.03,-0.04,1.07,-3.42,-1.71,8.85,883.9,30.95
5127097,-0.03,-0.07,0.96,-3.66,-0.18,9.03,883.87,30.95
5127135,-0.07,-0.03,1.05,-3.42,-2.2,9.34,883.88,30.95
5127185,-0.06,-0.06,0.94,-2.87,-1.65,9.4,883.87,30.94
5127223,-0.08,-0.06,0.97,-2.81,-2.38,9.77,883.83,30.94
5127261,-0.06,-0.06,0.92,-2.87,-1.16,9.89,883.88,30.95
5127299,-0.06,-0.06,0.91,-2.69,-1.83,10.19,883.83,30.95
5127337,-0.06,-0.06,0.88,-2.62,-1.83,10.5,883.77,30.96
5127375,-0.07,-0.06,0.88,-2.93,-2.44,10.93,883.82,30.97
5127414,-0.04,-0.08,0.83,-2.99,-0.55,10.93,883.79,30.95
5127452,-0.06,-0.07,0.79,-3.42,-1.1,10.86,883.82,30.95
5127490,-0.04,-0.05,0.86,-3.66,-1.1,11.23,883.76,30.96
5127540,-0.04,-0.07,0.77,-4.7,0.06,11.11,883.77,30.94
5127578,-0.03,-0.05,0.88,-5.0,0.0,10.99,883.76,30.96
5127616,-0.05,-0.08,0.79,-5.07,0.43,11.35,883.76,30.95
5127654,-0.05,-0.06,0.86,-5.37,-0.31,11.23,883.71,30.95
5127692,-0.02,-0.06,0.86,-5.49,0.85,11.47,883.73,30.96
5127730,-0.0,-0.06,0.87,-5.55,-0.24,11.29,883.75,30.95
5127768,-0.03,-0.06,0.89,-5.55,-0.43,11.54,883.8,30.96
5127807,-0.01,-0.06,0.89,-5.68,-0.37,11.29,883.67,30.95
5127845,-0.01,-0.05,0.99,-5.74,-0.18,11.23,883.69,30.95
5127895,-0.03,-0.06,0.93,-5.92,-0.06,11.35,883.67,30.95
5127933,-0.0,-0.05,1.01,-6.1,-0.18,10.99,883.66,30.95
5127971,-0.01,-0.05,1.0,-6.41,0.43,10.62,883.64,30.94
5128009,-0.0,-0.04,1.02,-6.41,0.37,10.68,883.66,30.95
5128047,-0.0,-0.03,1.07,-6.1,1.34,10.31,883.61,30.94
5128085,-0.02,-0.04,1.06,-5.92,3.17,9.83,883.61,30.95
5128124,-0.02,-0.03,1.11,-5.86,2.5,9.7,883.58,30.95
5128162,-0.0,-0.03,1.13,-5.55,3.54,9.34,883.62,30.94
5128200,-0.02,-0.03,1.15,-5.49,3.6,9.28,883.53,30.95
5128238,-0.01,-0.03,1.16,-5.07,4.94,9.28,883.52,30.95
5128314,-0.02,-0.01,1.19,-4.58,4.46,8.97,883.48,30.92
5128352,-0.02,-0.0,1.25,-4.33,4.82,8.97,883.46,30.93
5128390,0.0,-0.0,1.3,-4.15,5.25,8.85,883.47,30.94
5128480,-0.02,0.02,1.4,-3.66,5.31,8.91,883.35,30.91
5128518,0.01,0.01,1.38,-3.72,5.0,9.03,883.36,30.93
5128556,-0.02,0.04,1.37,-3.85,3.66,8.79,883.39,30.93
5128594,-0.01,0.03,1.39,-3.6,2.56,9.03,883.36,30.93
5128632,-0.0,0.02,1.39,-3.36,1.89,9.03,883.33,30.94
5128670,-0.01,0.01,1.37,-2.75,2.75,8.91,883.49,30.95
5128720,-0.02,0.03,1.35,-1.95,1.34,8.85,883.36,30.95
5128758,-0.03,0.01,1.31,-1.22,1.83,8.79,883.35,30.95
5128797,0.01,0.01,1.27,-1.28,1.53,8.54,883.39,30.94
5128835,-0.01,0.03,1.29,-0.85,1.89,8.18,883.36,30.94
5128873,-0.03,0.0,1.21,-0.43,3.3,8.18,883.35,30.95
5128911,-0.0,-0.0,1.21,-0.31,3.42,7.93,883.35,30.95
5128949,-0.01,0.01,1.2,-0.43,3.3,7.63,883.37,30.96
5128987,-0.01,0.0,1.16,-0.61,3.05,7.63,883.28,30.95
5129025,-0.03,-0.01,1.17,-0.79,2.26,7.63,883.35,30.97
5129063,-0.02,-0.01,1.15,-1.1,3.3,7.51,883.32,30.96
5129113,-0.01,0.02,1.22,-1.4,3.05,7.26,883.27,30.95
5129151,-0.01,-0.0,1.24,-0.98,3.42,7.39,883.31,30.96
5129190,-0.01,-0.01,1.25,-0.98,2.99,7.26,883.26,30.94
5129228,-0.05,-0.02,1.21,-0.55,3.72,7.2,883.28,30.95
5129266,-0.03,-0.03,1.13,-0.37,3.11,7.26,883.32,30.95
5129304,-0.01,-0.01,1.12,-0.12,2.99,7.08,883.31,30.96
5129342,-0.01,-0.02,1.05,-0.31,3.3,7.02,883.27,30.96
5129380,-0.03,-0.03,1.02,-0.37,3.11,7.26,883.26,30.96
5129418,-0.02,-0.04,1.02,-0.18,3.78,6.9,883.28,30.96
5129468,-0.01,-0.03,0.97,-0.85,4.21,6.77,883.2,30.95
5129506,-0.03,-0.02,1.01,-0.73,4.64,6.77,883.22,30.94
5129544,-0.03,-0.06,0.97,-0.85,5.31,6.9,883.23,30.95
5129583,-0.02,-0.05,1.02,-1.1,4.7,6.41,883.19,30.96
5129621,-0.0,-0.04,1.0,-1.34,4.76,6.59,883.18,30.96
5129659,-0.02,-0.03,0.98,-1.65,4.09,6.65,883.12,30.95
5129697,-0.03,-0.03,1.0,-1.89,4.88,6.59,883.19,30.98
5129735,-0.02,-0.03,1.05,-2.2,3.91,6.59,883.12,30.97
5129773,-0.02,-0.04,1.08,-2.26,2.75,6.71,883.15,30.96
5129811,-0.03,-0.02,1.1,-2.44,2.14,6.71,883.18,30.96
5129861,-0.02,-0.02,1.13,-2.81,2.99,6.65,883.07,30.94
5129899,-0.03,-0.01,1.16,-2.99,1.89,6.65,883.11,30.96
5129937,-0.04,-0.0,1.19,-3.17,2.32,6.71,883.06,30.96
5129975,-0.04,-0.02,1.19,-2.93,3.6,6.35,883.07,30.96
5130014,-0.04,-0.0,1.24,-2.5,3.66,6.35,883.1,30.96
5130052,-0.04,-0.02,1.2,-2.26,3.78,6.41,883.11,30.96
5130090,-0.04,-0.03,1.2,-1.95,4.76,6.35,883.15,30.96
5130128,-0.04,-0.03,1.13,-1.77,6.1,6.35,883.1,30.96
5130166,-0.04,-0.01,1.12,-2.01,5.49,6.47,883.09,30.97
5130216,-0.04,-0.03,1.07,-1.59,6.04,6.35,883.12,30.96
5130254,-0.04,-0.03,1.04,-1.77,5.37,6.35,883.02,30.95
5130292,-0.04,-0.04,1.06,-1.77,5.07,6.59,883.14,30.96
5130330,-0.05,-0.05,0.96,-2.01,4.88,6.65,883.12,30.97
5130368,-0.06,-0.03,1.02,-2.32,4.46,6.65,883.02,30.96
5130407,-0.04,-0.04,0.94,-2.62,5.37,6.84,883.07,30.96
5130445,-0.05,-0.03,0.99,-2.87,4.7,6.96,883.06,30.97
5130483,-0.05,-0.04,0.95,-3.3,5.74,7.02,883.08,30.97
5130521,-0.05,-0.03,1.03,-3.72,5.8,6.9,882.99,30.97
5130559,-0.05,-0.03,1.04,-3.66,7.45,6.84,882.96,30.96
5130609,-0.06,-0.02,1.1,-4.03,6.29,7.08,882.96,30.96
5130647,-0.07,-0.03,1.09,-3.78,8.0,7.14,883.04,30.97
5130685,-0.06,-0.02,1.08,-3.66,8.0,7.26,882.99,30.96
5130723,-0.05,-0.02,1.13,-3.23,8.18,7.39,882.98,30.96
5130762,-0.05,-0.03,1.06,-3.11,8.42,7.39,883.01,30.98
5130800,-0.06,-0.0,1.12,-3.11,7.69,7.75,883.02,30.97
5130838,-0.05,-0.02,1.11,-2.62,8.36,7.81,882.97,30.98
5130876,-0.07,-0.02,1.14,-2.5,7.39,7.87,882.91,30.97
5130914,-0.06,-0.02,1.16,-2.44,7.69,8.0,882.97,30.98
5130964,-0.06,-0.02,1.13,-2.14,7.02,8.24,882.91,30.96
5131002,-0.05,-0.02,1.13,-2.08,6.29,8.54,883.03,30.97
5131040,-0.07,-0.03,1.07,-1.95,5.68,8.91,882.99,30.97
5131078,-0.07,-0.03,1.06,-1.95,5.86,8.91,883.01,30.99
5131117,-0.05,-0.03,1.07,-1.77,5.98,9.03,882.96,30.97
5131155,-0.06,-0.02,1.06,-1.89,5.19,9.09,882.95,30.98
5131193,-0.06,-0.03,1.08,-1.95,5.13,9.4,882.95,30.98
5131231,-0.05,-0.04,1.08,-1.89,4.88,9.46,883.0,30.97
5131269,-0.05,-0.04,1.08,-1.95,4.76,9.7,882.95,30.98
5131307,-0.07,-0.03,1.04,-2.14,4.7,9.77,882.91,30.97
5131383,-0.04,-0.02,1.06,-2.2,4.82,9.89,882.95,30.94
5131421,-0.07,-0.04,1.03,-2.44,4.21,9.95,882.98,30.96
5131459,-0.07,-0.03,1.05,-2.2,4.33,10.13,882.97,30.96
5131549,-0.06,-0.02,1.04,-2.2,5.37,9.95,882.93,30.94
5131587,-0.06,-0.02,1.06,-2.14,5.43,9.95,882.91,30.95
5131625,-0.06,-0.04,1.04,-2.26,6.71,10.01,882.97,30.95
5131663,-0.06,-0.02,1.07,-2.56,5.98,9.95,882.88,30.96
5131701,-0.06,-0.02,1.08,-2.44,6.77,10.07,882.95,30.97
5131739,-0.06,-0.02,1.06,-2.69,6.41,9.95,882.91,30.96
5131789,-0.06,-0.02,1.11,-2.69,7.14,10.13,882.87,30.94
5131827,-0.05,-0.03,1.09,-2.75,6.29,10.25,882.85,30.96
5131866,-0.07,-0.02,1.14,-2.75,5.98,10.31,882.94,30.96
5131904,-0.06,-0.02,1.09,-2.81,5.98,10.44,882.85,30.96
5131942,-0.05,-0.01,1.12,-2.75,4.39,10.62,882.86,30.96
5131980,-0.05,-0.03,1.04,-2.93,4.58,10.93,882.94,30.97
5132018,-0.05,-0.03,1.05,-2.93,3.05,10.93,882.91,30.97
5132056,-0.05,-0.04,1.02,-2.87,3.3,11.17,882.94,30.96
5132094,-0.05,-0.03,1.01,-2.81,2.14,11.11,882.99,30.98
5132133,-0.05,-0.02,1.03,-2.75,2.56,11.11,882.89,30.96
5132182,-0.06,-0.04,1.0,-2.62,2.32,11.05,882.95,30.96
5132220,-0.05,-0.05,0.99,-2.81,2.56,11.11,882.96,30.96
5132259,-0.04,-0.04,0.95,-2.87,2.14,11.05,882.95,30.96
5132297,-0.05,-0.03,1.0,-2.75,2.87,10.99,882.95,30.96
5132335,-0.04,-0.04,0.96,-2.93,3.42,10.93,882.96,30.96
5132373,-0.07,-0.03,1.04,-3.36,3.17,11.05,882.9,30.96
5132411,-0.07,-0.05,1.01,-3.6,4.03,10.74,882.92,30.96
5132449,-0.06,-0.03,1.08,-3.72,3.85,10.8,882.94,30.95
5132487,-0.04,-0.03,1.07,-3.85,4.64,11.05,882.97,30.95
5132537,-0.05,-0.02,1.1,-3.72,3.85,11.05,882.91,30.94
5132575,-0.07,-0.03,1.1,-3.72,4.27,11.17,882.93,30.98
5132614,-0.06,-0.03,1.12,-3.78,4.09,11.11,882.96,30.96
5132652,-0.05,-0.02,1.14,-3.6,4.03,11.11,882.98,30.96
5132690,-0.05,-0.02,1.14,-3.72,3.72,11.17,882.85,30.95
5132728,-0.05,-0.03,1.15,-3.6,3.97,11.05,882.96,30.95
5132766,-0.05,-0.03,1.14,-3.54,3.42,11.23,883.0,30.94
5132804,-0.06,-0.03,1.13,-3.66,3.23,11.17,882.95,30.95
5132843,-0.06,-0.02,1.09,-3.42,3.48,11.35,883.0,30.95
5132892,-0.07,-0.02,1.1,-3.17,3.05,11.41,882.98,30.94
5132931,-0.05,-0.03,1.09,-3.36,3.05,11.47,882.94,30.94
5132969,-0.06,-0.03,1.09,-3.42,2.99,11.54,883.03,30.93
5133007,-0.07,-0.04,1.06,-3.66,3.11,11.6,883.03,30.94
5133045,-0.05,-0.03,1.06,-3.48,3.3,11.6,882.98,30.93
5133083,-0.07,-0.03,1.06,-3.6,3.66,11.72,882.98,30.94
5133121,-0.07,-0.03,1.05,-3.72,3.78,11.84,882.96,30.93
5133160,-0.06,-0.03,1.06,-3.6,3.78,11.66,882.96,30.92
5133198,-0.05,-0.03,1.07,-3.78,4.27,11.9,882.99,30.93
5133236,-0.06,-0.02,1.12,-3.72,3.97,11.96,882.98,30.91
5133286,-0.05,-0.03,1.15,-3.97,3.97,12.08,882.97,30.89
5133324,-0.06,-0.02,1.21,-3.91,3.3,12.21,883.02,30.91
5133362,-0.06,-0.02,1.2,-3.78,3.54,12.15,882.96,30.89
5133400,-0.04,-0.02,1.21,-3.97,3.66,12.45,883.01,30.92
5133438,-0.04,-0.02,1.19,-3.85,4.39,12.02,883.01,30.91
5133476,-0.04,-0.02,1.17,-3.91,3.91,12.27,883.07,30.9
5133515,-0.05,-0.02,1.17,-3.72,3.78,12.08,882.97,30.9
5133553,-0.05,-0.02,1.15,-3.78,4.15,12.08,883.07,30.91
5133591,-0.04,-0.02,1.19,-3.66,4.15,12.02,883.05,30.91
5133641,-0.05,-0.02,1.17,-3.66,4.03,12.15,883.08,30.9
5133679,-0.05,-0.03,1.18,-3.54,4.46,12.02,883.03,30.91
5133717,-0.04,-0.03,1.16,-3.54,4.64,12.15,883.08,30.91
5133755,-0.04,-0.02,1.17,-3.3,4.7,12.02,883.05,30.91
5133793,-0.05,-0.02,1.15,-3.36,4.76,12.02,883.12,30.91
5133832,-0.05,-0.02,1.15,-3.42,4.94,11.84,883.1,30.92
5133870,-0.05,-0.03,1.15,-3.17,5.07,11.96,883.08,30.92
5133908,-0.04,-0.03,1.16,-3.36,5.07,11.9,883.06,30.91
5133946,-0.04,-0.03,1.17,-3.3,5.19,11.96,883.16,30.91
5133996,-0.04,-0.03,1.16,-3.48,5.25,11.72,883.08,30.91
5134034,-0.04,-0.02,1.17,-3.36,5.31,11.9,883.07,30.91
5134072,-0.04,-0.03,1.15,-3.36,5.19,11.9,883.17,30.92
5134110,-0.04,-0.02,1.19,-3.48,5.25,11.84,883.09,30.92
5134148,-0.04,-0.03,1.18,-3.54,5.55,11.78,883.1,30.92
5134187,-0.04,-0.03,1.2,-3.36,5.19,11.72,883.12,30.93
5134225,-0.05,-0.03,1.17,-3.42,5.37,11.84,883.12,30.92
5134263,-0.05,-0.03,1.17,-3.48,5.07,11.84,883.14,30.91
5134301,-0.04,-0.03,1.18,-3.48,5.31,11.66,883.12,30.92
5134377,-0.03,-0.03,1.18,-3.54,4.82,11.72,883.15,30.9
5134415,-0.03,-0.03,1.17,-3.54,5.0,11.72,883.16,30.9
5134453,-0.03,-0.03,1.19,-3.42,5.13,11.66,883.19,30.91
5134542,-0.04,-0.03,1.18,-3.36,4.7,11.41,883.17,30.89
5134581,-0.03,-0.03,1.17,-3.48,4.7,11.47,883.17,30.89
5134619,-0.04,-0.03,1.16,-3.54,4.52,11.6,883.18,30.91
5134657,-0.04,-0.03,1.16,-3.54,4.7,11.6,883.21,30.91
5134695,-0.03,-0.03,1.16,-3.6,4.39,11.54,883.27,30.91
5134733,-0.03,-0.03,1.19,-3.36,4.64,11.35,883.24,30.91
5134771,-0.04,-0.03,1.16,-3.66,4.21,11.29,883.18,30.92
5134821,-0.03,-0.03,1.2,-3.72,4.27,11.35,883.24,30.91
5134859,-0.02,-0.04,1.16,-3.66,4.09,10.93,883.28,30.92
5134897,-0.04,-0.03,1.19,-3.66,3.66,11.05,883.22,30.93
5134935,-0.03,-0.04,1.17,-3.66,4.21,11.05,883.22,30.92
5134974,-0.02,-0.03,1.17,-3.66,4.09,11.05,883.25,30.93
5135012,-0.03,-0.03,1.19,-3.78,3.91,10.8,883.21,30.92
5135050,-0.03,-0.04,1.18,-3.85,3.78,10.86,883.23,30.92
5135088,-0.02,-0.03,1.2,-3.85,3.85,10.62,883.27,30.92
5135126,-0.03,-0.04,1.18,-4.03,3.97,10.56,883.33,30.93
5135176,-0.03,-0.03,1.19,-3.85,3.66,10.31,883.31,30.91
5135214,-0.02,-0.04,1.17,-3.85,4.21,10.01,883.27,30.92
5135252,-0.02,-0.03,1.18,-3.97,4.03,10.19,883.29,30.92
5135290,-0.03,-0.03,1.19,-4.03,3.72,10.07,883.3,30.92
5135329,-0.03,-0.03,1.17,-3.85,3.85,10.01,883.27,30.92
5135367,-0.02,-0.03,1.19,-4.09,3.91,9.77,883.26,30.91
5135405,-0.02,-0.03,1.18,-4.27,3.54,9.77,883.35,30.92
5135443,-0.03,-0.03,1.19,-4.33,3.91,9.64,883.3,30.91
5135481,-0.03,-0.03,1.18,-4.39,4.21,9.58,883.3,30.93
5135531,-0.04,-0.03,1.2,-4.52,4.27,9.46,883.29,30.91
5135569,-0.03,-0.03,1.18,-4.39,4.09,9.16,883.37,30.92
5135607,-0.03,-0.03,1.22,-4.52,4.21,9.22,883.26,30.91
5135645,-0.03,-0.03,1.21,-4.52,4.64,9.09,883.37,30.92
5135684,-0.02,-0.02,1.24,-4.46,4.58,8.97,883.32,30.91
5135722,-0.04,-0.02,1.23,-4.46,5.0,8.85,883.28,30.91
5135760,-0.04,-0.03,1.22,-4.33,5.31,8.73,883.31,30.91
5135798,-0.03,-0.02,1.24,-4.33,5.07,8.54,883.34,30.92
5135836,-0.04,-0.02,1.24,-4.33,5.13,8.61,883.39,30.92
5135874,-0.05,-0.02,1.25,-4.21,5.07,8.67,883.35,30.91
5135924,-0.04,-0.02,1.27,-4.15,5.07,8.67,883.38,30.91
5135962,-0.04,-0.01,1.29,-3.85,4.58,8.73,883.31,30.91
5136000,-0.04,-0.01,1.27,-3.85,4.94,8.79,883.4,30.92
5136038,-0.05,-0.02,1.27,-3.85,4.39,8.79,883.36,30.91
5136077,-0.04,-0.03,1.28,-3.66,3.78,8.79,883.37,30.91
5136115,-0.06,-0.03,1.22,-3.66,3.66,8.79,883.35,30.92
5136153,-0.05,-0.01,1.23,-3.66,3.78,8.79,883.38,30.92
5136191,-0.05,-0.02,1.2,-3.6,4.21,8.85,883.39,30.93
5136229,-0.05,-0.02,1.2,-3.54,3.72,8.91,883.33,30.92
5136279,-0.06,-0.03,1.2,-3.78,3.91,8.85,883.32,30.92
5136317,-0.06,-0.03,1.22,-3.78,3.66,9.09,883.41,30.92
5136355,-0.05,-0.02,1.21,-3.78,3.91,9.09,883.36,30.92
5136393,-0.05,-0.02,1.19,-3.85,3.42,9.09,883.34,30.92
5136431,-0.06,-0.03,1.2,-3.85,3.54,9.09,883.37,30.92
5136469,-0.05,-0.03,1.18,-3.72,4.03,9.28,883.4,30.92
5136507,-0.06,-0.02,1.19,-3.85,3.48,9.34,883.42,30.92
5136546,-0.06,-0.03,1.19,-3.78,3.42,9.4,883.45,30.92
5136584,-0.05,-0.03,1.17,-3.97,3.54,9.34,883.41,30.93
5136622,-0.06,-0.03,1.19,-4.09,3.36,9.34,883.44,30.94
5136672,-0.07,-0.03,1.17,-4.33,3.36,9.64,883.41,30.91
5136710,-0.07,-0.02,1.19,-4.09,3.42,9.58,883.47,30.92
5136748,-0.07,-0.03,1.19,-4.09,3.23,9.77,883.44,30.92
5136786,-0.06,-0.03,1.2,-4.52,3.05,9.83,883.4,30.92
5136824,-0.06,-0.02,1.2,-4.39,3.42,9.89,883.39,30.93
5136862,-0.06,-0.02,1.2,-4.58,3.91,9.95,883.38,30.93
5136900,-0.06,-0.02,1.24,-4.46,4.21,9.89,883.38,30.92
5136939,-0.07,-0.02,1.21,-4.33,4.64,9.89,883.42,30.92
5136977,-0.08,-0.02,1.24,-4.33,4.94,9.83,883.41,30.93
5137026,-0.07,-0.02,1.26,-4.03,6.35,9.95,883.39,30.91
5137065,-0.07,-0.01,1.27,-3.91,6.16,10.01,883.43,30.93
5137103,-0.08,-0.02,1.25,-3.91,6.29,10.07,883.42,30.93
5137141,-0.07,-0.02,1.27,-3.66,6.53,10.31,883.4,30.92
5137179,-0.07,-0.02,1.26,-3.54,6.9,10.44,883.41,30.91
5137217,-0.07,-0.01,1.25,-3.54,6.65,10.44,883.41,30.92
5137255,-0.07,-0.0,1.3,-3.42,6.65,10.68,883.38,30.91
5137293,-0.07,-0.01,1.34,-3.23,7.08,10.86,883.32,30.92
5137331,-0.08,-0.03,1.33,-3.42,6.96,10.74,883.37,30.93
5137370,-0.07,-0.01,1.39,-3.3,5.92,10.93,883.42,30.92
5137445,-0.06,-0.01,1.34,-3.42,6.1,11.11,883.42,30.87
5137484,-0.09,-0.0,1.34,-3.17,4.88,11.23,883.37,30.9
5137522,-0.08,-0.02,1.31,-3.05,4.94,11.35,883.4,30.91
5137611,-0.07,-0.01,1.31,-3.23,4.58,11.35,883.36,30.86
5137649,-0.07,-0.02,1.32,-2.93,4.39,11.6,883.41,30.87
5137687,-0.07,-0.02,1.32,-2.75,4.27,11.41,883.38,30.87
5137726,-0.08,-0.01,1.29,-2.75,4.09,11.72,883.37,30.87
5137764,-0.08,-0.02,1.27,-2.69,4.46,11.96,883.38,30.87
5137802,-0.08,-0.02,1.25,-2.81,4.03,11.6,883.4,30.87
5137852,-0.07,-0.02,1.23,-3.05,4.52,11.84,883.39,30.88
5137890,-0.06,-0.02,1.25,-3.23,3.48,11.84,883.44,30.89
5137928,-0.07,-0.03,1.23,-3.3,3.6,11.96,883.4,30.89
5137966,-0.08,-0.03,1.22,-3.36,4.09,11.96,883.41,30.88
5138004,-0.07,-0.03,1.22,-3.17,4.15,11.96,883.41,30.88
5138043,-0.07,-0.03,1.21,-3.42,3.3,12.08,883.4,30.89
5138081,-0.06,-0.02,1.2,-3.48,3.36,12.21,883.43,30.9
5138119,-0.07,-0.03,1.17,-3.3,3.11,12.27,883.46,30.89
5138157,-0.07,-0.02,1.19,-3.72,2.87,12.33,883.48,30.89
5138207,-0.07,-0.03,1.16,-3.54,3.17,12.45,883.34,30.88
5138245,-0.06,-0.03,1.17,-3.54,3.3,12.27,883.41,30.88
5138283,-0.06,-0.03,1.15,-3.72,3.6,12.27,883.42,30.89
5138321,-0.06,-0.02,1.22,-3.72,2.56,12.27,883.41,30.89
5138359,-0.05,-0.04,1.14,-3.91,4.64,12.27,883.5,30.89
5138397,-0.06,-0.03,1.2,-4.03,4.03,12.27,883.4,30.89
5138436,-0.04,-0.04,1.18,-3.72,4.09,11.96,883.46,30.9
5138474,-0.04,-0.03,1.17,-3.72,2.87,11.78,883.45,30.89
5138512,-0.05,-0.04,1.21,-3.6,4.15,11.78,883.43,30.91
5138550,-0.05,-0.04,1.12,-3.66,4.58,11.66,883.43,30.89
5138600,-0.08,-0.03,1.15,-3.54,4.21,11.66,883.48,30.89
5138638,-0.05,-0.04,1.11,-3.78,4.82,11.6,883.48,30.89
5138676,-0.06,-0.04,1.15,-3.66,4.76,11.66,883.39,30.89
5138714,-0.04,-0.04,1.09,-3.66,5.31,11.72,883.44,30.88
5138752,-0.05,-0.04,1.11,-3.72,4.7,11.29,883.48,30.9
5138791,-0.06,-0.04,1.1,-3.54,5.25,11.54,883.47,30.89
5138829,-0.04,-0.05,1.09,-3.54,5.13,11.6,883.43,30.89
5138867,-0.06,-0.05,1.09,-3.42,4.88,11.72,883.45,30.89
5138905,-0.06,-0.03,1.09,-3.66,4.39,11.72,883.43,30.89
5138955,-0.05,-0.04,1.11,-3.42,4.46,11.72,883.36,30.87
5138993,-0.03,-0.03,1.15,-3.48,4.15,11.41,883.4,30.87
5139031,-0.04,-0.03,1.17,-3.36,5.19,11.17,883.43,30.87
5139069,-0.03,-0.03,1.21,-3.36,6.35,10.93,883.44,30.89
5139107,-0.05,-0.04,1.24,-3.36,6.29,10.99,883.34,30.88
5139145,-0.06,-0.03,1.26,-3.17,5.8,11.11,883.42,30.88
5139184,-0.06,-0.02,1.25,-3.3,5.98,10.86,883.37,30.87
5139222,-0.05,-0.02,1.23,-3.3,6.16,10.86,883.36,30.87
5139260,-0.04,-0.01,1.24,-3.17,5.68,10.68,883.34,30.86
5139310,-0.06,-0.02,1.23,-2.93,5.68,10.93,883.38,30.87
5139348,-0.06,-0.02,1.28,-2.75,5.07,10.86,883.32,30.86
5139386,-0.06,-0.03,1.24,-2.62,5.92,10.99,883.39,30.86
5139424,-0.06,-0.02,1.24,-2.38,4.58,10.99,883.34,30.87
5139462,-0.07,-0.01,1.24,-2.38,4.82,10.86,883.3,30.88
5139500,-0.05,-0.03,1.21,-2.44,4.64,11.11,883.3,30.86
5139539,-0.05,-0.03,1.2,-2.56,4.03,10.99,883.27,30.86
5139577,-0.07,-0.03,1.18,-2.2,3.48,11.17,883.33,30.87
5139615,-0.05,-0.04,1.17,-2.5,3.72,11.11,883.36,30.89
5139653,-0.04,-0.02,1.18,-2.56,3.85,11.11,883.34,30.88
5139703,-0.06,-0.03,1.15,-2.69,3.72,11.05,883.37,30.87
5139741,-0.05,-0.04,1.15,-2.81,4.21,10.93,883.3,30.86
5139779,-0.05,-0.03,1.16,-2.75,3.72,10.93,883.34,30.87
5139817,-0.05,-0.03,1.13,-2.69,3.6,10.86,883.3,30.87
5139855,-0.05,-0.03,1.12,-2.93,3.54,10.8,883.31,30.87
5139894,-0.05,-0.04,1.1,-2.87,3.72,10.86,883.3,30.86
5139932,-0.04,-0.03,1.11,-2.93,3.36,10.62,883.32,30.89
5139970,-0.06,-0.04,1.07,-3.05,4.15,10.62,883.35,30.87
5140008,-0.05,-0.04,1.08,-3.05,4.27,10.56,883.35,30.87
5140058,-0.03,-0.03,1.1,-3.11,4.88,10.5,883.3,30.86
5140096,-0.05,-0.03,1.11,-3.36,4.21,10.68,883.33,30.88
5140134,-0.06,-0.03,1.11,-3.42,4.88,10.56,883.31,30.87
5140172,-0.04,-0.03,1.15,-3.3,5.43,10.44,883.28,30.86
5140211,-0.03,-0.03,1.17,-3.36,5.55,10.38,883.33,30.88
5140249,-0.04,-0.04,1.18,-3.23,5.62,10.19,883.33,30.88
5140287,-0.05,-0.03,1.16,-3.23,5.86,10.31,883.28,30.88
5140325,-0.05,-0.02,1.19,-3.11,6.9,10.25,883.24,30.87
5140363,-0.03,-0.03,1.15,-2.99,6.9,10.25,883.31,30.86
5140439,-0.04,-0.03,1.15,-2.69,7.08,9.89,883.23,30.85
5140477,-0.03,-0.03,1.16,-2.56,6.71,9.89,883.27,30.86
5140515,-0.04,-0.02,1.19,-2.5,6.53,9.83,883.3,30.86
5140605,-0.03,-0.03,1.2,-1.83,6.71,9.83,883.21,30.82
5140643,-0.02,-0.03,1.19,-1.95,6.23,9.7,883.27,30.85
5140681,-0.02,-0.02,1.18,-2.01,6.71,9.7,883.24,30.84
5140719,-0.03,-0.02,1.13,-2.08,6.77,9.4,883.26,30.85
5140757,-0.02,-0.02,1.16,-1.89,7.39,9.16,883.19,30.85
5140795,-0.02,-0.03,1.15,-1.89,6.9,9.16,883.23,30.86
5140833,-0.03,-0.02,1.15,-2.08,6.47,9.09,883.22,30.86
5140883,-0.03,-0.01,1.17,-2.01,6.35,9.03,883.18,30.85
5140921,-0.02,-0.01,1.21,-2.26,5.07,8.97,883.16,30.86
5140959,-0.01,-0.02,1.19,-2.14,4.64,8.91,883.24,30.86
5140998,-0.02,-0.03,1.17,-2.32,4.46,8.73,883.21,30.87
5141036,-0.04,-0.03,1.12,-2.14,4.21,8.79,883.2,30.87
5141074,-0.02,-0.03,1.12,-2.32,3.6,8.73,883.21,30.86
5141112,-0.04,-0.02,1.09,-2.44,2.62,8.36,883.2,30.87
5141150,-0.04,-0.02,1.11,-2.62,2.32,8.48,883.21,30.86
5141188,-0.02,-0.04,1.15,-2.5,2.69,8.24,883.23,30.88
5141238,-0.03,-0.02,1.18,-2.26,2.38,8.18,883.13,30.86
5141276,-0.03,-0.02,1.19,-2.32,2.81,7.81,883.15,30.87
5141314,-0.05,-0.01,1.19,-2.2,3.11,7.75,883.16,30.87
5141353,-0.05,-0.01,1.21,-2.08,3.6,7.81,883.18,30.87
5141391,-0.03,-0.02,1.23,-2.08,4.21,7.57,883.14,30.87
5141429,-0.03,-0.01,1.21,-1.83,3.91,7.45,883.13,30.89
5141467,-0.05,-0.01,1.21,-1.77,4.64,7.63,883.2,30.88
5141505,-0.05,-0.03,1.2,-1.53,4.94,7.39,883.11,30.88
5141543,-0.04,-0.02,1.21,-1.53,4.7,7.51,883.12,30.89
5141581,-0.06,-0.02,1.18,-1.28,4.39,7.39,883.1,30.88
5141631,-0.07,-0.01,1.21,-1.28,5.62,7.45,883.07,30.87
5141669,-0.03,-0.0,1.19,-1.4,5.86,7.08,883.09,30.89
5141707,-0.05,-0.0,1.24,-1.65,5.68,7.32,883.05,30.88
5141745,-0.05,-0.01,1.26,-1.77,7.14,7.51,882.98,30.88
5141784,-0.04,0.01,1.36,-1.71,7.32,7.2,882.97,30.89
5141822,-0.05,0.02,1.39,-1.77,7.39,7.08,883.01,30.88
5141860,-0.05,0.03,1.4,-1.83,6.9,7.51,882.97,30.88
5141898,-0.04,0.01,1.42,-1.53,8.0,7.26,882.97,30.89
5141936,-0.06,0.0,1.39,-1.4,7.81,7.26,882.96,30.87
5141986,-0.05,0.01,1.34,-0.85,6.84,7.57,883.06,30.87
5142024,-0.06,0.0,1.31,-0.55,6.59,7.75,882.98,30.87
5142062,-0.07,0.0,1.24,-0.49,6.41,7.75,882.98,30.87
5142100,-0.06,-0.01,1.26,-0.49,7.32,7.75,882.97,30.87
5142138,-0.05,-0.02,1.23,-0.73,7.57,7.93,882.93,30.86
5142176,-0.06,-0.0,1.29,-0.85,6.35,8.18,882.88,30.86
5142215,-0.06,-0.01,1.27,-1.04,7.02,8.42,882.93,30.87
5142253,-0.05,-0.01,1.29,-0.98,5.98,8.42,882.89,30.88
5142291,-0.06,-0.0,1.34,-0.92,6.35,8.54,882.91,30.87
5142329,-0.06,-0.01,1.32,-0.85,5.92,8.48,882.92,30.88
5142379,-0.04,-0.0,1.34,-0.98,7.39,8.42,882.91,30.86
5142417,-0.06,-0.01,1.34,-1.04,5.86,8.61,882.9,30.87
5142455,-0.06,-0.02,1.3,-1.1,5.74,8.79,882.94,30.87
5142493,-0.05,-0.02,1.28,-1.4,5.68,8.85,882.89,30.86
5142531,-0.04,-0.02,1.28,-1.4,5.25,8.61,882.91,30.86
5142569,-0.05,-0.03,1.2,-1.59,5.43,8.91,882.85,30.86
5142607,-0.04,-0.01,1.22,-1.71,4.46,8.97,882.93,30.86
5142646,-0.03,-0.03,1.2,-1.89,5.55,8.67,882.84,30.86
5142684,-0.05,-0.03,1.21,-1.89,5.0,8.91,882.85,30.85
5142733,-0.06,-0.04,1.19,-1.59,5.86,8.79,882.89,30.85
5142772,-0.07,-0.03,1.14,-1.53,5.37,8.73,882.89,30.85
5142810,-0.04,-0.02,1.17,-1.46,5.8,8.61,882.88,30.85
5142848,-0.04,-0.04,1.11,-1.65,6.1,8.67,882.82,30.85
5142886,-0.06,-0.03,1.13,-1.46,5.68,8.67,882.81,30.86
5142924,-0.04,-0.06,1.11,-1.4,6.9,8.61,882.85,30.86
5142962,-0.07,-0.06,1.06,-1.71,5.62,8.79,882.85,30.84
5143000,-0.07,-0.04,1.06,-1.71,5.98,8.54,882.85,30.85
5143038,-0.03,-0.04,1.04,-1.71,5.74,8.61,882.8,30.86
5143077,-0.05,-0.04,1.05,-1.65,5.25,8.85,882.76,30.86
5143126,-0.05,-0.05,1.06,-1.22,5.13,8.73,882.82,30.85
5143164,-0.07,-0.05,1.07,-1.16,5.62,8.79,882.81,30.85
5143203,-0.05,-0.04,1.06,-0.92,6.53,8.85,882.77,30.86
5143241,-0.06,-0.04,1.08,-0.55,7.75,8.85,882.72,30.86
5143279,-0.07,-0.04,1.09,-0.12,9.28,9.16,882.71,30.85
5143317,-0.06,-0.05,1.06,0.43,10.31,9.34,882.67,30.86
5143355,-0.06,-0.05,1.06,1.1,11.9,9.4,882.69,30.86
5143393,-0.03,-0.04,1.04,1.1,11.78,9.52,882.57,30.85
5143431,-0.04,-0.03,1.02,1.53,13.73,9.77,882.63,30.86
5143508,-0.02,-0.05,1.02,2.08,13.85,9.89,882.54,30.84
5143547,-0.04,-0.05,0.97,2.5,14.4,10.31,882.57,30.84
5143585,-0.05,-0.04,0.98,2.32,14.71,10.44,882.6,30.85
5143674,-0.02,-0.04,1.0,2.32,14.4,10.93,882.43,30.8
5143712,-0.02,-0.05,0.97,1.95,15.2,10.99,882.43,30.82
5143750,-0.02,-0.04,1.0,2.08,14.65,11.23,882.45,30.83
5143789,-0.02,-0.04,1.01,2.32,14.53,11.35,882.46,30.83
5143827,-0.01,-0.04,1.0,2.2,13.61,11.41,882.42,30.82
5143865,-0.03,-0.03,1.01,2.38,13.67,11.78,882.47,30.84
5143903,-0.01,-0.05,0.99,2.56,13.98,11.78,882.49,30.84
5143953,-0.0,-0.03,1.07,2.75,13.43,11.9,882.45,30.83
5143991,-0.02,-0.05,1.04,2.69,12.76,12.08,882.44,30.83
5144029,0.0,-0.04,1.06,2.93,12.33,12.21,882.39,30.83
5144067,-0.0,-0.05,1.04,3.11,11.78,12.27,882.44,30.84
5144105,0.0,-0.04,1.06,2.99,9.95,12.33,882.41,30.84
5144144,0.01,-0.04,1.1,2.99,8.79,12.21,882.48,30.83
5144182,0.0,-0.05,1.07,2.99,8.06,12.08,882.41,30.84
5144220,0.02,-0.04,1.12,2.87,6.41,12.27,882.41,30.84
5144258,0.02,-0.06,1.11,2.75,5.07,12.02,882.43,30.83
5144308,0.03,-0.05,1.09,2.75,3.42,11.35,882.4,30.83
5144346,0.03,-0.05,1.07,2.75,2.93,10.93,882.4,30.84
5144384,0.04,-0.07,1.03,2.32,1.28,10.93,882.34,30.83
5144422,0.02,-0.05,1.08,2.08,1.04,10.31,882.36,30.85
5144460,0.04,-0.06,1.06,2.14,0.92,9.83,882.38,30.84
5144498,0.01,-0.05,1.06,1.83,0.24,9.52,882.35,30.83
5144537,0.01,-0.05,1.07,1.59,-0.43,9.09,882.33,30.85
5144575,0.04,-0.05,1.08,1.4,-0.79,8.73,882.26,30.84
5144613,0.05,-0.05,1.11,1.46,-1.83,8.18,882.28,30.85
5144651,0.02,-0.05,1.08,1.04,-2.5,8.12,882.28,30.86
5144701,0.05,-0.06,1.1,0.85,-2.99,7.57,882.27,30.84
5144739,0.02,-0.05,1.05,0.92,-4.09,7.02,882.32,30.86
5144777,-0.01,-0.06,0.97,0.79,-5.13,7.08,882.23,30.85
5144815,0.03,-0.05,1.0,0.55,-5.37,6.16,882.24,30.85
5144853,0.04,-0.07,0.91,0.24,-4.58,5.74,882.24,30.86
5144892,0.04,-0.06,0.89,-0.06,-6.1,5.62,882.23,30.85
5144930,0.02,-0.06,0.87,-0.18,-4.76,5.0,882.21,30.85
5144968,0.01,-0.07,0.88,-0.49,-4.82,4.76,882.25,30.85
5145006,0.01,-0.07,0.89,-0.55,-4.58,4.33,882.22,30.86
5145056,-0.02,-0.06,0.87,-0.67,-4.76,3.91,882.21,30.83
5145094,-0.01,-0.07,0.85,-0.85,-3.78,3.42,882.22,30.85
5145132,-0.01,-0.06,0.83,-1.04,-3.85,3.36,882.23,30.85
5145170,-0.04,-0.06,0.81,-1.28,-2.81,3.3,882.22,30.86
5145208,-0.03,-0.06,0.8,-1.53,-2.14,3.11,882.16,30.84
5145246,-0.04,-0.06,0.84,-1.46,-1.71,3.05,882.18,30.86
5145285,-0.04,-0.06,0.82,-1.53,-1.65,2.93,882.22,30.86
5145323,-0.03,-0.06,0.86,-1.59,-0.92,2.75,882.22,30.87
5145361,-0.03,-0.06,0.86,-1.59,0.06,2.62,882.18,30.86
5145399,-0.03,-0.05,0.9,-1.95,-0.06,2.62,882.17,30.87
5145449,-0.04,-0.05,0.87,-2.14,1.28,2.38,882.07,30.85
5145487,-0.06,-0.04,0.97,-2.08,1.95,2.44,882.08,30.86
5145525,-0.06,-0.06,0.93,-2.14,3.17,2.32,882.09,30.87
5145563,-0.02,-0.04,1.01,-2.14,0.92,2.2,882.15,30.87
5145601,-0.05,-0.05,0.98,-2.08,2.08,2.38,882.08,30.88
5145639,-0.02,-0.05,0.98,-2.44,1.46,2.62,882.12,30.88
5145677,-0.03,-0.03,1.03,-2.01,1.4,2.62,882.02,30.86
5145716,-0.08,-0.03,1.0,-1.77,-0.06,2.93,882.07,30.88
5145754,-0.08,-0.02,1.09,-1.53,-0.61,3.3,882.05,30.88
5145803,-0.03,-0.06,1.02,-1.4,0.49,3.11,882.0,30.85
5145842,-0.05,-0.03,1.08,-1.34,0.06,3.23,882.02,30.86
5145880,-0.05,-0.04,1.02,-1.16,1.34,3.54,882.05,30.87
5145918,-0.06,-0.03,0.99,-1.1,2.32,3.23,882.04,30.86
5145956,-0.06,-0.02,1.03,-0.73,2.38,3.17,881.99,30.86
5145994,-0.07,-0.04,1.0,-0.73,2.87,3.3,881.94,30.87
5146032,-0.07,-0.04,1.03,-0.92,3.6,3.23,882.0,30.87
5146070,-0.06,-0.03,1.07,-0.55,4.09,3.42,881.92,30.86
5146108,-0.05,-0.03,1.11,-0.37,3.91,3.36,881.95,30.87
5146147,-0.07,-0.02,1.12,-0.43,4.27,3.48,881.84,30.86
5146196,-0.06,-0.03,1.08,0.06,4.7,3.48,881.87,30.85
5146234,-0.07,-0.02,1.08,0.31,4.52,3.72,881.87,30.86
5146273,-0.08,-0.03,1.04,0.43,3.91,3.66,881.91,30.86
5146311,-0.08,-0.03,1.03,0.73,4.09,3.85,881.88,30.87
5146349,-0.06,-0.03,1.05,1.04,3.66,4.15,881.84,30.85
5146387,-0.09,-0.04,1.0,1.4,3.23,4.52,881.81,30.87
5146425,-0.09,-0.04,1.0,1.4,2.5,4.76,881.82,30.86
5146463,-0.09,-0.03,0.97,1.46,1.28,5.13,881.82,30.85
5146501,-0.09,-0.03,0.94,1.22,0.12,5.49,881.82,30.87
5146577,-0.08,-0.04,0.9,1.16,-0.61,5.98,881.77,30.84
5146615,-0.07,-0.04,0.89,0.67,-0.61,6.1,881.72,30.84
5146653,-0.1,-0.04,0.9,0.12,-1.46,6.59,881.75,30.85
5146743,-0.1,-0.05,0.93,-0.18,-1.77,6.9,881.71,30.81
5146781,-0.09,-0.05,0.9,-0.37,-1.34,7.2,881.74,30.84
5146819,-0.08,-0.04,0.89,-0.55,-2.08,7.51,881.75,30.84
5146857,-0.08,-0.04,0.89,-0.73,-1.83,7.69,881.77,30.84
5146895,-0.09,-0.04,0.89,-0.85,-2.01,7.81,881.68,30.84
5146933,-0.09,-0.05,0.91,-1.1,-2.26,8.3,881.71,30.82
5146972,-0.08,-0.05,0.92,-1.22,-2.38,8.48,881.72,30.84
5147021,-0.08,-0.04,0.97,-1.53,-2.93,8.85,881.72,30.81
5147059,-0.06,-0.05,0.94,-1.59,-2.81,8.91,881.81,30.84
5147098,-0.06,-0.04,0.97,-1.83,-3.48,9.16,881.74,30.83
5147136,-0.06,-0.04,0.98,-1.89,-3.23,9.34,881.72,30.84
5147174,-0.06,-0.04,0.97,-2.08,-2.99,9.28,881.71,30.83
5147212,-0.05,-0.04,1.0,-2.2,-2.5,9.16,881.71,30.82
5147250,-0.06,-0.04,1.01,-2.38,-2.44,9.28,881.69,30.83
5147288,-0.06,-0.04,1.02,-2.62,-1.95,9.4,881.75,30.84
5147326,-0.05,-0.04,1.07,-2.56,-1.46,9.16,881.78,30.83
5147376,-0.06,-0.04,1.09,-2.44,-0.79,9.09,881.68,30.83
5147414,-0.05,-0.04,1.1,-2.38,-0.61,9.09,881.73,30.82
5147452,-0.03,-0.04,1.08,-2.56,-0.12,9.09,881.74,30.82
5147490,-0.05,-0.04,1.07,-2.56,-0.55,9.03,881.72,30.83
5147529,-0.04,-0.05,1.04,-2.26,-0.06,9.28,881.77,30.82
5147567,-0.04,-0.04,1.03,-2.38,-0.06,9.09,881.79,30.84
5147605,-0.05,-0.04,1.03,-2.2,0.18,9.28,881.75,30.83
5147643,-0.05,-0.04,1.04,-2.08,-0.18,9.4,881.76,30.84
5147681,-0.04,-0.04,1.08,-2.14,0.31,8.97,881.76,30.83
5147731,-0.04,-0.03,1.06,-2.62,0.37,9.28,881.77,30.83
5147769,-0.02,-0.03,1.1,-2.44,0.06,9.09,881.72,30.82
5147807,-0.05,-0.05,1.09,-2.75,0.06,8.97,881.75,30.84
5147845,-0.04,-0.05,1.07,-2.93,0.85,9.03,881.7,30.84
5147883,-0.03,-0.04,1.07,-2.93,0.98,8.91,881.77,30.84
5147921,-0.03,-0.05,1.01,-3.17,1.53,8.85,881.71,30.84
5147959,-0.04,-0.04,1.02,-3.54,0.79,8.91,881.67,30.84
5147997,-0.06,-0.05,1.02,-3.36,2.62,8.79,881.72,30.84
5148035,-0.03,-0.07,1.0,-3.42,2.93,8.67,881.75,30.86
5148074,-0.03,-0.06,0.96,-3.54,3.97,8.36,881.76,30.86
5148123,-0.04,-0.06,0.95,-3.78,4.03,8.42,881.78,30.84
5148161,-0.05,-0.06,0.95,-3.78,4.27,8.48,881.82,30.84
5148200,-0.03,-0.07,0.93,-3.66,3.48,8.48,881.77,30.84
5148238,-0.03,-0.06,0.89,-4.15,3.54,8.54,881.75,30.83
5148276,-0.05,-0.06,0.9,-4.39,3.36,8.36,881.75,30.85
5148314,-0.04,-0.07,0.93,-4.33,4.46,8.48,881.76,30.86
5148352,-0.03,-0.06,0.88,-4.94,4.15,8.18,881.79,30.86
5148390,-0.04,-0.05,0.91,-5.55,5.25,8.18,881.79,30.86
5148428,-0.03,-0.05,0.94,-5.86,5.98,8.18,881.73,30.85
5148478,-0.03,-0.06,1.01,-6.1,6.96,8.0,881.72,30.84
5148516,-0.05,-0.07,0.96,-5.92,7.02,7.87,881.71,30.86
5148555,-0.02,-0.04,1.08,-6.41,6.1,7.81,881.71,30.86
5148593,-0.02,-0.03,1.1,-6.16,7.2,8.0,881.77,30.86
5148631,-0.04,-0.05,1.11,-6.29,6.16,8.18,881.78,30.86
5148669,-0.04,-0.04,1.22,-5.92,6.84,8.06,881.69,30.85
5148707,-0.02,-0.06,1.17,-6.16,6.23,7.81,881.7,30.86
5148745,-0.03,-0.02,1.26,-6.04,5.0,7.93,881.74,30.87
5148783,-0.02,-0.03,1.2,-5.92,6.53,8.06,881.78,30.86
5148822,-0.02,-0.04,1.21,-5.92,5.74,7.75,881.72,30.86
5148871,-0.03,-0.05,1.23,-5.49,5.0,7.63,881.73,30.85
5148910,-0.04,-0.04,1.23,-5.25,4.7,7.45,881.77,30.86
5148948,-0.02,-0.03,1.27,-5.13,5.19,7.2,881.77,30.86
5148986,-0.02,-0.03,1.26,-4.88,5.49,7.08,881.72,30.86
5149024,-0.03,-0.02,1.28,-4.46,4.46,6.84,881.74,30.86
5149062,-0.05,-0.04,1.28,-4.33,4.15,6.96,881.75,30.86
5149100,-0.03,-0.03,1.29,-4.15,4.33,6.77,881.69,30.84
5149138,-0.05,-0.03,1.33,-3.66,4.27,6.47,881.7,30.86
5149176,-0.05,-0.04,1.28,-3.6,4.52,6.53,881.74,30.86
5149226,-0.05,-0.03,1.29,-3.42,4.46,6.41,881.72,30.84
5149264,-0.05,-0.03,1.28,-3.11,4.03,6.1,881.73,30.86
5149302,-0.04,-0.03,1.29,-2.99,3.54,6.53,881.79,30.87
5149341,-0.05,-0.03,1.29,-3.05,3.6,6.35,881.78,30.87
5149379,-0.06,-0.03,1.31,-2.93,2.56,6.59,881.79,30.87
5149417,-0.05,-0.03,1.35,-2.75,2.32,6.41,881.75,30.87
5149455,-0.05,-0.02,1.33,-2.99,2.01,6.59,881.72,30.87
5149493,-0.05,-0.02,1.36,-3.05,1.46,6.59,881.8,30.87
5149531,-0.03,-0.03,1.33,-3.23,1.89,6.65,881.7,30.86
5149569,-0.03,-0.02,1.31,-3.3,0.73,6.65,881.75,30.87
5149645,-0.04,-0.02,1.26,-3.72,0.24,6.71,881.75,30.82
5149683,-0.02,-0.02,1.31,-3.78,-0.31,6.59,881.69,30.85
5149721,-0.05,-0.04,1.27,-3.91,0.12,6.53,881.75,30.85
5149811,-0.05,-0.02,1.27,-4.21,0.67,6.41,881.79,30.84
5149849,-0.05,-0.03,1.26,-4.09,0.31,6.29,881.74,30.84
5149887,-0.04,-0.03,1.22,-4.09,0.98,6.16,881.74,30.83
5149925,-0.06,-0.03,1.19,-4.15,2.14,6.1,881.74,30.85
5149963,-0.05,-0.03,1.21,-3.85,2.69,6.16,881.77,30.85
5150002,-0.05,-0.03,1.17,-3.85,2.87,6.1,881.76,30.85
5150051,-0.07,-0.02,1.19,-3.78,3.23,6.04,881.76,30.83
5150090,-0.06,-0.03,1.17,-3.78,3.54,6.04,881.69,30.83
5150128,-0.06,-0.02,1.21,-3.85,3.66,5.98,881.68,30.83
5150166,-0.07,-0.02,1.17,-3.66,4.46,6.29,881.74,30.85
5150204,-0.07,-0.03,1.18,-3.6,4.82,6.41,881.7,30.84
5150242,-0.07,-0.03,1.18,-3.36,5.62,6.35,881.62,30.85
5150280,-0.07,-0.02,1.15,-3.48,5.49,6.65,881.69,30.85
5150318,-0.07,-0.01,1.18,-3.23,5.37,6.77,881.7,30.86
5150357,-0.07,-0.02,1.17,-3.3,5.37,6.9,881.72,30.86
5150395,-0.07,-0.02,1.18,-3.3,5.19,7.14,881.68,30.85
5150445,-0.07,-0.02,1.19,-3.36,5.07,7.39,881.65,30.83
5150483,-0.07,-0.01,1.22,-3.17,6.16,7.51,881.61,30.85
5150521,-0.07,-0.01,1.23,-3.3,5.49,7.75,881.67,30.85
5150559,-0.08,-0.02,1.23,-3.05,5.13,7.81,881.62,30.84
5150597,-0.08,-0.02,1.19,-3.23,5.92,7.93,881.67,30.86
5150635,-0.07,-0.01,1.22,-2.93,5.49,8.36,881.66,30.85
5150673,-0.06,-0.01,1.19,-2.93,5.74,8.36,881.72,30.85
5150712,-0.08,-0.02,1.21,-2.81,5.0,8.61,881.63,30.85
5150750,-0.08,-0.03,1.22,-2.81,5.62,8.91,881.61,30.84
5150799,-0.07,-0.01,1.24,-2.87,4.94,9.03,881.64,30.84
5150838,-0.07,-0.01,1.22,-2.93,5.07,9.4,881.6,30.84
5150876,-0.08,-0.01,1.22,-2.87,4.7,9.58,881.63,30.85
5150914,-0.06,-0.02,1.22,-3.11,4.82,9.64,881.62,30.83
5150952,-0.07,-0.02,1.21,-3.05,4.15,9.7,881.69,30.84
5150990,-0.07,-0.03,1.17,-3.11,3.97,10.19,881.64,30.84
5151028,-0.07,-0.03,1.14,-2.87,3.17,10.31,881.63,30.84
5151067,-0.07,-0.02,1.13,-2.87,3.05,10.38,881.64,30.82
5151105,-0.08,-0.03,1.08,-3.05,2.93,10.74,881.62,30.84
5151155,-0.08,-0.03,1.09,-3.17,2.44,10.99,881.58,30.82
5151193,-0.08,-0.03,1.09,-3.54,2.87,10.74,881.67,30.82
5151231,-0.06,-0.02,1.16,-3.78,3.05,11.11,881.6,30.83
5151269,-0.07,-0.02,1.16,-3.91,3.54,11.11,881.64,30.83
5151307,-0.09,-0.03,1.12,-4.15,4.03,11.29,881.63,30.83
5151346,-0.08,-0.03,1.11,-4.15,5.31,11.35,881.62,30.81
5151384,-0.06,-0.03,1.07,-3.78,5.62,11.23,881.65,30.84
5151422,-0.06,-0.03,1.07,-3.97,5.98,11.41,881.68,30.83
5151460,-0.06,-0.04,1.05,-3.66,6.59,11.54,881.6,30.82
5151498,-0.05,-0.04,1.06,-3.78,7.02,11.6,881.69,30.82
5151548,-0.06,-0.04,1.07,-3.91,7.08,11.54,881.62,30.8
5151586,-0.05,-0.03,1.11,-4.09,7.02,11.66,881.63,30.8
5151624,-0.05,-0.03,1.12,-3.91,7.57,11.6,881.64,30.8
5151662,-0.05,-0.02,1.16,-4.15,7.14,11.9,881.61,30.82
5151700,-0.03,-0.02,1.17,-4.15,7.02,11.9,881.66,30.81
5151739,-0.05,-0.01,1.18,-4.39,5.92,11.96,881.58,30.81
5151777,-0.06,-0.01,1.2,-4.27,5.86,12.08,881.59,30.81
5151815,-0.05,-0.02,1.2,-4.27,5.37,12.21,881.61,30.81
5151853,-0.05,-0.01,1.22,-3.85,4.94,12.15,881.61,30.82
5151903,-0.03,-0.01,1.22,-3.91,4.52,12.15,881.62,30.8
5151941,-0.04,-0.01,1.22,-3.72,3.78,12.33,881.56,30.81
5151979,-0.05,-0.02,1.22,-3.6,4.03,12.27,881.58,30.81
5152017,-0.05,-0.02,1.22,-3.54,3.48,12.15,881.58,30.81
5152055,-0.04,-0.01,1.22,-3.3,3.05,12.08,881.65,30.82
5152094,-0.05,-0.02,1.18,-3.36,3.05,12.15,881.58,30.81
5152132,-0.03,-0.02,1.2,-3.36,2.69,12.08,881.56,30.81
5152170,-0.04,-0.02,1.18,-3.3,2.69,12.15,881.6,30.81
5152208,-0.05,-0.02,1.16,-3.36,2.2,12.21,881.54,30.82
5152258,-0.04,-0.02,1.17,-3.48,2.32,12.08,881.6,30.78
5152296,-0.04,-0.03,1.15,-3.42,1.83,11.84,881.61,30.8
5152334,-0.04,-0.02,1.16,-3.54,1.71,11.78,881.66,30.81
5152372,-0.02,-0.02,1.16,-3.36,2.26,11.66,881.59,30.81
5152410,-0.05,-0.02,1.14,-3.72,1.71,11.6,881.6,30.8
5152449,-0.05,-0.02,1.15,-3.72,2.44,11.6,881.59,30.8
5152487,-0.05,-0.03,1.14,-3.6,2.44,11.35,881.57,30.8
5152525,-0.05,-0.02,1.14,-3.72,2.62,11.35,881.54,30.8
5152563,-0.06,-0.02,1.13,-3.66,2.99,11.41,881.54,30.8
5152601,-0.04,-0.01,1.13,-3.6,3.66,11.17,881.56,30.82
5152677,-0.04,-0.03,1.15,-3.17,5.31,11.17,881.64,30.78
5152715,-0.06,-0.02,1.15,-2.81,5.92,10.86,881.57,30.78
5152753,-0.05,-0.02,1.13,-2.5,7.14,10.99,881.6,30.81
5152843,-0.04,-0.02,1.11,-1.89,8.3,10.93,881.56,30.76
5152881,-0.04,-0.02,1.12,-1.71,8.24,11.05,881.57,30.77
5152919,-0.04,-0.03,1.11,-1.71,7.93,10.86,881.6,30.77
5152957,-0.04,-0.03,1.11,-1.83,7.87,11.11,881.55,30.77
5152995,-0.03,-0.02,1.1,-1.65,7.81,10.93,881.6,30.79
5153033,-0.04,-0.02,1.1,-1.65,7.2,11.11,881.6,30.79
5153083,-0.03,-0.03,1.12,-1.95,6.23,10.99,881.57,30.78
5153121,-0.03,-0.03,1.1,-2.08,5.43,11.11,881.58,30.78
5153160,-0.03,-0.02,1.12,-2.5,4.7,10.93,881.65,30.79
5153198,-0.03,-0.02,1.13,-2.38,4.27,11.11,881.58,30.77
5153236,-0.03,-0.03,1.12,-2.69,3.91,11.11,881.6,30.79
5153274,-0.03,-0.02,1.15,-2.5,3.23,10.99,881.6,30.8
5153312,-0.03,-0.02,1.13,-2.62,3.54,10.93,881.55,30.8
5153350,-0.03,-0.02,1.14,-2.56,2.93,10.93,881.59,30.8
5153388,-0.03,-0.02,1.15,-2.56,2.93,10.99,881.58,30.8
5153438,-0.03,-0.02,1.16,-2.62,2.62,10.86,881.62,30.8
5153476,-0.04,-0.02,1.15,-2.5,2.44,10.8,881.62,30.8
5153515,-0.04,-0.02,1.14,-2.69,2.38,10.74,881.61,30.8
5153553,-0.04,-0.02,1.14,-2.5,2.69,10.68,881.67,30.8
5153591,-0.03,-0.03,1.12,-2.56,3.17,10.38,881.65,30.81
5153629,-0.03,-0.02,1.11,-2.69,3.05,10.44,881.59,30.8
5153667,-0.03,-0.02,1.11,-2.56,3.54,10.44,881.61,30.8
5153705,-0.03,-0.02,1.1,-2.56,4.03,10.13,881.6,30.8
5153743,-0.03,-0.02,1.11,-2.32,4.33,10.07,881.62,30.8
5153782,-0.03,-0.02,1.13,-2.32,4.39,10.01,881.63,30.8
5153831,-0.03,-0.02,1.13,-2.2,4.64,9.95,881.62,30.79
5153870,-0.03,-0.03,1.11,-2.2,5.07,9.89,881.63,30.8
5153908,-0.04,-0.02,1.1,-2.14,5.25,9.7,881.56,30.79
5153946,-0.03,-0.02,1.1,-2.32,5.07,9.83,881.56,30.8
5153984,-0.03,-0.02,1.09,-1.77,4.88,9.64,881.57,30.8
5154022,-0.04,-0.03,1.09,-2.01,4.76,9.58,881.63,30.8
5154060,-0.04,-0.03,1.09,-1.83,4.52,9.7,881.58,30.79
5154098,-0.04,-0.03,1.08,-2.08,4.21,9.83,881.64,30.8
5154137,-0.04,-0.02,1.09,-1.83,4.03,9.7,881.67,30.81
5154186,-0.03,-0.02,1.08,-1.71,3.91,9.83,881.66,30.79
5154224,-0.04,-0.03,1.06,-1.77,4.33,9.46,881.68,30.8
5154263,-0.05,-0.03,1.06,-1.77,4.33,9.52,881.62,30.81
5154301,-0.04,-0.02,1.08,-1.83,4.46,9.58,881.64,30.81
5154339,-0.03,-0.03,1.07,-2.01,4.64,9.52,881.66,30.82
5154377,-0.04,-0.02,1.1,-1.95,4.58,9.52,881.59,30.8
5154415,-0.04,-0.03,1.08,-1.95,5.43,9.46,881.66,30.8
5154453,-0.04,-0.02,1.1,-2.14,5.07,9.4,881.6,30.79
5154491,-0.04,-0.02,1.1,-2.26,5.68,9.34,881.66,30.81
5154530,-0.04,-0.01,1.11,-2.32,5.98,9.46,881.63,30.79
5154579,-0.04,-0.02,1.13,-2.14,7.39,9.22,881.65,30.79
5154617,-0.05,-0.02,1.13,-1.95,7.57,9.22,881.6,30.8
5154656,-0.04,-0.01,1.14,-1.89,8.24,9.34,881.68,30.81
5154694,-0.05,-0.01,1.14,-1.71,9.16,9.4,881.61,30.79
5154732,-0.04,-0.01,1.16,-1.16,9.52,9.46,881.66,30.8
5154770,-0.04,-0.01,1.16,-1.28,9.22,9.77,881.7,30.81
5154808,-0.05,-0.01,1.18,-0.92,9.22,9.77,881.67,30.81
5154846,-0.05,-0.01,1.13,-1.1,9.22,9.89,881.66,30.8
5154885,-0.04,-0.01,1.15,-0.79,8.67,9.89,881.65,30.8
5154934,-0.04,-0.02,1.15,-0.73,8.3,10.13,881.66,30.8
5154973,-0.03,-0.01,1.15,-0.92,7.51,10.13,881.71,30.81
5155011,-0.04,-0.01,1.16,-0.49,7.69,10.38,881.72,30.82
5155049,-0.04,-0.02,1.13,-0.24,7.02,10.62,881.75,30.82
5155087,-0.05,-0.01,1.15,-0.55,5.98,10.56,881.71,30.8
5155125,-0.04,-0.02,1.13,-0.43,5.68,10.8,881.7,30.8
5155163,-0.04,-0.02,1.13,-0.79,5.31,10.8,881.66,30.8
5155201,-0.05,-0.03,1.11,-0.55,5.19,10.99,881.75,30.79
5155240,-0.05,-0.02,1.11,-0.61,4.94,10.99,881.71,30.79
5155289,-0.05,-0.02,1.08,-0.67,5.8,11.05,881.76,30.78
5155328,-0.03,-0.01,1.11,-0.98,5.31,10.99,881.71,30.78
5155366,-0.03,-0.02,1.12,-0.98,6.04,11.11,881.76,30.8
5155404,-0.04,-0.03,1.12,-1.22,6.29,10.99,881.7,30.81
5155442,-0.05,-0.01,1.18,-0.85,6.65,11.05,881.75,30.81
5155480,-0.04,-0.02,1.19,-0.67,6.47,10.99,881.71,30.79
5155518,-0.04,-0.02,1.17,-0.61,6.35,10.86,881.82,30.8
5155557,-0.04,-0.01,1.15,-0.43,6.47,10.68,881.77,30.8
5155595,-0.03,-0.02,1.12,-0.18,6.96,10.86,881.75,30.8
5155633,-0.01,-0.01,1.15,-0.24,5.98,10.68,881.75,30.8
5155709,-0.04,-0.02,1.17,-0.55,5.19,10.8,881.74,30.76
5155747,-0.04,-0.02,1.19,-0.55,5.0,10.8,881.73,30.79
5155785,-0.03,-0.03,1.16,-0.49,3.72,10.56,881.74,30.78
5155874,-0.03,-0.04,1.09,-0.49,2.87,10.74,881.86,30.75
5155913,-0.04,-0.05,1.02,-0.73,2.87,10.68,881.84,30.78
5155951,-0.03,-0.04,0.99,-0.79,2.87,10.62,881.82,30.77
5155989,-0.03,-0.04,0.96,-0.55,2.87,10.56,881.88,30.77
5156027,-0.04,-0.04,0.96,-0.98,2.99,10.44,881.84,30.78
5156065,-0.04,-0.04,1.0,-0.98,3.48,10.44,881.84,30.79
5156115,-0.04,-0.06,1.02,-1.22,3.6,10.25,881.85,30.78
5156153,-0.04,-0.05,1.03,-1.28,3.97,10.31,881.91,30.79
5156191,-0.04,-0.04,1.04,-1.53,4.39,10.19,881.88,30.78
5156229,-0.02,-0.05,1.03,-1.46,4.64,10.07,881.87,30.78
5156267,-0.03,-0.05,1.04,-1.71,4.15,9.89,881.93,30.79
5156306,-0.04,-0.04,1.03,-1.89,4.15,9.89,881.85,30.79
5156344,-0.03,-0.04,1.05,-1.95,4.09,9.77,881.89,30.79
5156382,-0.03,-0.04,1.07,-1.95,4.58,9.58,881.89,30.79
5156420,-0.04,-0.04,1.09,-1.95,4.58,9.58,881.91,30.79
5156470,-0.04,-0.04,1.1,-1.83,5.68,9.52,881.93,30.77
5156508,-0.04,-0.04,1.08,-1.4,6.59,9.22,881.95,30.77
5156546,-0.04,-0.04,1.08,-1.16,7.87,9.4,881.9,30.77
5156584,-0.04,-0.04,1.01,-0.92,8.79,9.16,881.94,30.78
5156622,-0.03,-0.04,1.01,-0.61,9.58,9.16,881.92,30.77
5156660,-0.04,-0.05,0.99,-0.31,10.31,9.28,881.92,30.79
5156699,-0.04,-0.05,1.03,0.06,10.01,9.28,881.94,30.8
5156737,-0.02,-0.05,1.02,0.24,11.05,9.03,881.98,30.8
5156775,-0.02,-0.05,1.01,0.43,11.05,9.28,881.91,30.79
5156813,-0.03,-0.04,1.06,0.37,11.35,9.22,881.84,30.8
5156863,-0.02,-0.05,1.02,0.43,10.74,9.28,882.0,30.77
5156901,-0.03,-0.04,1.07,0.43,10.5,9.4,881.97,30.78
5156939,-0.03,-0.05,1.05,0.61,9.95,9.52,882.0,30.8
5156977,-0.02,-0.04,1.11,0.55,9.03,9.46,881.98,30.79
5157015,-0.03,-0.04,1.08,0.43,9.28,9.58,881.95,30.8
5157054,-0.02,-0.03,1.12,0.55,8.36,9.46,882.04,30.8
5157092,-0.02,-0.04,1.14,0.49,8.24,9.46,881.99,30.8
5157130,-0.02,-0.04,1.16,0.55,7.02,9.46,882.04,30.8
5157168,-0.02,-0.05,1.16,0.49,6.96,9.46,882.03,30.8
5157218,-0.02,-0.04,1.14,0.67,6.16,9.22,882.07,30.8
5157256,-0.01,-0.04,1.16,0.92,5.19,9.22,882.06,30.8
5157294,-0.02,-0.05,1.11,0.73,4.82,9.09,882.04,30.79
5157332,-0.02,-0.04,1.12,1.1,4.33,9.22,882.07,30.79
5157370,0.0,-0.05,1.09,0.92,4.09,9.09,882.08,30.79
5157409,-0.02,-0.06,1.07,1.1,3.05,8.79,882.12,30.79
5157447,-0.03,-0.06,1.03,1.1,3.3,8.67,882.09,30.8
5157485,-0.02,-0.07,0.99,1.04,3.3,8.54,882.13,30.8
