timestamp,acc_x,acc_y,acc_z,rot_x,rot_y,rot_z,qfe,temp
4393501,-0.03,-0.08,0.88,-0.79,-0.85,1.71,871.12,34.3
4393539,-0.04,-0.07,0.93,-0.92,-1.04,1.95,871.15,34.29
4393577,-0.03,-0.07,1.03,-0.85,-1.16,2.01,871.15,34.3
4393627,-0.03,-0.06,1.09,-0.49,-1.59,1.95,871.16,34.28
4393665,-0.04,-0.07,1.08,-0.06,-1.34,1.77,871.26,34.28
4393703,-0.04,-0.06,1.09,0.49,-1.1,1.89,871.24,34.3
4393741,-0.04,-0.06,1.1,1.22,-0.85,1.77,871.21,34.3
4393779,-0.04,-0.08,1.07,1.65,-0.79,1.65,871.18,34.3
4393818,-0.04,-0.07,1.05,1.83,-0.12,1.65,871.15,34.3
4393856,-0.05,-0.07,1.05,2.08,0.61,1.46,871.27,34.3
4393894,-0.03,-0.06,1.06,2.38,0.67,1.59,871.24,34.3
4393932,-0.03,-0.07,1.06,2.26,1.65,1.34,871.22,34.29
4393970,-0.04,-0.07,1.02,2.38,1.89,1.34,871.27,34.31
4394020,-0.02,-0.07,1.02,2.38,2.69,1.4,871.18,34.29
4394058,-0.05,-0.07,1.03,2.56,2.75,1.53,871.27,34.32
4394096,-0.05,-0.07,1.02,2.81,3.54,1.59,871.23,34.3
4394134,-0.03,-0.07,0.98,2.93,2.99,1.89,871.24,34.28
4394172,-0.06,-0.07,0.98,2.99,2.69,1.71,871.25,34.3
4394210,-0.05,-0.08,0.94,2.99,2.32,1.71,871.29,34.3
4394248,-0.02,-0.07,1.0,2.81,2.01,1.65,871.32,34.3
4394286,-0.03,-0.08,0.97,2.99,3.23,1.95,871.25,34.31
4394325,-0.06,-0.07,0.95,2.99,2.56,1.83,871.27,34.3
4394374,-0.06,-0.07,0.96,3.48,3.48,2.08,871.29,34.3
4394412,-0.04,-0.08,0.93,3.23,2.99,2.08,871.27,34.31
4394451,-0.04,-0.07,0.93,3.05,2.81,2.08,871.32,34.3
4394489,-0.07,-0.07,0.89,3.48,3.3,2.2,871.27,34.31
4394527,-0.05,-0.07,0.92,3.23,2.87,2.44,871.29,34.31
4394565,-0.03,-0.08,0.94,3.05,3.11,2.5,871.27,34.32
4394603,-0.06,-0.08,0.88,3.17,3.17,2.56,871.25,34.31
4394641,-0.06,-0.07,0.88,3.11,3.78,2.87,871.29,34.32
4394679,-0.05,-0.07,0.91,2.99,3.42,2.75,871.29,34.32
4394717,-0.05,-0.08,0.87,2.69,3.66,2.93,871.35,34.29
4394767,-0.03,-0.07,0.91,2.62,3.72,3.11,871.34,34.3
4394805,-0.03,-0.08,0.93,2.75,4.09,3.11,871.25,34.28
4394844,-0.05,-0.08,0.99,2.75,3.11,3.3,871.37,34.31
4394882,-0.03,-0.09,1.01,2.75,3.97,3.3,871.34,34.31
4394920,-0.03,-0.08,1.04,2.62,3.48,3.42,871.34,34.31
4394958,-0.02,-0.07,1.07,2.5,2.81,3.42,871.31,34.3
4394996,-0.02,-0.08,1.03,2.62,2.81,3.11,871.35,34.29
4395034,-0.03,-0.07,1.04,2.69,3.23,3.48,871.36,34.3
4395072,-0.02,-0.09,1.0,2.87,4.15,3.36,871.4,34.29
4395110,-0.04,-0.08,1.01,2.87,2.81,3.17,871.44,34.32
4395160,-0.05,-0.07,1.0,3.3,3.78,3.11,871.4,34.29
4395198,-0.03,-0.07,0.99,3.36,3.97,2.99,871.41,34.29
4395236,-0.01,-0.07,0.98,3.42,4.76,2.75,871.38,34.29
4395275,-0.02,-0.08,0.91,3.54,5.31,2.99,871.43,34.3
4395313,0.0,-0.08,0.92,3.66,5.0,2.62,871.38,34.28
4395351,-0.0,-0.08,0.88,3.48,6.04,2.69,871.38,34.28
4395389,-0.01,-0.08,0.89,3.54,4.94,2.56,871.34,34.28
4395427,-0.0,-0.08,0.86,3.48,5.19,2.44,871.36,34.28
4395465,-0.01,-0.08,0.92,3.36,4.09,2.38,871.45,34.3
4395541,-0.01,-0.08,0.92,3.6,3.3,2.14,871.37,34.26
4395579,-0.01,-0.1,0.88,3.91,5.13,1.95,871.39,34.26
4395617,-0.01,-0.08,0.79,3.42,4.39,1.77,871.42,34.28
4395706,-0.02,-0.09,0.75,3.17,3.48,1.46,871.31,34.23
4395745,-0.05,-0.07,0.85,3.17,3.17,1.46,871.31,34.26
4395783,-0.01,-0.1,0.77,3.05,3.72,1.53,871.29,34.26
4395821,-0.01,-0.08,0.88,2.81,2.75,1.4,871.3,34.26
4395859,-0.02,-0.08,0.84,2.62,3.17,1.46,871.32,34.28
4395897,-0.04,-0.09,0.84,2.69,2.99,1.46,871.35,34.27
4395935,-0.02,-0.09,0.82,2.38,4.21,1.4,871.36,34.28
4395985,-0.01,-0.08,0.79,2.01,2.5,1.28,871.29,34.26
4396023,-0.04,-0.07,0.82,1.89,2.81,1.34,871.4,34.27
4396061,-0.03,-0.1,0.76,1.89,3.54,1.4,871.43,34.27
4396099,-0.01,-0.08,0.86,1.59,2.44,1.46,871.34,34.27
4396137,-0.02,-0.09,0.86,1.34,2.75,1.65,871.33,34.26
4396175,-0.04,-0.09,0.89,1.1,2.26,1.59,871.37,34.28
4396213,-0.03,-0.08,0.96,0.98,2.75,1.28,871.33,34.26
4396251,-0.02,-0.09,0.98,1.04,3.3,1.4,871.38,34.26
4396290,-0.03,-0.09,1.01,0.92,2.2,1.28,871.39,34.27
4396328,-0.02,-0.09,1.0,0.92,3.36,1.22,871.41,34.27
4396377,-0.01,-0.08,1.04,1.1,2.81,0.98,871.45,34.26
4396416,-0.02,-0.08,1.02,1.04,3.54,1.04,871.44,34.26
4396454,-0.03,-0.08,1.07,1.22,3.05,0.85,871.42,34.27
4396492,-0.03,-0.09,1.05,1.34,3.48,0.73,871.49,34.26
4396530,-0.01,-0.09,1.04,1.4,3.6,0.85,871.49,34.27
4396568,-0.01,-0.08,1.06,1.53,2.81,0.73,871.53,34.26
4396606,-0.03,-0.1,0.97,1.83,3.17,0.43,871.53,34.27
4396644,-0.03,-0.09,0.94,1.53,3.42,0.49,871.5,34.28
4396682,-0.02,-0.08,0.95,0.92,4.03,0.31,871.54,34.28
4396732,-0.03,-0.09,0.94,0.31,3.85,0.24,871.49,34.25
4396770,-0.02,-0.09,0.98,-0.24,4.7,0.31,871.55,34.28
4396808,0.0,-0.09,1.03,0.06,4.64,0.24,871.58,34.28
4396846,-0.01,-0.1,1.03,-0.37,5.0,0.31,871.61,34.28
4396884,-0.04,-0.07,1.08,-0.31,3.3,0.31,871.68,34.29
4396922,-0.06,-0.08,1.09,-0.06,4.58,0.31,871.6,34.28
4396961,-0.03,-0.08,1.07,0.31,4.15,0.24,871.61,34.29
4396999,-0.02,-0.07,1.15,0.12,3.91,0.18,871.55,34.29
4397037,-0.03,-0.09,1.11,0.55,4.52,0.18,871.61,34.29
4397075,-0.03,-0.08,1.13,0.37,5.13,0.18,871.64,34.3
4397125,-0.04,-0.09,1.13,0.92,5.31,0.18,871.66,34.28
4397163,-0.05,-0.09,1.09,1.1,5.0,0.18,871.67,34.29
4397201,-0.04,-0.08,1.07,1.16,5.43,0.06,871.66,34.28
4397239,-0.02,-0.08,1.07,1.28,5.62,0.06,871.67,34.29
4397277,-0.02,-0.09,1.09,1.53,5.0,0.12,871.71,34.28
4397315,-0.03,-0.09,1.1,1.77,4.64,0.06,871.65,34.3
4397353,-0.04,-0.1,1.06,1.89,4.21,0.12,871.68,34.3
4397392,-0.02,-0.08,1.1,2.14,3.42,0.12,871.69,34.29
4397430,-0.04,-0.09,1.01,2.14,3.54,0.24,871.74,34.31
4397468,-0.02,-0.08,1.04,2.26,1.89,0.18,871.78,34.3
4397518,-0.04,-0.09,0.96,2.69,2.44,0.37,871.72,34.3
4397556,-0.05,-0.08,0.96,2.99,1.16,0.43,871.7,34.31
4397594,-0.05,-0.08,0.93,3.05,1.28,0.43,871.72,34.28
4397632,-0.04,-0.09,0.88,2.69,0.43,0.79,871.75,34.3
4397670,-0.03,-0.08,0.91,2.69,-0.06,0.73,871.7,34.3
4397708,-0.06,-0.09,0.84,2.75,0.0,0.92,871.73,34.28
4397746,-0.04,-0.09,0.86,2.62,-0.98,0.98,871.77,34.28
4397784,-0.05,-0.09,0.82,2.75,-0.24,0.98,871.77,34.3
4397822,-0.05,-0.1,0.78,2.81,0.18,0.98,871.74,34.26
4397872,-0.03,-0.09,0.79,2.75,0.85,1.16,871.74,34.28
4397910,-0.06,-0.1,0.76,2.62,0.92,1.04,871.84,34.29
4397948,-0.05,-0.1,0.77,2.38,1.95,1.16,871.83,34.28
4397986,-0.06,-0.1,0.77,2.26,2.2,1.1,871.82,34.27
4398025,-0.04,-0.09,0.82,1.89,2.2,1.04,871.83,34.28
4398063,-0.06,-0.09,0.8,1.46,2.5,1.22,871.8,34.29
4398101,-0.05,-0.08,0.84,1.04,2.99,1.16,871.84,34.28
4398139,-0.05,-0.09,0.83,0.79,3.23,1.28,871.82,34.27
4398177,-0.04,-0.09,0.9,0.67,3.6,1.28,871.83,34.26
4398215,-0.05,-0.09,0.94,0.92,4.52,1.4,871.88,34.27
4398265,-0.05,-0.09,1.0,0.92,4.46,1.34,871.88,34.26
4398303,-0.05,-0.1,0.98,1.1,6.96,1.22,871.84,34.24
4398341,-0.07,-0.09,1.01,1.16,6.96,1.34,871.86,34.27
4398379,-0.04,-0.08,1.09,1.4,7.02,1.59,871.91,34.25
4398417,-0.06,-0.1,1.01,1.34,9.52,1.53,871.9,34.25
4398455,-0.05,-0.08,1.08,1.46,8.48,1.77,871.96,34.27
4398493,-0.05,-0.08,1.1,2.01,8.61,1.65,871.98,34.26
4398531,-0.02,-0.09,1.07,2.14,8.3,1.89,871.98,34.28
4398569,-0.05,-0.08,1.11,2.38,8.54,2.01,872.01,34.27
4398607,-0.04,-0.09,1.06,2.69,9.03,1.83,871.99,34.27
4398683,-0.04,-0.09,1.05,2.87,8.91,2.2,871.98,34.23
4398721,-0.07,-0.09,1.02,2.69,8.97,2.14,871.94,34.23
4398759,-0.05,-0.08,1.06,2.32,10.93,2.14,871.93,34.23
4398849,-0.06,-0.09,1.17,1.34,11.11,2.44,871.99,34.2
4398887,-0.05,-0.09,1.22,0.85,10.99,2.62,872.0,34.22
4398925,-0.05,-0.1,1.18,0.73,12.15,2.5,872.03,34.22
4398963,-0.05,-0.09,1.17,0.73,10.13,2.56,872.0,34.22
4399002,-0.04,-0.08,1.17,1.1,9.95,2.81,872.08,34.22
4399040,-0.06,-0.1,1.07,1.04,9.64,2.99,872.03,34.23
4399089,-0.04,-0.1,1.06,0.55,9.77,3.17,872.06,34.22
4399128,-0.07,-0.08,1.05,0.12,9.58,2.99,872.08,34.22
4399166,-0.06,-0.09,1.13,-0.06,9.34,3.42,872.06,34.22
4399204,-0.04,-0.1,1.13,-0.24,9.03,2.93,872.09,34.22
4399242,-0.07,-0.08,1.15,-0.61,10.44,3.05,872.15,34.22
4399280,-0.04,-0.1,1.18,-0.31,11.35,3.17,872.08,34.22
4399318,-0.04,-0.09,1.21,-0.18,11.9,3.11,872.09,34.23
4399356,-0.07,-0.08,1.19,0.12,11.05,3.3,872.11,34.24
4399394,-0.06,-0.08,1.23,0.37,11.11,3.23,872.13,34.22
4399432,-0.03,-0.1,1.2,0.43,11.29,3.11,872.16,34.22
4399482,-0.0,-0.07,1.26,0.79,9.16,3.3,872.2,34.22
4399520,-0.04,-0.09,1.19,1.22,8.12,3.23,872.14,34.21
4399558,-0.03,-0.09,1.19,1.34,6.41,3.17,872.1,34.22
4399596,-0.04,-0.09,1.15,1.34,6.41,2.93,872.12,34.21
4399634,-0.03,-0.09,1.12,1.22,4.7,3.05,872.15,34.21
4399672,-0.01,-0.09,1.08,1.16,4.52,2.93,872.16,34.22
4399711,-0.04,-0.09,1.02,1.16,3.85,2.62,872.18,34.21
4399749,-0.06,-0.1,1.02,1.65,3.42,2.99,872.14,34.21
4399787,-0.02,-0.1,0.99,1.83,2.81,2.87,872.17,34.22
4399836,-0.02,-0.08,1.02,1.53,0.43,2.5,872.06,34.21
4399875,-0.01,-0.1,1.01,1.04,-1.04,2.32,872.08,34.2
4399913,-0.02,-0.09,1.06,0.92,-1.71,2.38,872.11,34.2
4399951,-0.04,-0.1,1.1,0.37,-2.93,2.38,872.11,34.2
4399989,-0.04,-0.09,1.14,0.18,-4.03,2.14,872.11,34.22
4400027,-0.04,-0.09,1.14,-0.24,-4.64,2.2,872.14,34.19
4400065,-0.02,-0.08,1.18,-0.31,-3.72,1.83,872.15,34.19
4400103,-0.03,-0.09,1.18,0.06,-3.3,1.65,872.16,34.2
4400141,-0.04,-0.09,1.22,0.37,-3.17,1.46,872.18,34.21
4400179,-0.02,-0.09,1.21,0.73,-1.71,1.46,872.19,34.2
4400229,-0.04,-0.08,1.26,1.34,-1.59,1.04,872.19,34.2
4400267,-0.03,-0.09,1.26,1.59,-1.53,1.04,872.2,34.2
4400305,-0.03,-0.08,1.29,2.08,-1.83,0.73,872.19,34.2
4400343,-0.04,-0.09,1.26,2.08,-0.24,0.73,872.23,34.2
4400382,-0.03,-0.09,1.21,2.44,-1.16,0.67,872.22,34.19
4400420,-0.03,-0.08,1.26,2.5,-0.73,0.31,872.23,34.21
4400458,-0.04,-0.1,1.17,2.56,0.18,0.18,872.21,34.21
4400496,-0.02,-0.08,1.21,2.69,0.18,0.18,872.23,34.21
4400534,-0.02,-0.1,1.13,3.17,0.67,-0.12,872.22,34.21
4400584,-0.03,-0.1,1.13,2.87,-0.79,0.06,872.28,34.21
4400622,-0.01,-0.12,1.01,2.93,0.55,-0.18,872.25,34.21
4400660,-0.02,-0.1,1.01,2.62,0.0,-0.31,872.25,34.19
4400698,-0.02,-0.1,1.02,2.69,-0.31,-0.37,872.23,34.22
4400736,-0.02,-0.1,1.0,2.38,-0.79,-0.37,872.22,34.21
4400774,-0.03,-0.11,1.01,2.44,-0.12,-0.61,872.25,34.21
4400812,-0.02,-0.11,1.02,2.26,-1.22,-0.61,872.25,34.22
4400850,-0.03,-0.11,1.0,2.14,-1.46,-0.55,872.26,34.22
4400888,-0.01,-0.1,0.99,2.01,-1.89,-0.67,872.26,34.23
4400926,-0.05,-0.09,1.02,1.89,-2.44,-0.73,872.16,34.22
4400976,-0.03,-0.1,1.0,1.65,-2.56,-0.73,872.22,34.2
4401014,-0.04,-0.09,1.12,1.65,-2.01,-0.92,872.21,34.22
4401052,-0.05,-0.11,1.09,1.16,-1.34,-0.67,872.18,34.21
4401090,-0.04,-0.09,1.19,1.4,-1.22,-0.98,872.23,34.21
4401128,-0.03,-0.09,1.2,1.59,1.16,-1.22,872.23,34.22
4401167,-0.04,-0.09,1.21,1.77,0.92,-1.04,872.19,34.2
4401205,-0.07,-0.1,1.17,2.26,1.83,-1.22,872.19,34.2
4401243,-0.07,-0.11,1.09,2.26,2.99,-1.16,872.26,34.2
4401281,-0.04,-0.1,1.12,2.62,4.39,-1.34,872.19,34.21
4401330,-0.06,-0.1,0.99,2.56,4.03,-1.16,872.24,34.19
4401369,-0.08,-0.1,0.99,2.38,5.13,-0.92,872.19,34.18
4401407,-0.04,-0.11,0.93,1.71,5.55,-0.79,872.2,34.18
4401445,-0.04,-0.08,1.05,1.4,4.76,-0.79,872.12,34.2
4401483,-0.05,-0.11,0.98,1.16,5.31,-0.49,872.11,34.18
4401521,-0.08,-0.1,1.12,0.73,4.94,-0.55,872.18,34.2
4401559,-0.06,-0.09,1.08,0.49,5.68,-0.55,872.14,34.19
4401597,-0.08,-0.08,1.11,0.37,3.72,-0.31,872.07,34.17
4401635,-0.1,-0.11,1.11,0.67,3.23,-0.12,872.12,34.19
4401711,-0.11,-0.08,1.18,0.73,3.48,0.49,872.08,34.14
4401749,-0.11,-0.09,1.15,1.22,3.11,0.73,872.08,34.16
4401787,-0.1,-0.09,1.16,1.59,3.3,0.92,872.14,34.17
4401876,-0.1,-0.08,1.09,3.11,0.85,2.08,872.11,34.13
4401915,-0.12,-0.11,0.94,3.23,2.38,2.5,872.1,34.14
4401953,-0.04,-0.09,0.92,2.93,1.89,2.26,872.15,34.15
4401991,-0.05,-0.07,0.94,3.36,1.53,2.44,872.14,34.16
4402029,-0.01,-0.12,0.82,2.69,2.38,3.05,872.17,34.17
4402067,-0.0,-0.1,0.91,2.81,2.5,2.56,872.09,34.15
4402105,-0.03,-0.1,0.88,2.87,2.75,2.44,872.18,34.16
4402155,-0.04,-0.09,0.91,2.01,2.14,3.05,872.11,34.14
4402193,-0.06,-0.11,0.84,1.65,3.97,2.5,872.12,34.16
4402231,-0.04,-0.11,0.97,1.89,2.44,2.26,872.14,34.17
4402269,-0.03,-0.11,0.93,1.83,4.33,2.56,872.1,34.16
4402307,-0.01,-0.09,0.96,1.95,3.66,2.5,872.14,34.16
4402345,-0.02,-0.09,0.97,2.08,4.82,2.01,872.11,34.15
4402383,-0.05,-0.1,0.98,2.14,4.33,2.14,872.07,34.16
4402421,-0.04,-0.11,0.93,2.2,6.04,2.5,872.09,34.15
4402459,-0.01,-0.1,0.95,2.08,4.7,1.95,872.08,34.15
4402497,-0.04,-0.09,1.0,2.5,5.98,1.71,872.12,34.16
4402547,-0.01,-0.1,1.01,2.14,5.8,1.95,872.04,34.14
4402585,-0.04,-0.1,1.07,2.75,6.1,1.89,872.06,34.16
4402623,-0.05,-0.1,1.04,2.5,6.65,1.77,872.02,34.15
4402661,-0.07,-0.08,1.11,2.56,6.71,1.77,872.0,34.15
4402699,-0.03,-0.1,1.06,2.75,6.47,1.83,872.01,34.15
4402737,-0.03,-0.1,1.07,2.87,6.41,1.46,871.97,34.14
4402775,-0.05,-0.09,1.06,2.87,6.77,1.71,872.0,34.15
4402813,-0.03,-0.09,1.1,2.99,7.2,2.01,872.05,34.16
4402851,-0.08,-0.1,1.11,3.23,7.32,2.08,871.98,34.16
4402901,-0.06,-0.1,1.18,3.05,7.51,2.14,872.02,34.16
4402939,-0.02,-0.11,1.16,2.87,8.97,2.08,872.01,34.16
4402977,-0.04,-0.09,1.16,2.62,7.08,2.01,872.01,34.16
4403015,-0.02,-0.08,1.13,2.62,8.42,2.08,871.96,34.16
4403053,-0.01,-0.1,1.16,2.5,6.59,2.26,872.02,34.17
4403091,-0.04,-0.1,1.16,2.87,5.8,2.2,871.97,34.17
4403129,-0.05,-0.1,1.08,3.17,5.07,2.01,871.96,34.17
4403167,-0.05,-0.11,1.13,3.42,2.5,2.2,871.97,34.17
4403205,-0.0,-0.12,1.08,2.81,3.66,1.71,871.98,34.18
4403243,-0.03,-0.09,1.02,2.14,2.93,1.83,871.89,34.17
4403293,-0.0,-0.1,1.04,2.08,2.32,1.95,871.91,34.16
4403331,-0.05,-0.14,0.94,1.89,0.92,1.77,871.91,34.16
4403369,-0.07,-0.1,0.91,1.59,0.67,1.71,871.93,34.17
4403407,-0.04,-0.09,0.93,1.77,2.08,1.77,871.86,34.17
4403445,-0.03,-0.11,0.86,1.28,1.4,1.77,871.92,34.17
4403483,-0.04,-0.09,0.93,0.67,-0.92,1.71,871.82,34.16
4403521,-0.04,-0.12,0.88,0.49,1.04,1.89,871.84,34.15
4403559,-0.03,-0.12,1.02,0.79,-0.79,2.01,871.82,34.15
4403598,-0.05,-0.12,0.96,0.55,0.79,1.71,871.84,34.16
4403636,-0.04,-0.1,0.92,0.12,-0.31,1.65,871.85,34.15
4403685,-0.0,-0.11,0.97,0.12,2.01,1.46,871.83,34.15
4403724,-0.02,-0.12,0.91,-0.49,0.55,1.04,871.83,34.15
4403762,-0.06,-0.1,0.93,-0.12,2.2,1.16,871.76,34.14
4403800,-0.03,-0.12,0.89,-0.31,3.85,1.04,871.82,34.16
4403838,-0.02,-0.11,1.02,-0.06,2.62,0.55,871.75,34.14
4403876,-0.06,-0.12,0.93,0.12,2.87,0.61,871.77,34.14
4403914,-0.05,-0.1,1.03,0.12,3.11,0.49,871.83,34.14
4403952,0.0,-0.12,1.02,0.49,4.39,0.31,871.82,34.14
4403990,-0.02,-0.11,0.99,0.43,2.56,0.18,871.8,34.14
4404040,-0.04,-0.1,0.92,0.73,3.78,0.43,871.83,34.14
4404078,-0.04,-0.12,0.88,0.61,4.58,0.12,871.78,34.14
4404116,-0.05,-0.09,0.99,0.67,3.42,-0.06,871.73,34.14
4404154,-0.04,-0.11,0.93,0.61,4.03,0.0,871.77,34.14
4404192,-0.03,-0.1,1.0,0.24,3.05,0.06,871.73,34.13
4404230,-0.02,-0.11,1.01,0.37,4.82,-0.12,871.74,34.14
4404268,-0.05,-0.12,1.0,0.37,4.76,-0.06,871.71,34.14
4404306,-0.06,-0.1,0.99,0.55,5.74,0.0,871.72,34.14
4404344,-0.06,-0.11,0.9,0.61,5.8,-0.18,871.79,34.14
4404382,-0.05,-0.1,0.93,0.79,5.98,-0.31,871.75,34.15
4404432,-0.01,-0.1,0.89,0.73,5.8,-0.31,871.7,34.14
4404470,-0.05,-0.11,0.86,0.31,6.16,-0.06,871.65,34.15
4404508,-0.05,-0.12,0.84,0.18,5.19,0.0,871.69,34.14
4404546,-0.05,-0.11,0.86,-0.31,4.82,0.0,871.71,34.16
4404584,-0.03,-0.11,0.9,-0.24,4.46,-0.18,871.66,34.15
4404623,-0.04,-0.11,0.9,-0.61,3.72,-0.18,871.65,34.13
4404661,-0.03,-0.1,0.91,-0.61,3.23,0.06,871.7,34.14
4404699,-0.03,-0.1,0.96,-0.43,3.11,0.06,871.64,34.16
4404737,-0.05,-0.11,0.97,-0.49,3.05,0.37,871.57,34.14
4404813,-0.05,-0.1,0.99,0.61,1.95,0.24,871.6,34.11
4404851,-0.02,-0.11,0.94,0.43,1.71,0.43,871.62,34.13
4404889,-0.03,-0.1,0.98,0.73,0.92,0.61,871.6,34.13
4404978,-0.07,-0.1,0.92,1.28,-0.06,0.55,871.63,34.09
4405017,-0.05,-0.1,0.91,1.22,-0.31,0.55,871.58,34.11
4405055,-0.08,-0.11,0.9,1.04,-0.06,0.37,871.53,34.12
4405093,-0.06,-0.1,0.89,1.16,2.08,0.43,871.55,34.11
4405131,-0.07,-0.09,0.91,1.4,2.56,0.55,871.55,34.11
4405169,-0.05,-0.09,0.89,1.28,2.32,0.67,871.57,34.11
4405207,-0.06,-0.1,0.89,0.92,2.75,0.92,871.53,34.11
4405257,-0.07,-0.11,0.89,0.79,3.42,1.1,871.58,34.11
4405295,-0.07,-0.1,0.93,0.79,2.26,1.1,871.56,34.12
4405333,-0.07,-0.09,0.93,0.92,2.32,1.16,871.56,34.1
4405371,-0.06,-0.11,0.91,0.98,2.44,1.4,871.55,34.1
4405409,-0.05,-0.09,0.92,0.67,2.56,1.4,871.54,34.1
4405447,-0.05,-0.1,0.98,0.92,2.62,1.71,871.48,34.1
4405485,-0.07,-0.1,0.93,0.79,2.93,1.71,871.54,34.11
4405523,-0.08,-0.09,0.99,0.61,2.38,1.95,871.48,34.12
4405561,-0.06,-0.1,1.03,0.55,2.99,1.83,871.5,34.12
4405599,-0.08,-0.1,1.04,0.43,2.44,1.89,871.52,34.12
4405649,-0.07,-0.1,1.07,0.61,2.62,2.14,871.5,34.1
4405687,-0.08,-0.1,1.07,0.73,2.08,2.26,871.54,34.11
4405725,-0.07,-0.08,1.1,0.92,1.71,2.56,871.5,34.13
4405763,-0.07,-0.1,1.03,1.04,1.71,2.69,871.49,34.12
4405801,-0.08,-0.09,1.04,0.92,1.65,2.75,871.43,34.11
4405839,-0.08,-0.09,1.03,1.04,2.32,2.99,871.46,34.12
4405878,-0.05,-0.09,1.06,1.28,2.14,2.99,871.52,34.11
4405916,-0.05,-0.1,1.03,1.04,2.38,3.11,871.47,34.11
4405954,-0.07,-0.08,1.07,1.4,2.08,3.05,871.51,34.12
4406003,-0.07,-0.1,1.0,1.53,3.05,3.36,871.47,34.11
4406042,-0.07,-0.09,1.06,1.65,2.69,3.36,871.38,34.11
4406080,-0.06,-0.1,1.03,1.95,3.97,3.23,871.48,34.13
4406118,-0.05,-0.1,1.0,1.83,3.72,3.42,871.44,34.13
4406156,-0.05,-0.09,1.04,1.89,4.46,3.36,871.44,34.13
4406194,-0.07,-0.1,0.96,2.01,4.64,3.3,871.44,34.13
4406232,-0.05,-0.09,1.01,1.46,3.85,3.36,871.42,34.13
4406270,-0.05,-0.09,1.04,1.46,4.03,3.48,871.43,34.12
4406308,-0.04,-0.1,1.05,1.4,3.97,3.48,871.41,34.13
4406347,-0.06,-0.09,1.07,1.77,4.76,3.54,871.44,34.12
4406396,-0.05,-0.1,1.05,2.14,3.91,3.66,871.44,34.12
4406434,-0.07,-0.09,1.06,2.2,4.27,3.54,871.38,34.11
4406473,-0.08,-0.09,1.06,2.44,4.15,3.6,871.4,34.11
4406511,-0.03,-0.1,1.09,2.32,5.98,3.48,871.38,34.11
4406549,-0.04,-0.1,1.05,2.26,5.86,3.42,871.42,34.11
4406587,-0.06,-0.09,1.06,2.62,5.19,3.48,871.38,34.12
4406625,-0.04,-0.1,0.98,2.44,5.86,3.72,871.37,34.12
4406663,-0.03,-0.09,1.03,2.44,5.07,3.3,871.34,34.11
4406701,-0.06,-0.1,0.99,2.32,4.52,3.6,871.34,34.1
4406739,-0.04,-0.1,1.01,2.32,3.3,3.6,871.33,34.11
4406789,-0.02,-0.11,0.99,2.26,3.91,3.54,871.32,34.08
4406827,-0.03,-0.09,1.03,2.2,2.69,3.42,871.31,34.09
4406865,-0.04,-0.1,0.98,2.08,3.36,3.6,871.28,34.09
4406903,-0.04,-0.11,0.95,1.83,2.93,3.54,871.34,34.09
4406941,-0.05,-0.1,0.94,1.83,3.85,3.54,871.29,34.1
4406980,-0.05,-0.1,0.89,1.46,3.36,3.66,871.34,34.1
4407018,-0.03,-0.09,0.94,1.4,3.54,3.54,871.24,34.1
4407056,-0.03,-0.1,0.86,1.28,3.66,3.48,871.26,34.08
4407094,-0.04,-0.09,0.91,1.16,2.99,3.36,871.29,34.09
4407144,-0.04,-0.1,0.92,1.28,3.78,3.48,871.32,34.09
4407182,-0.05,-0.1,0.91,1.1,2.75,3.42,871.27,34.07
4407220,-0.04,-0.1,0.92,1.16,3.6,3.36,871.34,34.09
4407258,-0.03,-0.11,0.86,1.4,3.72,3.23,871.27,34.08
4407296,-0.04,-0.1,0.91,1.53,4.03,3.3,871.29,34.09
4407334,-0.04,-0.12,0.82,1.4,4.7,3.23,871.28,34.09
4407372,-0.03,-0.1,0.81,1.16,4.52,3.3,871.28,34.1
4407410,-0.03,-0.09,0.87,0.79,5.0,3.23,871.27,34.1
4407448,-0.02,-0.11,0.85,0.92,4.46,2.99,871.24,34.09
4407487,-0.03,-0.1,0.88,0.73,4.94,2.87,871.26,34.1
4407536,-0.04,-0.1,0.92,0.85,4.52,2.87,871.26,34.09
4407574,-0.01,-0.11,0.92,0.79,5.55,2.62,871.27,34.09
4407613,-0.04,-0.1,0.92,0.85,5.19,2.44,871.25,34.1
4407651,-0.03,-0.1,0.97,0.73,4.27,2.44,871.21,34.09
4407689,-0.03,-0.11,0.96,0.73,4.52,2.2,871.24,34.09
4407727,-0.03,-0.11,1.0,0.79,4.52,2.2,871.26,34.09
4407765,-0.04,-0.1,1.01,1.34,4.27,2.01,871.23,34.1
4407803,-0.03,-0.11,0.96,1.71,4.09,1.89,871.23,34.1
4407841,-0.05,-0.1,0.97,1.83,3.42,2.08,871.22,34.11
4407879,-0.02,-0.1,0.93,2.14,3.54,1.89,871.21,34.09
4407955,-0.04,-0.09,0.95,2.14,2.56,1.71,871.2,34.07
4407993,-0.03,-0.09,0.95,1.95,2.75,1.83,871.14,34.08
4408031,-0.04,-0.1,0.95,1.77,2.87,1.77,871.18,34.09
4408121,-0.04,-0.1,0.92,2.14,4.09,1.65,871.21,34.03
4408159,-0.04,-0.1,0.91,2.01,4.52,1.22,871.18,34.05
4408197,-0.04,-0.1,0.84,2.14,6.04,1.4,871.18,34.06
4408235,-0.02,-0.09,0.83,2.5,6.23,1.53,871.18,34.07
4408273,-0.03,-0.1,0.76,2.75,5.55,1.46,871.21,34.07
4408311,-0.01,-0.1,0.77,2.93,3.6,1.4,871.15,34.06
4408361,0.01,-0.1,0.68,2.14,3.66,1.4,871.16,34.04
4408399,-0.0,-0.08,0.78,2.01,-0.18,1.34,871.11,34.07
4408437,-0.02,-0.1,0.86,1.89,0.12,1.28,871.13,34.07
4408475,-0.03,-0.11,0.9,1.04,-0.73,1.28,871.11,34.07
4408513,-0.03,-0.09,1.0,0.92,-1.16,1.22,871.19,34.08
4408551,-0.04,-0.1,1.07,1.59,-0.79,0.85,871.1,34.09
4408589,-0.02,-0.1,1.13,1.4,0.12,0.67,871.09,34.08
4408627,-0.01,-0.09,1.12,1.46,0.61,0.55,871.12,34.08
4408665,-0.02,-0.09,1.24,2.2,-1.16,0.49,871.09,34.08
4408703,-0.02,-0.12,1.16,2.01,1.77,0.43,871.14,34.09
4408753,0.02,-0.09,1.28,2.62,0.31,0.24,871.1,34.06
4408791,-0.02,-0.11,1.17,2.81,1.89,-0.12,871.18,34.08
4408829,-0.05,-0.09,1.17,2.93,0.0,-0.31,871.12,34.07
4408867,-0.02,-0.09,1.21,2.87,0.61,-0.12,871.06,34.06
4408905,-0.01,-0.1,1.16,2.87,0.18,-0.24,871.1,34.05
4408943,-0.03,-0.09,1.18,2.99,-0.55,-0.31,871.07,34.06
4408981,-0.04,-0.09,1.13,3.05,0.12,-0.49,871.05,34.07
4409019,0.01,-0.1,1.13,2.62,0.49,-0.67,871.05,34.07
4409057,-0.03,-0.1,1.11,2.44,1.34,-0.67,871.05,34.07
4409107,-0.01,-0.11,1.05,2.38,2.32,-0.73,871.12,34.07
4409145,-0.03,-0.09,1.0,2.62,1.59,-1.04,871.1,34.07
4409183,-0.04,-0.1,0.93,2.62,1.95,-1.22,871.08,34.05
4409221,-0.02,-0.11,0.88,2.56,1.04,-1.22,871.1,34.06
4409259,-0.04,-0.09,0.94,2.75,-0.12,-1.16,871.1,34.06
4409297,-0.03,-0.1,0.85,2.5,1.46,-1.34,871.04,34.06
4409335,-0.07,-0.08,0.89,2.5,0.06,-1.1,871.05,34.05
4409374,-0.03,-0.11,0.9,1.95,0.31,-1.04,871.05,34.06
4409412,-0.02,-0.11,0.92,1.65,0.49,-1.34,871.06,34.06
4409450,-0.06,-0.1,0.94,1.53,2.56,-1.53,871.01,34.06
4409499,-0.03,-0.1,0.95,1.4,3.05,-1.1,871.0,34.05
4409538,-0.05,-0.09,0.96,1.22,2.38,-1.22,871.02,34.06
4409576,-0.05,-0.1,0.96,1.28,2.87,-1.22,871.11,34.07
4409614,-0.04,-0.1,0.95,1.1,3.97,-1.1,871.03,34.07
4409652,-0.04,-0.09,1.0,1.22,3.6,-1.4,871.06,34.07
4409690,-0.05,-0.1,0.98,1.34,4.03,-1.28,871.03,34.06
4409728,-0.06,-0.09,0.98,1.71,4.09,-0.98,870.97,34.07
4409766,-0.05,-0.1,0.97,1.53,5.37,-0.92,871.04,34.06
4409804,-0.06,-0.09,0.98,1.65,4.88,-0.92,871.0,34.06
4409854,-0.05,-0.09,0.96,1.71,5.37,-0.61,871.06,34.05
4409892,-0.05,-0.09,0.97,1.89,5.49,-0.67,870.99,34.06
4409930,-0.06,-0.1,0.92,2.08,5.68,-0.43,870.98,34.05
4409968,-0.06,-0.09,0.92,1.77,4.7,-0.31,870.98,34.06
4410006,-0.04,-0.09,0.95,1.83,5.19,-0.24,871.0,34.05
4410044,-0.07,-0.09,0.91,1.65,4.88,-0.06,870.97,34.06
4410082,-0.08,-0.09,0.94,1.83,4.52,0.06,870.96,34.06
4410120,-0.06,-0.1,0.92,1.71,4.52,0.0,871.0,34.06
4410158,-0.05,-0.09,0.95,1.65,4.33,0.18,870.98,34.06
4410197,-0.06,-0.09,0.95,1.59,4.52,0.49,870.98,34.08
4410246,-0.07,-0.09,0.95,1.65,5.0,0.61,870.87,34.04
4410284,-0.09,-0.1,0.95,1.83,4.64,0.73,870.93,34.05
4410322,-0.08,-0.09,0.98,1.65,4.58,0.79,870.92,34.06
4410361,-0.06,-0.08,1.0,1.77,4.21,1.28,870.85,34.04
4410399,-0.06,-0.09,1.02,1.83,4.58,1.16,870.9,34.06
4410437,-0.07,-0.09,1.04,2.08,4.39,1.28,870.89,34.06
4410475,-0.09,-0.09,1.01,2.14,5.07,1.53,870.93,34.06
4410513,-0.07,-0.08,1.07,2.01,5.19,1.59,870.92,34.07
4410551,-0.08,-0.09,1.08,2.32,5.68,1.71,870.92,34.07
4410601,-0.07,-0.09,1.06,2.14,5.31,2.08,870.92,34.05
4410639,-0.08,-0.08,1.06,2.44,4.82,2.14,870.85,34.06
4410677,-0.04,-0.09,1.05,2.5,4.76,2.2,870.93,34.07
4410715,-0.06,-0.09,1.01,2.56,4.88,2.38,870.91,34.07
4410753,-0.07,-0.08,0.99,2.69,4.82,2.62,870.9,34.06
4410791,-0.07,-0.1,0.99,2.75,4.7,2.56,870.88,34.07
4410829,-0.07,-0.1,0.97,2.75,4.76,2.62,870.84,34.05
4410868,-0.04,-0.09,0.97,2.62,4.7,2.69,870.87,34.05
4410906,-0.04,-0.1,0.94,2.56,5.13,2.56,870.89,34.07
4410944,-0.05,-0.09,0.95,2.56,5.49,2.75,870.89,34.05
4411019,-0.07,-0.1,0.94,2.32,4.27,2.87,870.83,34.04
4411058,-0.07,-0.09,0.92,2.38,4.39,2.81,870.85,34.04
4411096,-0.05,-0.09,0.95,2.26,4.39,2.99,870.85,34.03
4411185,-0.06,-0.09,0.94,2.26,3.23,3.3,870.79,34.0
4411224,-0.04,-0.09,0.91,2.01,3.36,3.3,870.88,34.02
4411262,-0.05,-0.09,0.94,2.01,2.93,3.17,870.86,34.02
4411300,-0.05,-0.1,0.95,2.08,3.05,3.23,870.82,34.03
4411338,-0.05,-0.1,0.95,1.65,2.56,3.23,870.83,34.01
4411376,-0.04,-0.09,1.0,1.83,2.93,2.99,870.8,34.02
4411414,-0.03,-0.1,0.99,1.77,2.99,2.99,870.85,34.02
4411464,-0.05,-0.09,1.0,1.77,3.3,3.17,870.77,34.0
4411502,-0.05,-0.1,0.99,2.01,4.15,2.99,870.75,34.01
4411540,-0.05,-0.09,0.97,1.83,3.66,2.75,870.89,34.03
4411578,-0.05,-0.09,0.99,1.89,3.6,2.99,870.82,34.01
4411616,-0.04,-0.1,0.95,2.01,3.23,2.62,870.81,34.03
4411655,-0.06,-0.09,1.0,2.01,3.48,2.75,870.88,34.03
4411693,-0.04,-0.11,0.95,2.01,3.36,2.81,870.78,34.02
4411731,-0.06,-0.09,1.0,1.89,2.99,2.75,870.81,34.04
4411769,-0.04,-0.1,0.97,1.71,3.72,2.62,870.8,34.03
4411819,-0.05,-0.09,0.99,1.77,3.23,2.56,870.83,34.02
4411857,-0.04,-0.09,1.01,1.83,3.54,2.56,870.8,34.03
4411895,-0.04,-0.1,1.02,2.14,2.99,2.5,870.8,34.03
4411933,-0.05,-0.09,1.01,2.08,3.36,2.5,870.76,34.04
4411971,-0.06,-0.09,1.02,2.2,2.69,2.38,870.79,34.03
4412009,-0.04,-0.1,1.06,2.01,2.38,2.26,870.76,34.04
4412048,-0.03,-0.1,1.04,1.77,2.69,2.2,870.77,34.04
4412086,-0.04,-0.08,1.07,2.01,2.32,2.01,870.73,34.05
4412124,-0.05,-0.1,1.04,2.01,2.93,2.14,870.86,34.03
4412162,-0.05,-0.08,1.08,2.08,2.01,2.01,870.8,34.05
4412212,-0.05,-0.09,1.07,2.32,3.48,2.2,870.71,34.03
4412250,-0.05,-0.09,1.06,2.01,2.81,2.14,870.77,34.04
4412288,-0.05,-0.08,1.03,2.14,3.78,1.95,870.79,34.03
4412326,-0.05,-0.1,1.0,2.5,3.3,1.83,870.82,34.03
4412364,-0.03,-0.09,0.99,2.44,4.21,1.77,870.78,34.03
4412402,-0.04,-0.1,0.95,2.62,4.7,1.65,870.76,34.04
4412440,-0.03,-0.1,0.92,2.44,4.39,1.65,870.77,34.04
4412479,-0.04,-0.09,0.91,2.5,4.27,1.53,870.81,34.03
4412517,-0.03,-0.1,0.88,2.44,4.82,1.59,870.73,34.02
4412555,-0.03,-0.1,0.89,2.08,3.54,1.4,870.7,34.03
4412605,-0.05,-0.09,0.86,2.08,3.17,1.4,870.75,34.02
4412643,-0.03,-0.09,0.87,1.95,2.56,1.28,870.7,34.02
4412681,-0.04,-0.09,0.89,2.01,2.81,1.22,870.72,34.01
4412719,-0.04,-0.09,0.88,2.08,2.69,1.22,870.75,34.02
4412757,-0.05,-0.1,0.89,1.71,2.99,1.16,870.73,34.02
4412795,-0.04,-0.1,0.91,1.77,2.5,1.16,870.75,34.02
4412833,-0.05,-0.09,0.9,1.65,2.99,1.1,870.75,34.02
4412872,-0.05,-0.09,0.97,1.59,2.38,1.04,870.7,34.02
4412910,-0.04,-0.09,0.96,1.59,2.08,1.1,870.71,34.03
4412959,-0.06,-0.09,0.98,1.59,1.77,0.98,870.7,34.01
4412997,-0.06,-0.09,0.99,1.59,2.38,1.16,870.67,34.03
4413036,-0.06,-0.08,1.03,1.65,1.83,1.28,870.7,34.03
4413074,-0.07,-0.09,1.01,1.77,2.44,1.34,870.66,34.02
4413112,-0.07,-0.08,1.0,1.59,1.95,1.22,870.65,34.02
4413150,-0.07,-0.08,1.02,2.01,2.69,1.4,870.66,34.02
4413188,-0.05,-0.08,0.99,2.08,3.11,1.53,870.67,34.01
4413226,-0.06,-0.08,1.0,2.14,2.62,1.53,870.67,34.02
4413264,-0.1,-0.09,0.91,2.26,3.36,1.71,870.75,34.03
4413302,-0.06,-0.09,0.96,2.32,2.56,1.65,870.71,34.02
4413352,-0.06,-0.08,0.94,2.38,2.93,1.77,870.62,34.01
4413390,-0.07,-0.09,0.92,2.26,2.69,1.95,870.7,34.01
4413428,-0.08,-0.08,0.92,2.32,3.36,2.01,870.68,34.03
4413466,-0.07,-0.09,0.93,2.26,3.3,2.38,870.65,34.03
4413504,-0.06,-0.09,0.96,2.32,2.75,2.38,870.62,34.04
4413543,-0.07,-0.09,0.92,2.14,3.17,2.62,870.61,34.02
4413581,-0.07,-0.08,0.97,2.01,2.75,2.69,870.65,34.03
4413619,-0.05,-0.09,0.93,2.01,3.3,2.5,870.66,34.03
4413657,-0.07,-0.08,0.94,2.08,2.26,2.93,870.65,34.02
4413695,-0.07,-0.09,0.9,2.38,3.54,2.87,870.67,34.02
4413745,-0.07,-0.09,0.86,2.38,3.85,2.87,870.64,34.02
4413783,-0.06,-0.08,0.84,2.38,4.15,2.87,870.68,34.01
4413821,-0.08,-0.09,0.83,2.38,3.78,2.99,870.62,34.02
4413859,-0.06,-0.1,0.83,2.26,4.82,3.05,870.64,34.02
4413897,-0.07,-0.09,0.86,2.26,4.46,2.93,870.67,34.02
4413936,-0.06,-0.09,0.86,1.95,4.39,3.36,870.61,34.01
4413974,-0.05,-0.09,0.85,1.83,4.52,3.3,870.68,34.02
4414012,-0.06,-0.08,0.86,1.71,4.58,3.23,870.66,34.03
4414050,-0.05,-0.09,0.86,1.77,4.21,3.54,870.69,34.03
4414127,-0.04,-0.08,0.87,1.77,3.54,3.42,870.66,33.98
4414165,-0.04,-0.08,0.88,1.83,3.3,3.6,870.62,34.0
4414203,-0.05,-0.09,0.9,2.08,2.69,3.48,870.69,34.0
4414294,-0.04,-0.09,0.9,1.83,2.5,3.6,870.71,33.97
4414332,-0.04,-0.09,0.89,1.95,2.81,3.36,870.61,33.97
4414370,-0.05,-0.09,0.88,1.89,2.69,3.3,870.67,33.99
4414408,-0.05,-0.09,0.88,1.95,2.69,3.36,870.6,33.99
4414446,-0.05,-0.08,0.9,2.14,3.3,3.36,870.67,33.98
4414484,-0.06,-0.09,0.88,2.01,3.97,3.48,870.63,33.98
4414522,-0.07,-0.09,0.93,2.2,4.82,3.23,870.63,33.99
4414572,-0.06,-0.09,0.91,2.2,5.8,3.23,870.66,33.99
4414610,-0.05,-0.08,0.95,2.32,6.04,3.6,870.68,33.99
4414648,-0.04,-0.09,0.94,2.38,6.77,3.42,870.73,33.99
4414686,-0.07,-0.09,0.95,2.44,7.14,3.54,870.65,33.98
4414725,-0.06,-0.09,0.96,2.44,7.51,3.85,870.69,34.0
4414763,-0.04,-0.09,0.97,2.62,7.26,3.66,870.76,34.01
4414801,-0.05,-0.08,0.94,2.38,7.45,3.91,870.62,34.0
4414839,-0.06,-0.08,0.94,2.5,7.51,3.97,870.64,34.0
4414877,-0.07,-0.08,0.94,2.62,7.63,4.39,870.75,34.01
4414915,-0.07,-0.09,0.93,2.32,6.53,4.64,870.64,33.99
4414965,-0.07,-0.08,0.94,2.08,6.41,5.0,870.68,34.0
4415003,-0.08,-0.08,0.95,1.95,5.68,5.25,870.61,34.0
4415041,-0.08,-0.09,0.96,1.77,4.64,5.68,870.62,34.02
4415079,-0.08,-0.08,0.95,1.83,3.11,5.98,870.61,34.02
4415118,-0.08,-0.08,0.96,1.53,2.38,6.23,870.61,34.02
4415156,-0.09,-0.08,0.93,1.22,2.01,6.77,870.55,34.03
4415194,-0.08,-0.08,0.97,1.22,0.55,6.96,870.62,34.03
4415232,-0.08,-0.08,0.95,1.04,0.61,7.14,870.56,34.02
4415270,-0.07,-0.08,0.98,0.85,-0.06,7.51,870.63,34.02
4415320,-0.07,-0.08,0.97,0.67,0.0,8.0,870.58,34.01
4415358,-0.08,-0.08,0.99,0.55,-0.55,8.18,870.6,34.02
4415396,-0.07,-0.08,0.98,0.18,0.18,8.67,870.62,34.01
4415434,-0.06,-0.09,0.99,0.0,-0.12,8.85,870.62,34.01
4415472,-0.07,-0.08,1.01,-0.37,-0.18,9.03,870.59,34.0
4415510,-0.07,-0.08,1.0,-0.49,0.0,9.22,870.68,34.01
4415548,-0.05,-0.09,1.04,-0.61,0.24,9.4,870.66,34.01
4415586,-0.06,-0.09,1.04,-0.79,0.24,9.58,870.72,34.01
4415624,-0.05,-0.08,1.07,-1.04,0.12,9.89,870.66,34.01
4415663,-0.05,-0.09,1.07,-0.73,0.79,9.83,870.76,34.01
4415712,-0.05,-0.08,1.07,-0.61,0.98,10.25,870.79,34.0
4415750,-0.04,-0.07,1.07,0.06,0.31,10.25,870.72,33.99
4415789,-0.03,-0.08,0.99,0.31,0.49,10.38,870.78,34.0
4415827,-0.03,-0.09,0.94,0.24,0.55,10.44,870.73,33.99
4415865,-0.03,-0.1,0.91,-0.12,0.61,10.38,870.74,33.99
4415903,-0.02,-0.08,0.86,-0.12,0.31,10.25,870.81,34.0
4415941,-0.02,-0.08,0.86,-0.37,1.16,10.13,870.8,34.0
4415979,0.01,-0.09,0.81,-0.61,1.46,10.01,870.77,34.0
4416017,0.02,-0.08,0.84,-0.92,0.24,9.89,870.73,34.0
4416067,0.0,-0.09,0.8,-1.28,0.31,9.77,870.74,33.99
4416105,0.02,-0.09,0.85,-1.53,0.85,9.52,870.7,34.0
4416143,0.02,-0.08,0.86,-1.71,0.55,9.09,870.67,34.01
4416181,0.02,-0.08,0.92,-1.83,0.24,9.09,870.68,34.01
4416220,0.03,-0.1,0.93,-1.53,0.73,8.97,870.71,34.01
4416258,0.03,-0.08,0.96,-1.46,0.18,8.54,870.71,34.02
4416296,-0.0,-0.09,0.98,-0.98,0.92,8.18,870.68,34.0
4416334,0.04,-0.09,0.99,-0.79,2.5,7.87,870.71,34.01
4416372,0.03,-0.07,1.01,-0.43,3.36,7.39,870.66,34.01
4416410,0.02,-0.08,0.99,0.0,3.6,7.14,870.71,34.0
4416460,0.02,-0.08,1.04,0.49,4.46,6.71,870.69,33.99
4416498,0.01,-0.08,1.07,1.28,3.97,6.35,870.77,34.0
4416536,0.01,-0.1,0.98,1.46,5.49,6.1,870.73,33.99
4416574,0.03,-0.07,1.02,1.65,4.39,5.62,870.76,34.0
4416612,0.03,-0.08,1.0,1.83,4.88,5.62,870.76,34.01
4416650,0.02,-0.1,0.98,1.77,4.58,5.49,870.8,34.01
4416689,-0.0,-0.06,1.03,2.01,5.19,5.13,870.74,33.99
4416727,0.02,-0.09,0.97,2.2,5.13,4.88,870.77,33.99
4416765,-0.03,-0.08,0.99,2.01,4.52,4.76,870.72,34.0
4416803,0.03,-0.07,1.02,2.44,5.25,4.58,870.76,33.99
4416853,-0.0,-0.09,0.94,2.62,5.43,4.09,870.82,33.98
4416891,0.0,-0.07,0.94,2.75,6.29,4.03,870.78,33.98
4416929,0.0,-0.09,0.92,2.81,6.35,4.03,870.81,33.98
4416967,0.01,-0.09,0.9,2.69,6.41,3.91,870.79,33.98
4417005,0.01,-0.08,0.95,2.62,5.74,3.66,870.76,33.98
4417043,0.0,-0.1,0.91,2.81,6.16,3.48,870.86,34.0
4417081,0.02,-0.09,0.9,2.56,5.37,3.48,870.85,33.99
4417119,0.02,-0.08,0.93,2.62,6.29,3.23,870.8,33.98
4417158,0.0,-0.09,0.88,2.5,5.49,3.23,870.79,33.99
4417196,-0.02,-0.07,0.95,2.44,4.39,3.05,870.78,33.98
4417271,0.01,-0.08,0.95,1.89,4.76,2.99,870.84,33.96
4417309,0.01,-0.08,0.97,1.89,4.15,2.87,870.84,33.97
4417348,-0.01,-0.08,0.98,1.59,3.6,2.87,870.82,33.98
4417437,0.0,-0.08,1.01,1.77,4.33,2.38,870.91,33.92
4417475,-0.0,-0.07,1.03,1.95,4.15,2.5,870.84,33.94
4417513,0.01,-0.08,0.99,2.14,4.33,2.44,870.9,33.95
4417551,0.01,-0.07,1.01,2.14,4.52,2.2,870.86,33.95
4417590,-0.03,-0.07,0.99,2.44,3.85,2.44,870.9,33.97
4417628,-0.02,-0.08,1.02,2.26,3.54,2.26,870.9,33.95
4417677,0.01,-0.07,1.03,2.2,4.09,2.01,870.88,33.95
4417716,-0.01,-0.07,1.04,2.26,4.39,2.14,871.0,33.97
4417754,0.0,-0.07,1.07,2.38,3.23,2.2,870.94,33.95
4417792,-0.01,-0.07,1.08,2.56,3.6,1.95,870.92,33.96
4417830,-0.02,-0.07,1.06,2.75,3.17,1.89,870.94,33.97
4417868,-0.0,-0.07,1.09,2.93,3.36,2.01,870.9,33.97
4417906,0.01,-0.07,1.06,3.17,2.44,1.95,870.9,33.97
4417944,-0.01,-0.06,1.1,3.17,2.44,1.89,870.93,33.99
4417982,-0.01,-0.07,1.07,3.17,2.81,2.08,870.99,33.99
4418020,-0.01,-0.06,1.15,3.11,2.5,2.01,870.99,34.0
4418070,-0.01,-0.08,1.15,3.54,2.44,1.89,871.02,33.96
4418108,-0.01,-0.03,1.18,3.54,2.01,1.77,871.04,33.98
4418147,-0.01,-0.07,1.14,3.97,3.48,1.95,870.99,33.98
4418185,-0.0,-0.07,1.1,4.09,2.75,1.77,871.08,33.99
4418223,-0.01,-0.07,1.05,4.15,2.87,1.65,871.0,33.98
4418261,-0.02,-0.07,0.95,3.85,2.87,1.83,871.05,33.98
4418299,-0.01,-0.07,0.94,4.15,2.69,1.65,871.11,33.99
4418337,-0.02,-0.09,0.89,4.21,2.5,1.65,871.08,33.99
4418375,-0.03,-0.09,0.88,3.85,2.32,1.89,871.03,34.0
4418413,-0.01,-0.09,0.83,3.78,3.23,1.83,871.1,34.0
4418463,-0.02,-0.07,0.82,3.6,3.05,1.89,871.1,34.0
4418501,-0.02,-0.08,0.78,3.48,3.23,1.89,871.09,33.99
4418539,-0.04,-0.09,0.76,3.11,3.91,1.89,871.14,33.99
4418577,-0.02,-0.08,0.77,3.11,4.88,2.01,871.1,34.01
4418616,-0.02,-0.08,0.76,2.81,4.82,2.01,871.22,34.0
4418654,-0.01,-0.08,0.78,2.81,5.37,2.2,871.14,34.0
4418692,-0.02,-0.08,0.78,2.69,6.35,2.2,871.17,34.02
4418730,-0.02,-0.09,0.8,2.69,6.71,2.14,871.15,34.02
4418768,-0.02,-0.08,0.79,2.5,6.96,2.14,871.24,34.02
4418818,-0.03,-0.08,0.8,2.44,7.02,2.38,871.14,33.99
4418856,-0.02,-0.08,0.81,2.32,7.45,2.38,871.2,34.01
4418894,-0.03,-0.08,0.83,2.26,7.45,2.5,871.21,34.01
4418932,-0.03,-0.08,0.85,2.2,7.75,2.69,871.22,34.03
4418970,-0.03,-0.08,0.86,2.38,8.12,2.81,871.3,34.01
4419008,-0.03,-0.07,0.88,2.14,7.81,2.81,871.24,34.02
4419046,-0.04,-0.08,0.89,2.32,7.87,2.87,871.25,34.01
4419084,-0.03,-0.09,0.87,2.26,8.0,2.93,871.2,34.01
4419123,-0.02,-0.07,0.91,2.2,7.63,3.11,871.28,34.0
4419161,-0.02,-0.08,0.91,2.26,7.81,3.17,871.3,34.01
4419210,-0.02,-0.08,0.92,2.32,7.63,3.36,871.3,34.01
4419249,-0.02,-0.08,0.94,2.5,7.87,3.42,871.31,34.0
4419287,-0.03,-0.08,0.93,2.44,7.69,3.42,871.27,33.99
4419325,-0.03,-0.08,0.95,2.5,7.51,3.42,871.28,34.0
4419363,-0.02,-0.07,0.96,2.44,7.63,3.48,871.31,33.99
4419401,-0.02,-0.08,0.95,2.5,7.75,3.6,871.36,33.99
4419439,-0.02,-0.08,0.96,2.69,7.69,3.6,871.35,33.98
4419477,-0.02,-0.08,0.97,2.69,7.75,3.66,871.36,33.99
4419515,-0.01,-0.07,0.97,2.56,7.57,3.72,871.35,33.99
4419554,-0.02,-0.08,0.95,2.44,7.81,3.66,871.33,33.99
4419603,-0.02,-0.08,0.96,2.5,8.18,3.66,871.36,33.99
4419641,-0.01,-0.08,0.96,2.69,8.67,3.66,871.31,33.99
4419679,-0.0,-0.07,0.96,2.81,9.03,3.54,871.29,33.97
4419718,-0.0,-0.08,0.95,2.93,10.38,3.6,871.32,33.97
4419756,-0.01,-0.08,0.93,2.93,11.11,3.54,871.33,33.98
4419794,-0.0,-0.08,0.91,2.93,11.54,3.42,871.39,33.98
4419832,0.0,-0.08,0.91,3.05,12.08,3.36,871.36,33.99
4419870,0.01,-0.09,0.89,3.11,12.45,3.3,871.42,34.0
4419908,-0.0,-0.08,0.9,3.05,12.45,3.17,871.39,33.99
4419958,-0.0,-0.08,0.9,3.23,12.94,3.11,871.4,33.97
4419996,0.0,-0.08,0.91,3.11,12.15,3.3,871.41,33.97
4420034,0.0,-0.08,0.94,3.05,12.51,3.05,871.42,33.98
4420072,0.0,-0.08,0.93,3.05,12.33,3.11,871.46,33.97
4420111,0.01,-0.08,0.97,2.99,11.41,2.99,871.45,33.99
4420149,0.01,-0.08,0.95,2.93,11.47,2.93,871.47,33.98
4420187,0.0,-0.08,0.94,2.87,11.35,2.81,871.46,33.98
4420225,0.01,-0.08,0.94,2.99,10.93,2.75,871.58,33.99
4420263,0.01,-0.08,0.95,2.93,10.38,2.81,871.5,33.99
4420301,0.03,-0.08,0.95,3.05,10.25,2.38,871.53,33.97
4420429,0.0,-0.08,0.91,3.23,9.4,1.89,871.53,33.92
4420467,0.01,-0.08,0.92,3.36,9.28,1.71,871.61,33.93
4420505,0.01,-0.08,0.89,3.3,9.09,1.46,871.61,33.94
4420595,0.01,-0.09,0.88,3.17,8.36,1.28,871.61,33.91
4420633,0.01,-0.08,0.88,3.11,7.57,1.1,871.6,33.93
4420671,0.01,-0.09,0.87,3.05,7.57,1.28,871.67,33.94
4420709,0.01,-0.09,0.84,2.69,7.08,0.92,871.68,33.94
4420747,-0.0,-0.08,0.86,2.62,6.41,0.79,871.71,33.95
4420785,0.0,-0.09,0.83,2.5,6.29,0.85,871.72,33.95
4420823,0.02,-0.09,0.81,2.56,7.2,0.49,871.73,33.96
4420873,0.01,-0.09,0.8,2.5,7.08,0.24,871.76,33.96
4420911,-0.01,-0.09,0.74,2.44,7.87,0.06,871.8,33.95
4420949,-0.01,-0.08,0.76,2.38,8.18,-0.06,871.84,33.96
4420987,0.0,-0.09,0.79,2.08,9.64,-0.12,871.77,33.96
4421025,0.0,-0.09,0.82,1.89,9.46,-0.37,871.79,33.95
4421063,-0.0,-0.08,0.86,1.77,10.68,-0.49,871.82,33.97
4421102,0.0,-0.09,0.89,1.65,11.11,-0.49,871.83,33.95
4421140,0.01,-0.08,0.95,1.46,10.86,-0.67,871.89,33.97
4421178,-0.02,-0.08,0.95,1.46,11.11,-0.49,871.84,33.96
4421228,-0.01,-0.08,0.99,1.65,10.19,-0.67,871.9,33.95
4421266,0.01,-0.08,1.0,1.77,10.01,-0.92,871.91,33.97
4421304,-0.01,-0.08,0.99,2.08,9.16,-0.79,871.97,33.96
4421342,-0.01,-0.08,1.01,2.44,9.22,-0.73,871.96,33.96
4421380,-0.0,-0.09,0.96,2.56,9.28,-0.85,872.0,33.96
4421418,-0.01,-0.07,1.0,2.62,8.24,-0.98,872.02,33.96
4421456,-0.02,-0.08,0.96,2.69,8.36,-0.79,872.01,33.96
4421494,-0.01,-0.08,0.98,2.69,7.45,-1.1,872.03,33.95
4421532,-0.01,-0.08,0.97,2.75,8.18,-1.22,872.07,33.97
4421570,-0.0,-0.07,1.02,2.69,7.2,-1.16,872.09,33.95
4421620,-0.01,-0.08,0.97,2.62,8.0,-1.4,872.09,33.95
4421658,-0.02,-0.07,1.01,2.75,7.26,-1.4,872.1,33.96
4421696,-0.01,-0.08,0.98,2.81,8.42,-1.46,872.05,33.95
4421735,-0.01,-0.08,0.97,2.5,7.69,-1.65,872.12,33.98
4421773,-0.02,-0.07,0.98,2.62,7.93,-1.59,872.08,33.96
4421811,-0.01,-0.08,0.97,2.38,7.87,-1.59,872.11,33.97
4421849,-0.02,-0.07,1.02,2.38,7.93,-1.71,872.18,33.96
4421887,-0.01,-0.09,1.0,2.56,7.87,-1.77,872.18,33.97
4421925,-0.02,-0.08,1.0,2.38,8.06,-1.77,872.2,33.96
4421975,-0.02,-0.08,0.98,2.56,7.87,-1.95,872.22,33.96
4422013,-0.01,-0.08,1.01,2.62,8.42,-2.01,872.19,33.95
4422051,-0.02,-0.08,1.0,2.62,8.18,-2.01,872.21,33.94
4422089,-0.03,-0.07,1.01,2.32,7.93,-2.08,872.29,33.96
4422127,-0.03,-0.08,1.03,2.62,7.87,-1.89,872.27,33.97
4422165,-0.01,-0.08,1.06,2.38,7.57,-2.2,872.26,33.96
4422204,-0.02,-0.07,1.05,2.44,7.57,-2.08,872.32,33.96
4422242,-0.03,-0.07,1.02,2.44,6.59,-2.01,872.29,33.95
4422280,-0.01,-0.06,1.03,2.32,6.59,-2.08,872.41,33.96
4422318,-0.01,-0.08,1.01,2.44,6.35,-2.08,872.34,33.95
4422368,-0.02,-0.08,1.01,2.56,5.74,-1.89,872.44,33.94
4422406,-0.03,-0.08,1.0,2.87,5.86,-2.14,872.42,33.96
4422444,-0.03,-0.07,1.0,2.75,5.49,-2.38,872.4,33.95
4422482,-0.02,-0.08,0.99,2.81,5.49,-2.38,872.39,33.94
4422520,-0.02,-0.09,0.96,2.69,5.98,-2.08,872.41,33.94
4422558,-0.04,-0.08,0.98,2.87,5.0,-2.38,872.42,33.94
4422596,-0.02,-0.08,0.95,2.81,5.8,-2.38,872.48,33.94
4422634,-0.03,-0.07,0.97,2.69,5.68,-2.44,872.47,33.96
4422672,-0.02,-0.09,0.96,2.87,6.47,-2.62,872.52,33.95
4422722,-0.03,-0.08,0.96,2.81,5.8,-2.69,872.54,33.94
4422760,-0.04,-0.07,0.96,2.99,6.23,-2.44,872.52,33.94
4422798,-0.04,-0.08,0.96,2.75,5.49,-2.75,872.59,33.94
4422836,-0.04,-0.07,1.0,2.56,5.86,-2.56,872.6,33.94
4422875,-0.04,-0.09,0.96,2.44,5.19,-2.81,872.5,33.94
4422913,-0.04,-0.08,0.96,2.5,5.0,-2.75,872.62,33.95
4422951,-0.03,-0.08,0.93,2.5,5.55,-2.62,872.62,33.94
4422989,-0.04,-0.07,0.92,2.44,4.15,-2.56,872.65,33.95
4423027,-0.05,-0.09,0.9,2.14,4.03,-2.5,872.63,33.94
4423065,-0.04,-0.09,0.92,1.65,3.78,-2.62,872.62,33.95
4423115,-0.03,-0.09,0.98,1.28,2.81,-2.44,872.68,33.94
4423153,-0.04,-0.09,0.98,0.85,2.62,-2.32,872.65,33.92
4423191,-0.05,-0.07,0.99,1.04,2.38,-2.26,872.68,33.94
4423229,-0.05,-0.08,1.02,0.98,1.95,-2.32,872.65,33.94
4423267,-0.04,-0.08,0.99,0.67,1.53,-2.26,872.74,33.93
4423306,-0.06,-0.07,1.0,0.79,1.77,-2.38,872.71,33.94
4423344,-0.06,-0.07,1.0,0.67,2.08,-2.32,872.74,33.94
4423382,-0.04,-0.08,1.03,0.43,1.89,-2.26,872.8,33.93
4423420,-0.04,-0.09,1.02,0.24,1.4,-2.5,872.76,33.93
4423496,-0.03,-0.08,1.0,0.31,2.81,-2.26,872.82,33.89
4423534,-0.04,-0.08,1.02,0.43,2.56,-2.44,872.85,33.92
4423572,-0.06,-0.08,0.99,0.37,2.93,-2.26,872.85,33.92
4423661,-0.06,-0.08,1.01,0.49,3.36,-2.32,872.86,33.87
4423700,-0.06,-0.07,1.04,0.67,3.23,-2.08,872.92,33.9
4423738,-0.06,-0.08,1.04,0.92,4.21,-2.01,872.9,33.89
4423776,-0.05,-0.09,1.02,0.85,4.21,-2.14,872.93,33.9
4423814,-0.05,-0.07,1.04,0.79,4.21,-2.08,872.89,33.9
4423852,-0.06,-0.07,1.01,0.79,4.27,-1.83,872.99,33.9
4423890,-0.06,-0.07,1.01,0.85,4.03,-1.77,872.95,33.9
4423940,-0.06,-0.08,1.01,0.61,3.48,-1.71,872.99,33.89
4423978,-0.07,-0.07,1.03,0.73,3.72,-1.59,873.02,33.9
4424016,-0.06,-0.08,1.0,0.92,4.03,-1.22,872.97,33.9
4424054,-0.08,-0.06,1.04,1.04,3.3,-1.16,873.01,33.89
4424092,-0.07,-0.07,1.06,0.92,4.46,-1.04,873.04,33.92
4424130,-0.08,-0.07,1.06,1.1,4.7,-0.98,873.07,33.91
4424168,-0.08,-0.06,1.13,1.16,5.92,-0.73,873.0,33.91
4424207,-0.06,-0.08,1.17,1.22,5.55,-0.67,873.04,33.91
4424245,-0.07,-0.06,1.17,1.22,6.16,-0.67,873.13,33.91
4424294,-0.07,-0.07,1.16,1.53,5.98,-0.37,873.15,33.91
4424333,-0.08,-0.07,1.14,1.89,6.1,-0.12,873.13,33.91
4424371,-0.07,-0.07,1.12,2.01,5.19,-0.18,873.16,33.92
4424409,-0.06,-0.07,1.08,2.2,5.19,0.0,873.19,33.9
4424447,-0.06,-0.08,1.09,2.2,5.0,0.12,873.15,33.92
4424485,-0.04,-0.08,1.07,2.38,4.76,0.24,873.21,33.91
4424523,-0.07,-0.08,1.04,2.44,4.27,0.24,873.27,33.91
4424561,-0.06,-0.07,1.03,2.32,4.33,0.43,873.24,33.9
4424599,-0.04,-0.08,1.05,2.44,4.15,0.43,873.24,33.91
4424637,-0.04,-0.09,1.01,2.32,4.27,0.55,873.24,33.91
4424687,-0.04,-0.09,1.01,2.38,4.39,0.55,873.31,33.9
4424725,-0.05,-0.09,0.98,2.08,3.78,0.49,873.35,33.91
4424764,-0.04,-0.08,0.98,1.77,3.23,0.61,873.37,33.92
4424802,-0.04,-0.08,0.95,1.46,3.36,0.49,873.37,33.91
4424840,-0.03,-0.09,0.98,1.28,2.81,0.55,873.36,33.9
4424878,-0.03,-0.09,0.98,0.98,3.23,0.55,873.37,33.9
4424916,-0.05,-0.09,1.01,1.1,3.72,0.49,873.39,33.9
4424954,-0.04,-0.08,1.02,0.73,4.39,0.31,873.41,33.9
4424992,-0.04,-0.09,1.04,0.73,4.82,0.43,873.44,33.9
4425042,-0.04,-0.09,1.02,0.43,5.8,0.24,873.47,33.9
4425080,-0.05,-0.08,1.07,0.67,5.98,0.31,873.45,33.89
4425119,-0.03,-0.08,1.07,0.61,5.74,0.12,873.49,33.9
4425157,-0.03,-0.08,1.07,0.55,5.0,0.24,873.43,33.89
4425195,-0.02,-0.08,1.1,0.55,5.0,0.31,873.5,33.89
4425233,-0.03,-0.09,1.09,0.55,4.46,0.43,873.48,33.89
4425271,-0.04,-0.08,1.13,0.49,3.17,0.37,873.53,33.89
4425309,-0.04,-0.08,1.15,0.24,2.2,0.37,873.51,33.9
4425347,-0.05,-0.07,1.14,0.31,1.65,0.43,873.57,33.9
4425385,-0.04,-0.08,1.15,0.18,1.59,0.37,873.54,33.89
4425435,-0.04,-0.07,1.2,0.49,1.1,0.37,873.52,33.88
4425473,-0.06,-0.08,1.23,0.79,1.28,0.43,873.54,33.88
4425511,-0.03,-0.09,1.24,0.92,2.44,0.37,873.6,33.9
4425549,-0.03,-0.07,1.28,1.16,1.04,0.37,873.62,33.9
4425587,-0.03,-0.07,1.24,1.65,2.14,0.43,873.61,33.9
4425626,-0.04,-0.09,1.14,1.89,2.14,0.12,873.69,33.9
4425664,-0.03,-0.09,1.1,1.59,3.23,0.31,873.69,33.89
4425702,-0.02,-0.09,1.04,1.46,2.62,0.24,873.64,33.89
4425740,-0.04,-0.09,0.99,1.4,3.05,0.0,873.67,33.9
4425778,-0.05,-0.09,0.9,1.16,2.87,0.31,873.65,33.9
4425828,-0.03,-0.09,0.92,0.61,2.14,0.06,873.73,33.9
4425866,-0.04,-0.1,0.88,0.37,1.28,0.06,873.69,33.88
4425904,-0.05,-0.09,0.92,0.12,0.67,-0.06,873.69,33.89
4425942,-0.03,-0.09,0.92,0.0,1.22,0.06,873.7,33.89
4425980,-0.03,-0.09,0.92,-0.06,-0.12,-0.06,873.74,33.89
4426018,-0.03,-0.08,0.95,-0.12,-0.37,-0.06,873.78,33.9
4426056,-0.04,-0.09,0.93,0.06,0.31,-0.06,873.73,33.9
4426094,-0.04,-0.09,0.96,-0.06,0.12,-0.24,873.7,33.88
4426133,-0.05,-0.09,0.96,0.18,-0.12,-0.18,873.72,33.88
4426182,-0.04,-0.09,1.01,0.24,-0.49,-0.24,873.77,33.89
4426220,-0.03,-0.09,0.99,0.12,-0.18,-0.24,873.79,33.89
4426259,-0.04,-0.08,1.05,0.18,-0.79,-0.18,873.76,33.89
4426297,-0.04,-0.09,1.05,0.31,-0.31,-0.37,873.88,33.91
4426335,-0.04,-0.09,1.03,0.0,-0.49,-0.24,873.8,33.91
4426373,-0.04,-0.08,1.04,0.24,-0.61,-0.24,873.81,33.9
4426411,-0.05,-0.1,1.01,0.0,-0.85,-0.24,873.89,33.9
4426449,-0.04,-0.09,1.06,0.12,-1.1,-0.49,873.9,33.91
4426487,-0.03,-0.09,1.07,0.31,-0.67,-0.43,873.93,33.9
4426563,-0.05,-0.08,1.11,0.49,-0.43,-0.18,873.9,33.88
4426601,-0.05,-0.09,1.08,0.61,-0.37,-0.37,873.92,33.9
4426639,-0.04,-0.08,1.1,0.79,-0.18,-0.31,873.87,33.89
4426729,-0.05,-0.08,1.08,1.1,1.71,-0.49,873.94,33.87
4426767,-0.05,-0.08,1.07,0.92,2.01,-0.24,873.92,33.87
4426805,-0.03,-0.08,1.08,1.16,2.14,-0.37,874.01,33.87
4426843,-0.05,-0.09,1.07,1.28,2.69,-0.49,874.04,33.87
4426881,-0.03,-0.08,1.05,1.22,3.05,-0.43,874.03,33.88
4426919,-0.03,-0.08,1.06,1.16,2.69,-0.43,874.05,33.88
4426957,-0.04,-0.09,1.05,1.46,2.81,-0.37,874.08,33.9
4427007,-0.04,-0.08,1.03,1.53,2.62,-0.37,874.03,33.87
4427045,-0.05,-0.08,1.02,1.28,2.44,-0.18,874.05,33.88
4427084,-0.04,-0.09,1.03,1.16,2.56,-0.31,874.12,33.89
4427122,-0.05,-0.08,1.06,1.28,3.05,-0.49,874.01,33.88
4427160,-0.04,-0.08,1.07,1.34,3.05,-0.18,874.11,33.88
4427198,-0.03,-0.08,1.08,1.46,3.17,-0.24,874.12,33.87
4427236,-0.05,-0.08,1.09,1.46,2.99,-0.31,874.09,33.88
4427274,-0.04,-0.09,1.08,1.59,3.36,-0.31,874.14,33.87
4427312,-0.02,-0.09,1.09,1.59,3.17,-0.31,874.1,33.88
4427362,-0.04,-0.08,1.08,1.71,2.99,-0.31,874.1,33.85
4427400,-0.05,-0.08,1.1,1.71,2.5,-0.12,874.15,33.87
4427438,-0.04,-0.08,1.1,1.89,2.62,-0.18,874.21,33.88
4427476,-0.04,-0.09,1.07,1.89,2.08,-0.18,874.2,33.88
4427514,-0.04,-0.09,1.1,2.08,2.32,-0.12,874.2,33.88
4427553,-0.03,-0.1,1.05,1.89,3.66,-0.43,874.15,33.88
4427591,-0.05,-0.08,1.04,2.14,3.42,-0.31,874.19,33.88
4427629,-0.04,-0.09,1.03,2.2,4.03,-0.24,874.18,33.87
4427667,-0.03,-0.08,1.03,1.89,3.42,-0.24,874.14,33.88
4427705,-0.04,-0.09,1.04,2.01,4.03,-0.31,874.12,33.87
4427755,-0.06,-0.09,1.04,2.08,3.48,-0.24,874.22,33.86
4427793,-0.05,-0.09,1.03,2.08,3.85,-0.12,874.23,33.87
4427831,-0.05,-0.09,1.04,2.2,3.17,-0.31,874.27,33.89
4427869,-0.04,-0.08,1.0,2.2,3.85,-0.12,874.21,33.86
4427907,-0.04,-0.08,0.98,2.2,3.97,-0.06,874.23,33.88
4427945,-0.04,-0.08,1.01,2.08,3.42,0.0,874.25,33.87
4427983,-0.05,-0.09,0.96,2.14,3.3,0.18,874.28,33.87
4428022,-0.04,-0.08,1.0,2.08,2.62,0.18,874.27,33.88
4428060,-0.03,-0.09,0.97,2.08,3.17,0.06,874.32,33.86
4428109,-0.05,-0.09,0.96,2.14,2.44,0.12,874.34,33.87
4428148,-0.03,-0.09,0.97,2.14,2.75,0.24,874.3,33.88
4428186,-0.05,-0.09,0.94,2.14,2.26,0.12,874.25,33.87
4428224,-0.04,-0.09,0.95,2.2,2.14,0.24,874.32,33.87
4428262,-0.03,-0.09,0.93,2.08,1.53,0.18,874.27,33.87
4428300,-0.04,-0.09,0.95,2.08,0.92,0.18,874.27,33.87
4428338,-0.03,-0.09,0.92,1.89,1.04,0.06,874.31,33.88
4428376,-0.04,-0.09,0.95,1.95,1.16,0.06,874.3,33.87
4428414,-0.04,-0.09,0.93,1.77,1.16,0.18,874.25,33.88
4428452,-0.05,-0.09,0.94,1.77,1.04,0.12,874.35,33.88
4428502,-0.05,-0.09,0.95,1.71,1.53,0.0,874.36,33.87
4428540,-0.05,-0.08,0.97,1.59,1.59,-0.12,874.41,33.87
4428578,-0.05,-0.09,0.96,1.59,2.01,0.06,874.37,33.88
4428616,-0.05,-0.09,0.98,1.4,1.89,0.06,874.42,33.88
4428655,-0.05,-0.09,0.96,1.77,2.14,0.12,874.37,33.88
4428693,-0.05,-0.09,0.99,1.65,2.5,0.12,874.39,33.88
4428731,-0.05,-0.09,0.97,1.53,2.87,0.12,874.41,33.88
4428769,-0.05,-0.09,0.98,1.59,2.69,-0.06,874.41,33.87
4428807,-0.05,-0.09,0.98,1.59,2.81,0.18,874.42,33.86
4428845,-0.04,-0.09,0.99,1.83,2.75,0.12,874.47,33.88
4428895,-0.05,-0.08,1.01,1.77,2.81,0.12,874.47,33.85
4428933,-0.05,-0.09,1.0,1.77,2.75,0.12,874.46,33.86
4428971,-0.06,-0.09,0.99,2.01,2.26,0.06,874.49,33.87
4429009,-0.04,-0.09,0.99,2.2,2.62,0.18,874.45,33.85
4429047,-0.04,-0.09,0.97,2.26,2.32,0.24,874.48,33.86
4429086,-0.05,-0.08,0.99,2.2,2.2,0.31,874.51,33.87
4429124,-0.05,-0.09,0.94,2.32,2.38,0.43,874.49,33.86
4429162,-0.04,-0.09,0.96,2.32,2.08,0.43,874.49,33.86
4429200,-0.04,-0.09,0.95,2.08,2.26,0.55,874.49,33.86
4429250,-0.05,-0.08,0.97,1.95,1.89,0.49,874.5,33.85
4429288,-0.05,-0.09,0.95,1.71,1.71,0.61,874.52,33.87
4429326,-0.04,-0.08,0.99,1.59,0.85,0.61,874.53,33.86
4429364,-0.04,-0.09,0.95,1.59,1.89,0.49,874.55,33.86
4429402,-0.06,-0.09,0.96,1.16,1.16,0.61,874.61,33.86
4429440,-0.04,-0.08,0.99,1.16,1.53,0.73,874.54,33.87
4429478,-0.05,-0.1,0.96,1.04,1.59,0.73,874.59,33.88
4429517,-0.05,-0.08,0.98,0.73,1.59,0.67,874.61,33.87
4429555,-0.04,-0.09,0.98,0.92,1.77,0.67,874.55,33.88
4429593,-0.04,-0.09,0.99,0.85,1.83,0.61,874.6,33.88
4429669,-0.04,-0.09,1.0,0.79,1.89,0.49,874.54,33.85
4429707,-0.04,-0.09,1.01,0.85,1.89,0.61,874.66,33.86
4429745,-0.05,-0.09,1.0,1.1,2.01,0.61,874.66,33.87
4429834,-0.04,-0.09,1.0,1.59,1.89,0.49,874.64,33.84
4429873,-0.05,-0.08,1.02,1.65,1.95,0.67,874.65,33.84
4429911,-0.05,-0.09,1.0,1.83,2.2,0.49,874.7,33.86
4429949,-0.05,-0.09,0.99,1.83,2.38,0.43,874.67,33.86
4429987,-0.04,-0.09,1.01,2.01,2.2,0.43,874.71,33.84
4430025,-0.05,-0.09,0.99,2.08,2.26,0.31,874.72,33.86
4430063,-0.04,-0.09,1.0,2.2,2.44,0.49,874.69,33.86
4430113,-0.05,-0.09,0.99,2.14,2.75,0.31,874.75,33.84
4430151,-0.05,-0.09,0.98,2.08,2.32,0.24,874.73,33.84
4430189,-0.05,-0.08,0.99,2.2,2.38,0.43,874.79,33.86
4430227,-0.05,-0.09,0.97,2.26,2.75,0.37,874.76,33.84
4430265,-0.05,-0.09,0.98,2.32,2.93,0.49,874.74,33.86
4430303,-0.05,-0.08,0.97,2.26,3.05,0.37,874.78,33.85
4430342,-0.05,-0.08,0.96,2.32,3.48,0.55,874.75,33.85
4430380,-0.06,-0.08,0.96,2.44,3.54,0.61,874.78,33.86
4430418,-0.05,-0.09,0.95,2.38,3.6,0.55,874.75,33.85
4430468,-0.04,-0.09,0.94,2.26,3.66,0.55,874.77,33.84
4430506,-0.06,-0.08,0.94,2.38,3.54,0.55,874.79,33.83
4430544,-0.05,-0.09,0.94,2.38,3.54,0.61,874.8,33.84
4430582,-0.05,-0.08,0.94,2.5,3.42,0.73,874.84,33.85
4430620,-0.05,-0.09,0.94,2.44,2.99,0.73,874.86,33.85
4430658,-0.05,-0.08,0.94,2.5,3.23,0.73,874.88,33.85
4430696,-0.05,-0.09,0.93,2.44,3.36,0.79,874.82,33.85
4430734,-0.05,-0.08,0.94,2.56,2.93,0.67,874.86,33.86
4430773,-0.05,-0.08,0.91,2.44,2.99,0.79,874.83,33.84
4430811,-0.06,-0.08,0.93,2.5,2.99,0.79,874.83,33.85
4430860,-0.06,-0.1,0.92,2.32,3.17,1.1,874.89,33.84
4430899,-0.06,-0.09,0.93,2.14,3.17,1.28,874.95,33.85
4430937,-0.05,-0.09,0.93,2.01,3.72,1.22,874.91,33.85
4430975,-0.05,-0.09,0.93,1.77,3.66,1.22,874.89,33.84
4431013,-0.05,-0.08,0.95,1.89,4.21,1.16,874.93,33.84
4431051,-0.05,-0.09,0.94,1.59,3.78,1.28,874.92,33.84
4431089,-0.06,-0.09,0.97,1.65,4.15,1.16,874.92,33.84
4431127,-0.04,-0.09,0.98,1.34,3.66,1.46,874.92,33.84
4431165,-0.04,-0.09,1.0,1.22,3.97,1.4,874.98,33.86
4431204,-0.06,-0.08,0.99,1.34,4.21,1.4,874.98,33.84
4431253,-0.05,-0.09,1.0,1.22,4.39,1.59,874.97,33.83
4431291,-0.05,-0.09,0.99,1.1,4.39,1.34,874.99,33.84
4431330,-0.05,-0.08,1.04,1.16,4.58,1.46,874.95,33.83
4431368,-0.05,-0.09,1.02,1.1,4.82,1.59,874.94,33.82
4431406,-0.05,-0.09,1.04,1.04,4.82,1.53,874.99,33.83
4431444,-0.04,-0.08,1.06,1.22,4.94,1.53,874.98,33.82
4431482,-0.06,-0.08,1.06,1.16,4.52,1.65,875.07,33.82
4431520,-0.05,-0.08,1.08,1.16,4.94,1.65,875.05,33.82
4431558,-0.04,-0.09,1.07,1.28,4.7,1.71,875.05,33.82
4431608,-0.04,-0.09,1.08,1.34,4.39,1.71,875.05,33.82
4431646,-0.04,-0.09,1.07,1.53,4.82,1.59,875.1,33.83
4431684,-0.04,-0.09,1.09,1.46,4.88,1.77,875.13,33.84
4431723,-0.04,-0.08,1.09,1.65,4.82,1.65,875.09,33.83
4431761,-0.04,-0.08,1.06,1.71,4.94,1.77,875.12,33.84
4431799,-0.04,-0.08,1.07,1.83,5.31,1.77,875.15,33.85
4431837,-0.04,-0.08,1.06,1.77,5.55,1.77,875.21,33.85
4431875,-0.05,-0.09,1.04,2.01,5.92,1.77,875.16,33.84
4431913,-0.04,-0.08,1.04,2.08,6.41,1.83,875.12,33.86
4431951,-0.04,-0.09,1.05,2.32,6.35,1.89,875.17,33.84
4432001,-0.04,-0.09,1.04,2.32,6.29,1.89,875.18,33.84
4432039,-0.05,-0.09,1.02,2.38,5.92,1.83,875.14,33.83
4432077,-0.04,-0.08,1.02,2.44,5.86,1.83,875.2,33.84
4432115,-0.04,-0.09,1.0,2.38,5.74,1.89,875.23,33.85
4432154,-0.04,-0.09,0.98,2.44,5.43,1.83,875.19,33.84
4432192,-0.03,-0.09,0.99,2.38,5.55,2.01,875.18,33.84
4432230,-0.04,-0.08,0.98,2.32,5.55,1.89,875.11,33.82
4432268,-0.04,-0.09,0.99,2.44,5.43,1.89,875.22,33.83
4432306,-0.02,-0.09,0.98,2.2,5.19,1.89,875.21,33.82
4432344,-0.03,-0.09,0.99,2.32,4.64,1.83,875.22,33.83
4432394,-0.02,-0.09,0.96,2.2,4.33,1.89,875.19,33.82
4432432,-0.03,-0.08,0.94,2.32,4.33,1.71,875.23,33.82
4432470,-0.04,-0.09,0.93,2.38,4.76,1.89,875.24,33.83
4432508,-0.03,-0.09,0.9,2.38,4.21,1.77,875.25,33.81
4432546,-0.03,-0.08,0.93,2.38,4.21,1.65,875.28,33.81
4432585,-0.04,-0.1,0.88,2.26,5.74,1.46,875.28,33.82
4432623,-0.03,-0.09,0.92,2.5,5.8,1.53,875.33,33.82
4432661,-0.04,-0.09,0.91,2.62,7.08,1.53,875.27,33.8
4432699,-0.02,-0.09,0.91,2.56,7.63,1.53,875.33,33.82
4432775,-0.02,-0.09,0.93,2.69,8.48,1.4,875.34,33.78
4432813,-0.03,-0.09,0.97,2.87,8.54,1.46,875.28,33.79
4432851,-0.02,-0.09,0.99,2.93,8.54,1.34,875.32,33.8
4432942,-0.03,-0.09,1.01,2.81,8.12,1.28,875.34,33.76
4432980,-0.02,-0.09,1.04,2.81,7.81,1.4,875.39,33.8
4433018,-0.04,-0.09,1.02,2.99,7.87,1.16,875.4,33.78
4433056,-0.04,-0.09,0.99,3.05,8.06,1.28,875.42,33.8
4433094,-0.03,-0.08,0.96,3.11,7.93,1.34,875.38,33.8
4433133,-0.03,-0.1,0.96,3.23,7.75,1.28,875.39,33.79
4433171,-0.03,-0.09,0.95,3.05,7.57,1.34,875.43,33.8
4433220,-0.03,-0.09,0.92,3.11,7.81,1.4,875.4,33.78
4433259,-0.03,-0.09,0.9,3.05,8.54,1.28,875.39,33.78
4433297,-0.03,-0.1,0.9,2.99,8.24,1.16,875.38,33.79
4433335,-0.02,-0.09,0.89,2.75,7.08,1.16,875.43,33.8
4433373,-0.04,-0.1,0.85,2.5,7.45,1.28,875.47,33.8
4433411,-0.03,-0.09,0.87,2.08,7.14,1.04,875.45,33.81
4433449,-0.02,-0.09,0.9,1.83,6.47,1.1,875.44,33.8
4433487,-0.02,-0.09,0.91,1.71,6.35,1.1,875.43,33.79
4433525,-0.04,-0.1,0.94,1.77,6.29,1.1,875.41,33.8
4433564,-0.02,-0.09,0.94,1.65,6.41,0.98,875.45,33.81
4433613,-0.03,-0.09,0.96,1.16,6.16,1.04,875.48,33.79
4433651,-0.03,-0.09,0.97,1.28,6.65,0.92,875.48,33.8
4433690,-0.02,-0.09,1.01,1.4,6.65,0.85,875.52,33.81
4433728,-0.02,-0.09,1.01,1.22,6.23,0.98,875.5,33.81
4433766,-0.02,-0.08,1.04,0.98,5.49,0.79,875.44,33.79
4433804,-0.03,-0.09,1.05,0.85,5.74,0.67,875.52,33.81
4433842,-0.02,-0.1,1.06,0.79,4.88,0.67,875.47,33.79
4433880,-0.03,-0.08,1.1,0.98,4.15,0.61,875.55,33.8
4433918,-0.03,-0.09,1.06,0.92,3.78,0.55,875.5,33.81
4433968,-0.02,-0.08,1.12,0.98,3.54,0.49,875.55,33.8
4434006,-0.02,-0.08,1.11,1.04,3.17,0.37,875.61,33.8
4434044,-0.04,-0.08,1.15,1.16,2.81,0.24,875.55,33.81
4434082,-0.03,-0.09,1.11,1.1,3.3,0.31,875.57,33.81
4434120,-0.02,-0.08,1.16,1.28,2.87,0.12,875.59,33.82
4434158,-0.01,-0.09,1.14,1.77,3.23,0.12,875.56,33.81
4434197,-0.01,-0.09,1.09,1.46,2.87,0.06,875.69,33.82
4434235,-0.03,-0.09,1.07,1.83,2.99,-0.12,875.67,33.81
4434273,-0.02,-0.09,1.05,1.71,2.26,-0.06,875.57,33.8
4434311,-0.04,-0.08,1.06,1.77,2.2,-0.12,875.61,33.8
4434361,-0.03,-0.08,1.05,1.89,1.89,-0.24,875.59,33.79
4434399,-0.03,-0.09,1.12,1.77,1.71,-0.24,875.62,33.79
4434437,-0.04,-0.1,1.08,1.83,2.62,-0.31,875.62,33.79
4434475,-0.03,-0.09,1.11,1.65,2.62,-0.18,875.67,33.8
4434513,-0.03,-0.08,1.08,1.89,3.05,-0.43,875.65,33.79
4434551,-0.04,-0.09,1.07,1.59,2.38,-0.37,875.59,33.78
4434590,-0.03,-0.09,1.05,1.71,3.11,-0.37,875.65,33.79
4434628,-0.03,-0.1,1.09,1.71,2.14,-0.37,875.69,33.79
4434666,-0.04,-0.09,1.08,1.53,2.38,-0.37,875.73,33.81
4434716,-0.04,-0.09,1.1,1.83,1.53,-0.31,875.71,33.78
4434754,-0.03,-0.1,1.09,1.59,2.2,-0.24,875.67,33.78
4434792,-0.03,-0.09,1.07,1.46,1.28,-0.31,875.66,33.8
4434830,-0.03,-0.09,1.05,1.77,1.46,-0.37,875.7,33.79
4434868,-0.02,-0.1,1.0,1.83,0.67,-0.43,875.69,33.79
4434906,-0.03,-0.08,0.98,1.71,0.67,-0.43,875.76,33.8
4434944,-0.04,-0.1,0.97,1.77,1.04,-0.43,875.72,33.79
4434982,-0.06,-0.1,0.93,1.59,1.1,-0.49,875.68,33.79
4435020,-0.04,-0.09,0.96,1.71,1.59,-0.55,875.77,33.8
4435059,-0.03,-0.09,0.95,1.71,1.95,-0.55,875.77,33.8
4435108,-0.03,-0.1,0.93,1.59,2.08,-0.61,875.77,33.8
4435146,-0.03,-0.1,0.92,1.59,2.14,-0.61,875.74,33.8
4435184,-0.04,-0.1,0.93,1.59,2.2,-0.79,875.77,33.8
4435223,-0.03,-0.1,0.91,1.46,2.62,-0.67,875.81,33.81
4435261,-0.04,-0.1,0.92,1.4,2.38,-0.79,875.78,33.82
4435299,-0.02,-0.1,0.92,1.28,2.93,-0.92,875.82,33.82
4435337,-0.02,-0.1,0.94,1.16,2.69,-0.85,875.74,33.81
4435375,-0.03,-0.09,0.96,1.16,2.75,-0.92,875.73,33.8
4435413,-0.04,-0.1,0.96,0.98,2.69,-0.92,875.83,33.82
4435463,-0.04,-0.09,1.0,1.22,3.05,-0.85,875.8,33.79
4435501,-0.03,-0.09,1.01,1.34,2.87,-1.04,875.8,33.81
4435539,-0.04,-0.09,1.0,1.22,3.3,-0.92,875.8,33.8
4435577,-0.03,-0.09,1.01,1.28,3.42,-1.16,875.84,33.8
4435615,-0.04,-0.09,1.0,1.53,3.48,-0.98,875.84,33.8
4435653,-0.04,-0.1,1.01,1.65,3.54,-1.04,875.8,33.79
4435691,-0.04,-0.09,1.01,1.65,3.78,-0.98,875.87,33.81
4435730,-0.05,-0.09,1.0,1.71,3.48,-0.92,875.88,33.8
4435768,-0.04,-0.09,0.99,1.53,3.85,-0.92,875.92,33.8
4435806,-0.04,-0.08,1.0,1.59,3.54,-0.79,875.88,33.79
4435882,-0.04,-0.09,0.98,1.77,3.85,-0.79,875.87,33.76
4435920,-0.05,-0.09,1.0,1.71,3.97,-0.92,875.87,33.76
4435958,-0.05,-0.09,0.99,1.65,4.09,-0.73,875.92,33.79
4436048,-0.04,-0.08,0.99,1.83,4.64,-0.73,875.89,33.73
4436086,-0.04,-0.08,0.96,1.83,5.19,-0.67,875.93,33.74
4436124,-0.05,-0.09,0.96,2.01,4.94,-0.67,875.94,33.76
4436162,-0.04,-0.09,0.98,2.08,4.46,-0.67,875.88,33.76
4436200,-0.05,-0.09,0.96,2.2,3.72,-0.37,875.89,33.76
4436238,-0.04,-0.09,0.97,2.01,3.36,-0.43,875.92,33.77
4436288,-0.05,-0.08,1.0,1.77,2.62,-0.18,875.9,33.76
4436326,-0.04,-0.1,1.0,1.53,2.32,-0.24,875.9,33.77
4436364,-0.05,-0.1,1.0,1.59,2.5,-0.24,875.9,33.76
4436402,-0.05,-0.08,0.98,1.83,2.56,-0.37,875.95,33.78
4436440,-0.03,-0.09,0.99,1.95,2.93,-0.12,875.95,33.77
4436478,-0.04,-0.1,0.94,1.83,2.99,-0.24,875.93,33.76
4436517,-0.05,-0.09,0.96,1.89,3.05,-0.37,875.95,33.77
4436555,-0.05,-0.09,1.01,2.01,3.36,-0.24,875.99,33.78
4436593,-0.03,-0.09,1.01,1.95,3.6,-0.31,875.94,33.76
4436631,-0.05,-0.09,1.02,1.89,3.6,-0.31,875.95,33.76
4436680,-0.05,-0.09,1.02,2.01,4.15,-0.18,875.96,33.76
4436719,-0.04,-0.08,1.03,2.01,4.15,-0.24,875.95,33.76
4436757,-0.04,-0.08,1.02,2.14,4.21,-0.24,876.04,33.77
4436795,-0.04,-0.09,1.0,1.95,3.85,-0.31,876.02,33.78
4436833,-0.05,-0.09,0.99,2.2,3.6,-0.18,875.97,33.78
4436871,-0.04,-0.09,0.98,2.32,3.78,-0.12,875.98,33.77
4436909,-0.04,-0.09,0.98,2.32,4.15,0.0,876.0,33.77
4436947,-0.05,-0.09,0.98,2.38,4.21,0.0,876.01,33.77
4436985,-0.04,-0.09,0.97,2.38,4.27,0.06,876.02,33.76
4437035,-0.04,-0.08,0.97,2.08,3.78,0.0,876.03,33.76
4437073,-0.04,-0.09,0.99,2.2,3.78,0.06,876.08,33.77
4437111,-0.05,-0.09,0.99,2.08,3.6,0.0,876.07,33.77
4437149,-0.05,-0.08,1.01,2.08,3.78,-0.06,876.07,33.76
4437187,-0.06,-0.09,1.0,1.95,3.78,-0.12,876.04,33.75
4437225,-0.05,-0.09,1.03,2.26,3.6,0.0,876.06,33.74
4437263,-0.05,-0.09,0.99,2.2,3.3,0.0,876.08,33.77
4437301,-0.04,-0.08,1.04,2.44,3.66,0.12,876.11,33.76
4437339,-0.03,-0.1,1.01,2.69,3.6,0.12,876.11,33.77
4437377,-0.06,-0.09,0.99,2.62,3.11,0.06,876.04,33.75
4437427,-0.06,-0.08,0.97,2.62,3.85,0.12,876.07,33.76
4437465,-0.07,-0.08,0.98,2.5,3.3,0.12,876.04,33.76
4437503,-0.06,-0.09,0.99,2.75,3.72,0.06,876.1,33.77
4437542,-0.06,-0.09,0.97,2.62,3.78,0.24,876.09,33.77
4437580,-0.07,-0.08,0.98,2.5,3.66,0.12,876.09,33.78
4437618,-0.07,-0.08,0.98,2.5,4.64,0.43,876.11,33.78
4437656,-0.06,-0.08,0.98,2.56,4.58,0.55,876.09,33.78
4437694,-0.08,-0.09,0.97,2.38,4.58,0.73,876.07,33.77
4437732,-0.07,-0.08,0.95,2.62,4.39,0.85,876.15,33.79
4437770,-0.07,-0.08,0.97,2.56,4.88,0.79,876.08,33.78
4437820,-0.06,-0.08,0.98,2.56,4.7,1.04,876.14,33.78
4437858,-0.05,-0.09,0.98,2.62,4.58,1.16,876.07,33.77
4437896,-0.07,-0.09,0.99,2.5,4.58,1.22,876.09,33.78
4437934,-0.06,-0.08,1.0,2.26,5.37,1.46,876.19,33.8
4437973,-0.07,-0.08,0.99,2.38,4.27,1.46,876.17,33.8
4438011,-0.05,-0.08,1.0,2.14,4.27,1.59,876.12,33.8
4438049,-0.04,-0.09,0.97,2.14,4.39,1.65,876.15,33.8
4438087,-0.06,-0.09,0.99,1.95,4.15,1.59,876.12,33.81
4438125,-0.06,-0.08,0.98,1.95,3.97,1.77,876.18,33.79
4438175,-0.06,-0.09,0.99,1.95,4.03,1.83,876.19,33.8
4438213,-0.06,-0.09,1.0,1.53,3.78,1.65,876.13,33.8
4438251,-0.06,-0.08,1.0,1.59,3.97,1.77,876.2,33.8
4438289,-0.05,-0.08,1.01,1.46,3.78,1.77,876.22,33.81
4438327,-0.05,-0.08,1.04,1.4,3.66,2.01,876.17,33.81
4438365,-0.05,-0.09,1.02,1.4,4.21,2.2,876.24,33.81
4438403,-0.06,-0.08,1.02,1.34,3.66,2.14,876.16,33.81
4438441,-0.04,-0.08,1.02,1.4,3.91,2.14,876.23,33.81
4438479,-0.03,-0.09,1.0,1.4,3.66,2.08,876.19,33.81
4438518,-0.05,-0.08,1.02,1.4,3.23,2.08,876.25,33.81
4438567,-0.05,-0.09,1.0,1.22,3.17,2.14,876.22,33.81
4438605,-0.04,-0.08,1.03,1.1,2.87,2.2,876.29,33.81
4438643,-0.04,-0.08,1.0,1.16,3.11,2.08,876.23,33.81
4438682,-0.04,-0.08,0.99,0.98,3.42,2.08,876.26,33.81
4438720,-0.03,-0.09,0.99,1.22,3.42,1.89,876.33,33.82
4438758,-0.04,-0.09,0.98,1.04,3.48,1.77,876.32,33.82
4438796,-0.03,-0.08,0.99,1.16,3.85,1.77,876.27,33.81
4438834,-0.04,-0.08,0.98,1.28,4.52,1.95,876.32,33.82
4438872,-0.05,-0.09,0.98,1.53,4.09,1.71,876.27,33.81
4438910,-0.04,-0.09,0.97,1.28,4.64,1.65,876.36,33.81
4438986,-0.02,-0.09,0.95,1.4,5.13,1.77,876.34,33.78
4439024,-0.02,-0.09,0.94,1.22,5.43,1.59,876.31,33.79
4439062,-0.04,-0.08,0.96,1.1,5.49,1.83,876.33,33.8
4439151,-0.04,-0.08,0.99,1.1,5.86,1.59,876.19,33.75
4439190,-0.04,-0.09,0.99,1.22,5.92,1.53,876.2,33.78
4439228,-0.01,-0.09,1.0,1.1,5.68,1.59,876.21,33.79
4439266,-0.03,-0.08,1.02,1.1,5.74,1.53,876.25,33.8
4439304,-0.03,-0.09,1.03,1.28,5.25,1.53,876.23,33.8
4439342,-0.03,-0.08,1.01,1.1,5.07,1.46,876.21,33.8
4439392,-0.04,-0.09,0.98,1.28,5.13,1.28,876.18,33.77
4439430,-0.03,-0.09,0.99,1.04,4.27,1.16,876.28,33.79
4439468,-0.02,-0.1,0.99,0.98,4.27,1.16,876.21,33.79
4439506,-0.03,-0.09,0.98,1.1,4.33,1.04,876.31,33.81
4439544,-0.04,-0.08,1.0,0.85,4.03,1.16,876.23,33.81
4439582,-0.03,-0.09,1.02,0.73,3.72,0.98,876.26,33.8
4439620,-0.03,-0.09,1.05,0.67,3.66,0.85,876.25,33.79
4439658,-0.04,-0.09,1.06,1.16,3.78,0.73,876.25,33.79
4439697,-0.03,-0.08,1.06,1.22,3.54,0.55,876.26,33.8
4439735,-0.01,-0.08,1.06,1.53,2.93,0.61,876.27,33.8
4439784,-0.04,-0.09,1.03,1.83,2.81,0.49,876.3,33.81
4439823,-0.03,-0.09,1.0,1.83,3.11,0.49,876.29,33.79
4439861,-0.03,-0.08,1.0,1.77,3.23,0.37,876.36,33.82
4439899,-0.03,-0.08,1.0,2.08,2.93,0.18,876.32,33.81
4439937,-0.02,-0.09,0.97,1.95,2.56,0.24,876.26,33.81
4439975,-0.03,-0.08,0.98,2.2,2.93,0.37,876.3,33.82
4440013,-0.04,-0.08,0.96,2.38,2.81,0.24,876.32,33.81
4440051,-0.05,-0.08,0.94,2.62,2.62,0.24,876.31,33.81
4440089,-0.02,-0.08,0.94,2.69,2.62,0.18,876.28,33.82
4440127,-0.04,-0.09,0.9,2.75,2.5,0.0,876.27,33.82
4440177,-0.03,-0.09,0.92,2.62,2.38,0.12,876.34,33.81
4440215,-0.03,-0.09,0.9,2.81,2.08,0.12,876.31,33.82
4440253,-0.04,-0.08,0.9,2.81,1.59,0.06,876.3,33.83
4440291,-0.04,-0.09,0.87,2.5,1.4,0.18,876.27,33.83
4440330,-0.03,-0.09,0.88,2.38,0.92,-0.06,876.3,33.83
4440368,-0.03,-0.09,0.85,1.95,1.46,-0.12,876.33,33.84
4440406,-0.03,-0.08,0.88,1.46,1.04,0.0,876.28,33.83
4440444,-0.04,-0.08,0.92,1.1,1.53,-0.12,876.33,33.84
4440482,-0.04,-0.09,0.93,0.67,1.53,-0.12,876.3,33.84
4440532,-0.04,-0.08,0.97,0.43,2.01,-0.31,876.32,33.83
4440570,-0.04,-0.08,0.95,0.31,2.08,-0.18,876.33,33.83
4440608,-0.04,-0.08,0.96,0.24,1.71,-0.24,876.37,33.84
4440646,-0.04,-0.08,0.98,0.18,2.01,-0.18,876.34,33.84
4440684,-0.04,-0.08,1.0,0.06,1.95,-0.12,876.39,33.84
4440722,-0.04,-0.08,1.03,0.31,2.32,-0.18,876.36,33.83
4440760,-0.04,-0.08,1.05,0.31,2.08,-0.18,876.4,33.83
4440799,-0.04,-0.08,1.05,0.37,2.44,-0.18,876.4,33.83
4440837,-0.03,-0.08,1.06,0.43,2.93,-0.18,876.41,33.83
4440875,-0.04,-0.08,1.03,0.67,2.99,-0.31,876.44,33.83
4440925,-0.06,-0.07,1.05,0.55,3.42,-0.18,876.44,33.82
4440963,-0.03,-0.08,1.06,0.61,3.85,-0.37,876.44,33.84
4441001,-0.04,-0.07,1.08,0.61,3.11,-0.24,876.35,33.83
4441039,-0.04,-0.07,1.11,0.61,3.78,-0.12,876.42,33.83
4441077,-0.04,-0.08,1.12,0.79,4.09,-0.18,876.4,33.83
4441115,-0.04,-0.07,1.14,1.04,4.39,-0.37,876.44,33.84
4441153,-0.05,-0.07,1.11,0.98,4.39,-0.24,876.41,33.84
4441191,-0.05,-0.07,1.13,1.22,4.64,-0.31,876.42,33.82
4441230,-0.04,-0.07,1.11,1.59,5.37,-0.37,876.47,33.85
4441279,-0.04,-0.07,1.11,1.89,5.37,-0.31,876.43,33.82
4441317,-0.05,-0.07,1.1,2.26,5.98,-0.24,876.43,33.82
4441356,-0.04,-0.07,1.1,2.44,6.16,-0.24,876.46,33.83
4441394,-0.04,-0.07,1.08,2.44,6.59,-0.31,876.41,33.83
4441432,-0.05,-0.07,1.07,2.56,5.86,-0.18,876.44,33.83
4441470,-0.05,-0.07,1.06,2.62,5.68,-0.18,876.45,33.85
4441508,-0.04,-0.08,1.04,2.81,6.29,-0.31,876.49,33.83
4441546,-0.04,-0.07,1.05,2.69,5.98,-0.18,876.47,33.84
4441584,-0.04,-0.08,1.01,2.87,5.68,-0.12,876.5,33.84
4441623,-0.05,-0.08,1.0,2.81,5.25,-0.18,876.47,33.86
4441672,-0.05,-0.08,0.98,2.44,5.0,-0.06,876.48,33.84
4441710,-0.04,-0.07,1.0,2.32,4.15,-0.06,876.45,33.84
4441749,-0.05,-0.08,1.01,2.26,4.21,-0.24,876.47,33.84
4441787,-0.05,-0.07,1.03,2.08,3.6,-0.18,876.45,33.85
4441825,-0.04,-0.07,1.03,2.32,3.72,-0.18,876.43,33.85
4441863,-0.06,-0.08,1.01,2.44,3.48,0.06,876.45,33.86
4441901,-0.07,-0.07,1.02,2.69,3.23,0.06,876.41,33.84
4441939,-0.06,-0.08,1.01,2.62,2.87,0.12,876.45,33.85
4441977,-0.06,-0.06,1.03,2.75,2.5,0.18,876.45,33.85
4442053,-0.06,-0.07,1.0,2.75,2.2,0.49,876.48,33.84
4442091,-0.07,-0.07,1.0,2.69,2.14,0.49,876.44,33.84
4442129,-0.07,-0.07,1.01,2.69,2.08,0.85,876.43,33.84
4442218,-0.06,-0.07,1.0,2.81,1.89,1.16,876.5,33.82
4442257,-0.07,-0.07,0.99,2.69,1.89,1.34,876.51,33.84
4442295,-0.06,-0.07,0.99,2.75,2.2,1.46,876.55,33.84
4442333,-0.06,-0.08,0.98,2.62,2.44,1.77,876.52,33.84
4442371,-0.07,-0.07,0.97,2.62,2.62,1.89,876.48,33.84
4442409,-0.08,-0.07,0.95,2.62,2.81,2.08,876.51,33.84
4442447,-0.06,-0.07,0.94,2.5,2.81,2.2,876.5,33.84
4442497,-0.05,-0.07,0.98,2.5,2.87,2.2,876.51,33.84
4442535,-0.05,-0.08,0.96,2.26,2.69,2.5,876.48,33.84
4442573,-0.05,-0.07,0.99,2.26,2.44,2.62,876.61,33.86
4442611,-0.06,-0.07,1.01,2.26,2.5,2.69,876.54,33.86
4442649,-0.06,-0.08,1.0,2.44,2.08,2.81,876.55,33.86
4442688,-0.05,-0.07,1.01,2.56,2.26,2.99,876.59,33.85
4442726,-0.04,-0.07,0.99,2.69,2.08,3.17,876.6,33.86
4442764,-0.04,-0.07,0.98,2.56,1.59,3.17,876.58,33.87
4442802,-0.04,-0.07,0.98,2.75,1.53,3.17,876.54,33.86
4442852,-0.05,-0.08,0.95,2.56,2.08,3.3,876.56,33.85
4442890,-0.06,-0.07,0.96,2.75,2.01,3.36,876.54,33.87
4442928,-0.04,-0.07,0.98,2.75,2.08,3.23,876.63,33.87
4442966,-0.04,-0.08,0.96,2.69,2.32,3.3,876.54,33.86
4443004,-0.04,-0.07,0.97,2.81,2.38,3.11,876.65,33.88
4443042,-0.05,-0.08,0.96,2.69,2.5,3.36,876.58,33.87
4443080,-0.03,-0.08,0.96,2.75,2.26,3.23,876.59,33.87
4443118,-0.04,-0.08,0.94,2.69,2.14,3.42,876.55,33.88
4443157,-0.04,-0.08,0.94,2.69,2.08,3.36,876.57,33.86
4443195,-0.04,-0.08,0.94,2.69,1.89,3.42,876.66,33.88
4443244,-0.03,-0.07,0.94,2.69,2.01,3.3,876.71,33.87
4443283,-0.03,-0.07,0.92,2.62,1.77,3.48,876.75,33.89
4443321,-0.04,-0.07,0.93,2.5,1.89,3.36,876.78,33.87
4443359,-0.03,-0.08,0.94,2.38,1.89,3.42,876.82,33.88
4443397,-0.02,-0.08,0.94,2.38,1.59,3.48,876.85,33.88
4443435,-0.03,-0.07,0.94,2.44,1.71,3.42,876.81,33.89
4443473,-0.03,-0.08,0.94,2.26,1.53,3.3,876.84,33.89
4443511,-0.02,-0.07,0.96,2.26,1.83,3.36,876.85,33.88
4443549,-0.01,-0.07,0.96,2.32,1.95,3.11,876.84,33.89
4443588,-0.03,-0.07,0.97,2.2,2.08,3.17,876.79,33.88
4443637,-0.03,-0.07,1.01,2.08,2.38,3.05,876.83,33.88
4443675,-0.03,-0.08,1.01,2.26,2.44,2.93,876.78,33.88
4443714,-0.03,-0.07,1.01,2.2,2.69,2.81,876.81,33.88
4443752,-0.02,-0.07,1.02,2.26,2.81,2.99,876.86,33.89
4443790,-0.03,-0.07,1.0,2.26,2.93,2.75,876.85,33.88
4443828,-0.03,-0.07,1.02,2.26,2.99,2.69,876.87,33.89
4443866,-0.04,-0.08,1.02,2.38,2.75,2.56,876.86,33.89
4443904,-0.03,-0.08,1.02,2.56,3.11,2.62,876.84,33.89
4443942,-0.03,-0.07,1.02,2.44,3.97,2.56,876.83,33.89
4443992,-0.02,-0.07,1.01,2.62,3.85,2.44,876.88,33.88
4444030,-0.02,-0.07,1.0,2.56,3.78,2.5,876.9,33.88
4444069,-0.03,-0.08,0.99,2.56,4.21,2.38,876.87,33.86
4444107,-0.02,-0.07,1.0,2.44,4.15,2.32,876.94,33.88
4444145,-0.02,-0.07,1.01,2.5,4.27,2.32,876.92,33.9
4444183,-0.03,-0.07,0.99,2.44,4.15,2.38,876.9,33.89
4444221,-0.03,-0.07,1.0,2.44,4.09,2.2,876.92,33.89
4444259,-0.03,-0.07,1.0,2.32,3.42,2.26,876.95,33.89
4444297,-0.03,-0.07,1.01,2.38,2.87,2.14,876.9,33.88
4444335,-0.03,-0.07,0.98,2.38,2.99,2.38,876.9,33.88
4444385,-0.03,-0.07,0.99,2.56,2.75,2.32,876.89,33.87
4444423,-0.03,-0.08,0.95,2.62,2.32,2.26,876.91,33.89
4444462,-0.03,-0.08,0.95,2.62,2.32,2.32,876.88,33.87
4444500,-0.03,-0.08,0.93,2.69,2.38,2.44,876.96,33.89
4444538,-0.03,-0.08,0.94,2.56,2.44,2.32,876.95,33.89
4444576,-0.03,-0.09,0.89,2.5,2.75,2.14,876.95,33.89
4444614,-0.03,-0.08,0.91,2.69,2.08,2.2,876.98,33.9
4444652,-0.03,-0.08,0.88,2.5,2.81,2.01,876.92,33.9
4444690,-0.03,-0.09,0.85,2.01,2.99,2.01,876.96,33.89
4444728,-0.04,-0.07,0.92,2.38,2.44,2.08,876.91,33.88
4444778,-0.03,-0.09,0.86,1.83,3.42,1.89,876.96,33.87
4444816,-0.04,-0.07,0.94,1.46,3.85,1.89,876.97,33.86
4444854,-0.04,-0.08,0.95,1.4,3.97,2.26,876.93,33.86
4444893,-0.03,-0.08,0.97,1.16,3.91,2.14,876.95,33.86
4444931,-0.02,-0.07,1.0,0.92,4.27,2.08,876.96,33.87
4444969,-0.04,-0.07,0.98,0.98,3.85,2.32,876.98,33.85
4445007,-0.03,-0.07,0.99,1.16,3.23,2.32,877.0,33.84
4445045,-0.04,-0.07,1.0,0.85,3.42,2.32,877.01,33.84
4445083,-0.03,-0.08,1.02,1.1,3.48,2.56,876.94,33.83
4445159,-0.02,-0.07,1.03,1.46,3.48,2.38,876.96,33.8
4445197,-0.02,-0.07,1.05,1.77,4.21,2.44,877.01,33.8
4445235,-0.03,-0.08,1.01,2.26,4.64,2.38,877.0,33.81
4445325,-0.03,-0.07,1.04,2.62,4.15,2.5,876.95,33.77
4445363,-0.02,-0.07,1.04,2.5,4.03,2.44,877.01,33.79
4445401,-0.02,-0.07,1.07,2.69,3.66,2.2,876.99,33.79
4445439,-0.02,-0.08,1.04,2.44,3.85,2.2,877.02,33.8
4445477,-0.01,-0.07,1.09,2.56,2.62,2.26,876.95,33.78
4445516,-0.03,-0.07,1.03,2.69,3.85,2.2,877.03,33.81
4445554,-0.02,-0.07,1.04,2.62,3.97,1.95,877.05,33.81
4445604,-0.01,-0.08,1.01,2.87,4.58,1.71,877.01,33.8
4445642,-0.04,-0.08,0.95,2.99,4.58,1.71,877.05,33.8
4445680,-0.01,-0.08,0.93,2.93,5.0,1.65,877.09,33.8
4445718,-0.03,-0.08,0.86,2.75,4.94,1.65,877.04,33.8
4445756,-0.04,-0.07,0.86,2.69,3.66,1.83,877.07,33.8
4445794,-0.04,-0.09,0.85,2.5,3.54,1.83,877.09,33.8
4445832,-0.03,-0.09,0.89,2.32,2.81,1.65,877.07,33.81
4445870,-0.01,-0.08,0.9,2.01,3.6,1.89,876.99,33.81
4445909,-0.03,-0.07,0.92,1.65,2.32,1.59,877.03,33.81
4445947,-0.02,-0.07,1.01,1.53,1.71,1.95,877.08,33.81
4445996,-0.04,-0.08,1.03,1.1,-0.92,2.14,877.1,33.81
4446035,-0.04,-0.08,1.04,1.1,0.61,2.08,877.08,33.81
4446073,-0.01,-0.09,0.99,0.79,0.61,1.95,877.13,33.83
4446111,-0.01,-0.06,1.06,0.85,-0.18,2.2,877.07,33.82
4446149,-0.03,-0.08,0.97,0.24,0.12,2.14,877.13,33.83
4446187,-0.05,-0.07,1.04,0.61,0.0,1.95,877.1,33.82
4446225,-0.04,-0.08,1.02,0.79,1.83,1.89,877.12,33.82
4446263,-0.01,-0.07,1.09,0.79,0.0,1.83,877.05,33.82
4446301,-0.04,-0.07,1.08,0.98,0.73,1.89,877.12,33.82
4446351,-0.02,-0.08,1.09,1.34,1.04,2.01,877.13,33.8
4446389,-0.02,-0.08,1.1,1.34,0.85,1.83,877.07,33.81
4446427,-0.05,-0.07,1.1,1.4,-0.06,1.95,877.13,33.81
4446465,-0.04,-0.07,1.08,1.77,1.71,1.89,877.12,33.82
4446504,-0.01,-0.07,1.1,1.59,2.75,1.83,877.14,33.82
4446542,-0.02,-0.06,1.12,1.59,2.62,1.71,877.12,33.82
4446580,-0.05,-0.07,1.13,1.71,1.59,2.01,877.1,33.84
4446618,-0.03,-0.07,1.24,1.71,2.87,1.95,877.09,33.82
4446656,-0.03,-0.08,1.2,2.32,3.17,1.95,877.1,33.82
4446694,-0.0,-0.07,1.13,2.2,2.01,1.95,877.18,33.82
4446744,-0.01,-0.09,0.96,2.56,4.58,2.08,877.12,33.81
4446782,-0.02,-0.09,0.94,2.75,4.88,1.59,877.16,33.82
4446820,-0.02,-0.08,0.88,2.56,3.91,1.83,877.11,33.82
4446858,-0.03,-0.07,0.92,1.59,1.71,1.89,877.12,33.82
4446896,-0.01,-0.08,0.97,1.53,0.67,1.83,877.09,33.82
4446934,-0.04,-0.07,1.06,0.98,-1.16,1.77,877.07,33.8
4446973,-0.01,-0.09,1.18,1.04,-0.67,1.83,877.07,33.81
4447011,-0.02,-0.09,1.08,1.1,-0.92,1.89,877.09,33.81
4447049,-0.01,-0.05,1.17,1.22,-0.61,1.77,877.14,33.82
4447087,-0.02,-0.08,1.08,1.46,-0.55,1.95,877.1,33.8
4447137,-0.05,-0.06,1.18,1.53,-0.31,1.65,877.06,33.79
4447175,-0.04,-0.09,1.1,1.71,1.71,1.71,877.1,33.8
4447213,-0.03,-0.05,1.26,1.71,0.31,1.59,877.1,33.79
4447251,-0.02,-0.07,1.25,1.53,2.08,1.53,877.12,33.8
4447289,-0.04,-0.09,1.25,1.65,3.54,1.59,877.04,33.79
4447327,-0.04,-0.07,1.36,2.26,3.54,1.53,877.07,33.81
4447365,-0.03,-0.08,1.22,2.5,6.1,1.53,877.12,33.8
4447403,-0.05,-0.06,1.26,2.56,6.35,1.53,877.16,33.8
4447442,-0.03,-0.08,1.17,2.99,6.9,1.46,877.07,33.8
4447491,-0.05,-0.08,1.17,2.93,6.96,1.4,877.06,33.79
4447529,-0.03,-0.09,1.1,2.93,8.85,1.59,877.06,33.78
4447568,-0.03,-0.08,1.18,3.11,7.87,1.59,877.12,33.8
4447606,-0.03,-0.08,1.18,2.81,7.32,2.01,877.06,33.8
4447644,-0.03,-0.09,1.18,2.69,7.14,2.08,877.08,33.79
4447682,-0.03,-0.09,1.18,2.44,6.35,2.08,877.12,33.81
4447720,-0.03,-0.1,1.12,1.95,5.86,2.38,877.09,33.8
4447758,-0.02,-0.08,1.13,1.46,4.39,2.44,877.08,33.79
4447796,-0.02,-0.08,1.1,1.46,5.49,2.26,877.04,33.8
4447834,-0.01,-0.09,1.08,1.04,6.65,2.38,877.08,33.79
4447884,-0.02,-0.11,1.01,1.04,7.75,2.26,877.1,33.78
4447922,-0.02,-0.09,0.99,0.98,7.75,2.01,877.15,33.79
4447960,-0.01,-0.08,1.05,1.1,8.97,2.14,877.11,33.79
4447999,0.0,-0.11,0.97,0.43,8.48,1.89,877.09,33.79
4448037,-0.01,-0.08,1.09,0.37,7.75,1.89,877.07,33.78
4448075,-0.01,-0.11,1.02,0.61,9.46,1.89,877.07,33.79
4448113,-0.03,-0.09,1.03,0.06,8.06,2.01,877.09,33.79
4448151,-0.01,-0.08,1.07,0.18,8.3,1.71,877.07,33.78
4448189,-0.03,-0.11,1.0,-0.12,8.61,1.59,877.08,33.8
4448227,-0.01,-0.09,1.12,-0.12,6.47,1.71,876.99,33.78
4448303,-0.01,-0.08,0.99,-0.61,6.65,1.59,877.01,33.75
4448341,-0.02,-0.08,1.08,-0.43,6.41,1.65,877.04,33.76
4448379,-0.03,-0.11,0.98,-0.31,6.71,1.71,877.05,33.77
4448469,-0.01,-0.08,1.0,-0.24,6.41,1.34,877.03,33.74
4448507,0.01,-0.1,1.01,0.12,6.23,1.53,876.98,33.74
4448545,-0.02,-0.1,1.0,0.18,5.74,1.34,877.01,33.75
4448583,-0.03,-0.1,0.97,0.12,5.19,1.46,877.01,33.77
4448621,-0.01,-0.09,1.0,0.0,5.25,1.28,876.99,33.75
4448659,0.0,-0.1,0.95,0.06,5.13,1.34,876.95,33.76
4448709,0.0,-0.09,1.0,0.24,3.85,1.53,876.93,33.75
4448747,0.03,-0.09,0.96,0.31,3.54,1.04,876.95,33.76
4448785,0.01,-0.1,1.02,0.61,3.11,0.98,876.92,33.76
4448823,-0.01,-0.09,1.0,0.85,2.62,0.92,876.94,33.76
4448861,0.0,-0.09,1.03,0.73,2.93,0.49,876.93,33.76
4448899,-0.02,-0.09,1.01,1.1,3.42,0.24,876.93,33.76
4448937,-0.02,-0.08,1.04,1.16,2.81,0.24,876.9,33.76
4448975,-0.03,-0.1,1.02,1.1,4.33,0.06,876.88,33.77
4449013,-0.01,-0.09,1.05,0.67,4.46,0.06,876.89,33.77
4449051,-0.02,-0.08,1.1,0.85,4.7,-0.12,876.92,33.77
4449101,-0.03,-0.1,1.07,0.85,5.07,0.0,876.89,33.76
4449139,-0.02,-0.08,1.12,1.04,5.19,-0.24,876.89,33.76
4449177,-0.03,-0.08,1.09,1.22,5.25,-0.12,876.91,33.75
4449215,-0.02,-0.08,1.1,1.59,5.43,-0.31,876.84,33.76
4449253,-0.02,-0.09,1.1,1.65,6.16,-0.37,876.88,33.76
4449291,-0.04,-0.08,1.13,1.89,5.74,-0.43,876.83,33.76
4449329,-0.06,-0.09,1.08,2.32,5.55,-0.37,876.77,33.76
4449367,-0.05,-0.08,1.08,2.2,5.43,-0.37,876.79,33.76
4449406,-0.04,-0.09,1.04,2.38,5.68,-0.49,876.77,33.76
4449455,-0.03,-0.08,1.01,2.44,3.91,-0.18,876.81,33.75
4449493,-0.04,-0.09,0.97,2.38,2.87,-0.31,876.76,33.76
4449531,-0.05,-0.09,1.0,2.5,1.77,-0.12,876.7,33.73
4449570,-0.03,-0.09,0.99,1.95,0.92,0.06,876.69,33.75
4449608,-0.06,-0.08,0.98,2.08,-0.31,0.06,876.63,33.74
4449646,-0.06,-0.09,0.92,1.77,-0.85,-0.12,876.66,33.75
4449684,-0.05,-0.08,0.91,1.4,-0.67,-0.06,876.64,33.76
4449722,-0.05,-0.08,0.89,0.92,-0.85,-0.12,876.59,33.74
4449760,-0.06,-0.09,0.88,0.85,-1.28,-0.06,876.63,33.77
4449798,-0.06,-0.07,0.92,0.61,-0.06,0.0,876.6,33.76
4449848,-0.06,-0.08,0.94,0.92,1.4,0.12,876.66,33.73
4449886,-0.04,-0.08,1.02,1.1,1.1,0.12,876.62,33.75
4449924,-0.08,-0.08,1.0,1.16,1.77,0.31,876.65,33.74
4449962,-0.05,-0.09,1.03,1.28,1.83,0.49,876.67,33.74
4450000,-0.06,-0.08,1.04,1.22,1.89,0.43,876.65,33.76
4450038,-0.05,-0.08,1.01,1.4,2.01,0.37,876.67,33.74
4450076,-0.06,-0.08,1.0,1.34,1.65,0.67,876.67,33.76
4450114,-0.04,-0.08,1.02,1.28,2.38,0.67,876.61,33.76
4450152,-0.04,-0.09,1.03,1.89,2.14,0.79,876.67,33.77
4450202,-0.06,-0.09,1.01,2.32,1.53,1.04,876.7,33.77
4450240,-0.05,-0.08,1.01,2.62,1.89,0.92,876.65,33.77
4450278,-0.05,-0.08,0.96,2.93,2.26,1.04,876.66,33.77
4450316,-0.05,-0.08,0.93,3.11,1.95,1.16,876.66,33.77
4450354,-0.05,-0.07,0.92,3.42,1.71,1.04,876.69,33.75
4450392,-0.04,-0.08,0.9,3.48,1.95,1.22,876.59,33.74
4450430,-0.04,-0.09,0.89,3.54,1.77,1.04,876.66,33.75
4450468,-0.06,-0.08,0.9,3.66,1.95,1.22,876.63,33.76
4450506,-0.05,-0.08,0.88,3.48,2.01,1.16,876.65,33.74
4450545,-0.04,-0.09,0.89,3.42,1.77,1.28,876.6,33.76
4450594,-0.04,-0.08,0.88,3.48,2.01,1.22,876.58,33.72
4450632,-0.03,-0.08,0.88,3.36,1.71,1.4,876.57,33.74
4450670,-0.06,-0.08,0.85,3.3,2.01,1.53,876.67,33.74
4450708,-0.05,-0.08,0.87,3.05,1.4,1.59,876.62,33.74
4450747,-0.05,-0.08,0.86,3.17,2.01,1.46,876.59,33.75
4450785,-0.03,-0.09,0.86,2.93,1.95,1.71,876.55,33.73
4450823,-0.05,-0.08,0.88,2.81,1.83,1.59,876.58,33.74
4450861,-0.04,-0.08,0.88,2.87,1.46,1.77,876.61,33.73
4450899,-0.05,-0.08,0.89,2.69,1.22,1.65,876.57,33.74
4450937,-0.05,-0.09,0.86,2.75,2.08,1.77,876.57,33.73
4450987,-0.05,-0.07,0.9,2.69,0.98,1.95,876.51,33.72
4451025,-0.04,-0.09,0.89,2.69,2.26,1.83,876.58,33.74
4451063,-0.03,-0.09,0.92,2.38,1.4,1.95,876.55,33.74
4451101,-0.04,-0.08,0.97,2.62,2.14,2.2,876.56,33.74
4451139,-0.05,-0.09,0.91,2.62,2.08,2.2,876.58,33.72
4451177,-0.04,-0.07,0.95,2.75,2.01,2.14,876.56,33.74
4451215,-0.03,-0.08,0.89,2.75,2.56,2.01,876.49,33.73
4451253,-0.03,-0.09,0.88,2.56,1.71,2.01,876.54,33.72
4451291,-0.03,-0.08,0.89,2.62,2.2,2.14,876.49,33.71
4451367,-0.03,-0.08,0.89,2.5,2.14,2.08,876.49,33.68
4451405,-0.04,-0.09,0.9,2.56,1.71,2.08,876.51,33.7
4451443,-0.03,-0.09,0.91,2.56,2.44,2.01,876.56,33.71
4451533,-0.03,-0.08,0.94,2.56,2.38,2.14,876.44,33.67
4451571,-0.03,-0.09,0.95,2.75,2.14,1.83,876.57,33.69
4451609,-0.03,-0.09,0.95,2.56,2.56,1.83,876.46,33.69
4451647,-0.04,-0.09,1.0,2.75,2.75,2.08,876.45,33.69
4451685,-0.04,-0.09,0.98,2.81,3.11,1.89,876.52,33.7
4451723,-0.05,-0.08,0.98,2.75,2.93,1.65,876.48,33.71
4451761,-0.04,-0.08,0.98,2.81,3.36,1.77,876.52,33.69
4451811,-0.03,-0.08,1.0,2.87,2.5,1.77,876.46,33.68
4451849,-0.05,-0.08,1.0,2.75,3.23,1.95,876.44,33.7
4451887,-0.04,-0.08,1.01,2.81,3.11,2.08,876.45,33.7
4451925,-0.04,-0.09,0.98,2.87,2.99,1.89,876.44,33.69
4451963,-0.04,-0.08,0.97,2.87,2.81,1.95,876.43,33.69
4452001,-0.05,-0.08,0.94,2.75,3.36,2.01,876.41,33.7
4452040,-0.04,-0.09,0.92,2.32,3.17,2.08,876.47,33.71
4452078,-0.04,-0.09,0.94,1.95,4.03,2.01,876.41,33.71
4452116,-0.03,-0.09,0.94,1.65,3.48,2.26,876.41,33.71
4452154,-0.03,-0.08,0.97,1.46,3.05,2.2,876.48,33.71
4452204,-0.03,-0.09,0.95,1.22,3.05,2.32,876.46,33.7
4452242,-0.02,-0.08,1.0,1.16,2.56,2.26,876.47,33.71
4452280,-0.04,-0.08,0.97,0.85,2.75,2.14,876.44,33.7
4452318,-0.04,-0.08,0.99,0.79,1.46,2.5,876.43,33.71
4452356,-0.03,-0.09,0.97,0.92,2.87,2.38,876.45,33.71
4452394,-0.04,-0.08,0.95,0.67,1.83,2.26,876.43,33.71
4452432,-0.05,-0.07,1.01,0.73,2.56,2.44,876.45,33.71
4452470,-0.02,-0.09,0.97,0.73,4.09,2.5,876.44,33.69
4452508,-0.03,-0.07,1.02,0.85,4.27,2.44,876.45,33.7
4452558,-0.04,-0.09,1.01,1.59,5.31,2.38,876.46,33.69
4452596,-0.04,-0.08,1.06,1.71,5.25,2.62,876.42,33.69
4452634,-0.01,-0.08,1.04,1.71,5.98,2.56,876.43,33.69
4452672,-0.03,-0.08,1.03,2.14,5.37,2.44,876.49,33.71
4452710,-0.02,-0.09,1.04,2.2,5.74,2.5,876.47,33.69
4452748,-0.01,-0.09,1.01,2.38,5.37,2.44,876.41,33.7
4452786,-0.03,-0.08,1.03,2.5,5.92,2.26,876.4,33.71
4452824,-0.03,-0.1,0.96,2.56,5.55,2.56,876.34,33.69
4452862,-0.03,-0.08,1.0,2.62,5.43,2.26,876.39,33.69
4452900,-0.02,-0.09,0.94,2.26,6.53,2.08,876.39,33.7
4452950,-0.01,-0.07,1.02,2.32,5.25,2.14,876.37,33.68
4452988,-0.01,-0.09,0.98,2.26,5.8,2.01,876.32,33.7
4453026,-0.01,-0.08,1.05,2.08,5.55,2.01,876.4,33.69
4453064,-0.01,-0.09,1.0,2.2,6.59,2.01,876.37,33.7
4453102,-0.03,-0.09,1.02,2.2,5.31,1.77,876.37,33.7
4453140,-0.02,-0.09,1.0,2.2,6.23,1.71,876.31,33.7
4453178,-0.01,-0.08,0.98,2.2,6.47,1.65,876.37,33.71
4453216,-0.01,-0.08,1.0,2.2,6.53,1.53,876.38,33.71
4453254,-0.0,-0.08,0.98,2.14,6.04,1.59,876.35,33.71
4453292,-0.02,-0.08,1.05,2.2,5.25,1.59,876.35,33.7
4453342,-0.03,-0.1,1.01,2.14,5.13,1.46,876.43,33.7
4453380,-0.02,-0.08,1.05,2.08,4.82,1.28,876.39,33.7
4453418,-0.01,-0.08,0.97,2.01,4.58,1.34,876.32,33.69
4453456,-0.02,-0.07,1.02,1.95,4.03,1.22,876.35,33.7
4453494,-0.01,-0.09,1.0,2.08,4.33,1.22,876.31,33.68
4453532,-0.03,-0.08,1.02,1.95,3.54,1.22,876.3,33.7
4453570,-0.04,-0.09,1.04,2.08,4.15,1.22,876.32,33.69
4453608,-0.04,-0.09,1.03,2.01,3.97,1.16,876.34,33.69
4453646,-0.04,-0.08,1.09,2.08,4.7,0.98,876.29,33.69
4453696,-0.02,-0.08,1.09,2.14,4.39,1.22,876.35,33.68
4453734,-0.03,-0.08,1.11,2.14,5.31,1.22,876.3,33.68
4453772,-0.03,-0.08,1.1,2.2,5.43,1.22,876.33,33.67
4453810,-0.03,-0.08,1.12,2.2,5.37,1.22,876.23,33.67
4453848,-0.03,-0.08,1.15,2.14,5.49,1.22,876.26,33.68
4453886,-0.04,-0.08,1.15,2.2,6.16,1.16,876.24,33.66
4453924,-0.03,-0.08,1.14,1.89,6.65,1.22,876.33,33.69
4453962,-0.04,-0.07,1.18,2.14,6.1,1.04,876.29,33.67
4454000,-0.04,-0.08,1.15,2.08,7.2,1.22,876.32,33.69
4454038,-0.03,-0.08,1.15,2.01,6.71,1.34,876.28,33.68
4454088,-0.04,-0.07,1.11,2.14,7.69,1.16,876.26,33.66
4454126,-0.04,-0.07,1.07,2.2,6.77,1.34,876.25,33.66
4454164,-0.04,-0.07,1.09,2.38,6.84,1.28,876.26,33.68
4454202,-0.02,-0.09,1.03,2.38,6.96,1.4,876.21,33.67
4454240,-0.04,-0.07,1.05,2.5,6.16,1.28,876.22,33.68
4454278,-0.03,-0.08,1.02,2.62,5.86,1.4,876.17,33.65
4454317,-0.03,-0.08,1.02,2.87,4.7,1.22,876.25,33.68
4454355,-0.03,-0.08,1.0,2.69,5.0,1.34,876.2,33.69
4454393,-0.03,-0.08,0.99,2.87,3.97,1.22,876.18,33.69
4454431,-0.02,-0.08,0.98,2.87,4.09,1.4,876.15,33.69
4454508,-0.03,-0.08,0.93,2.87,3.42,1.1,876.13,33.65
4454546,-0.05,-0.09,0.87,2.87,3.72,1.1,876.17,33.68
4454584,-0.05,-0.08,0.87,2.56,3.48,1.1,876.16,33.67
4454673,-0.03,-0.09,0.84,2.5,3.66,1.04,876.12,33.64
4454712,-0.04,-0.07,0.86,2.5,3.42,0.98,876.1,33.66
4454750,-0.04,-0.09,0.83,2.5,3.54,0.98,876.09,33.66
4454788,-0.04,-0.07,0.84,2.26,3.05,1.04,876.11,33.67
4454826,-0.04,-0.07,0.87,2.32,2.93,1.16,876.05,33.66
4454864,-0.03,-0.09,0.85,2.2,2.56,1.16,876.11,33.66
4454914,-0.04,-0.07,0.89,1.95,2.62,1.16,876.09,33.66
4454952,-0.04,-0.08,0.88,1.95,1.95,1.28,876.08,33.66
4454990,-0.05,-0.08,0.88,1.65,1.59,1.22,876.12,33.66
4455028,-0.04,-0.08,0.87,1.89,2.01,1.04,876.06,33.65
4455066,-0.03,-0.08,0.87,1.83,1.71,1.28,876.09,33.66
4455104,-0.04,-0.08,0.86,1.77,1.53,1.22,875.99,33.66
4455142,-0.04,-0.08,0.84,1.77,1.89,1.22,876.07,33.67
4455180,-0.04,-0.07,0.85,1.83,2.14,1.16,876.07,33.66
4455218,-0.04,-0.08,0.88,2.01,2.38,1.22,876.05,33.65
4455256,-0.04,-0.09,0.87,1.95,2.56,1.34,876.04,33.64
4455306,-0.04,-0.08,0.91,1.89,2.62,1.4,876.06,33.65
4455344,-0.03,-0.08,0.92,2.14,2.87,1.16,876.0,33.65
4455382,-0.01,-0.09,0.93,2.14,2.5,1.16,876.05,33.65
4455420,-0.03,-0.08,0.94,2.01,2.69,1.22,876.0,33.66
4455458,-0.05,-0.08,0.91,2.08,3.23,1.4,876.07,33.66
4455496,-0.03,-0.08,0.91,1.95,2.32,1.22,876.04,33.65
4455534,-0.05,-0.08,0.89,2.01,2.99,1.22,876.04,33.67
4455572,-0.04,-0.08,0.87,2.2,2.99,1.22,875.98,33.65
4455610,-0.02,-0.09,0.89,2.01,4.21,1.1,876.03,33.66
4455648,-0.03,-0.08,0.88,2.26,3.17,1.28,876.07,33.67
4455698,-0.04,-0.08,0.9,2.08,3.78,1.16,875.99,33.63
4455736,-0.05,-0.08,0.89,1.83,2.93,1.4,876.05,33.65
4455774,-0.04,-0.08,0.94,1.77,2.93,1.34,876.03,33.65
4455812,-0.04,-0.09,0.87,1.59,2.56,1.28,876.0,33.67
4455850,-0.02,-0.07,0.93,1.4,2.2,1.53,875.95,33.67
4455888,-0.02,-0.08,0.89,1.16,3.72,1.4,875.96,33.67
4455926,-0.04,-0.08,0.95,0.98,2.81,1.53,876.01,33.67
4455964,-0.03,-0.08,0.95,1.16,3.23,1.53,876.04,33.66
4456002,-0.05,-0.08,0.95,0.98,3.42,1.46,876.0,33.67
4456052,-0.01,-0.07,1.0,1.04,3.42,1.34,876.06,33.66
4456090,-0.01,-0.08,1.03,1.28,3.11,1.53,875.93,33.65
4456128,-0.04,-0.08,1.03,1.28,3.11,1.4,875.97,33.65
4456166,-0.03,-0.07,1.05,1.34,3.42,1.4,876.0,33.65
4456204,-0.05,-0.07,1.04,1.59,4.09,1.34,875.95,33.65
4456242,-0.04,-0.08,1.0,1.65,4.58,1.22,876.01,33.66
4456281,-0.03,-0.07,1.03,1.77,4.52,1.46,875.93,33.65
4456319,-0.03,-0.08,0.97,1.95,5.19,1.4,876.03,33.66
4456357,-0.03,-0.07,0.98,1.95,5.31,1.34,876.02,33.64
4456395,-0.03,-0.07,0.99,2.26,5.92,1.53,875.98,33.65
4456445,-0.05,-0.07,0.97,2.2,5.92,1.28,875.98,33.63
4456483,-0.04,-0.08,0.98,2.75,7.75,1.1,875.98,33.64
4456521,-0.01,-0.08,0.89,2.87,8.12,1.16,876.02,33.66
4456559,-0.02,-0.08,0.92,2.99,7.57,1.1,875.97,33.65
4456597,-0.03,-0.09,0.84,2.93,6.53,1.16,876.0,33.66
4456635,-0.03,-0.08,0.89,2.69,6.84,1.1,875.93,33.66
4456673,-0.03,-0.09,0.84,2.69,7.02,1.16,876.0,33.66
4456711,-0.04,-0.08,0.86,2.62,6.1,0.79,875.94,33.66
4456749,-0.0,-0.09,0.83,2.2,7.39,0.79,875.96,33.65
4456787,-0.03,-0.08,0.85,2.38,6.65,0.73,875.96,33.67
4456837,-0.03,-0.08,0.86,2.2,7.2,1.04,875.97,33.66
4456875,-0.03,-0.07,0.89,1.95,6.1,0.92,875.94,33.65
4456913,-0.04,-0.09,0.88,1.95,7.08,1.04,875.96,33.65
4456951,-0.03,-0.08,0.89,1.83,6.71,0.85,875.93,33.65
4456990,-0.05,-0.08,0.93,1.77,7.87,0.79,875.89,33.65
4457028,-0.01,-0.08,0.9,1.59,7.57,0.73,875.98,33.67
4457066,-0.05,-0.06,0.93,2.2,8.06,0.79,875.95,33.65
4457104,-0.05,-0.1,0.87,2.38,9.09,0.98,875.96,33.67
4457142,-0.04,-0.08,0.91,2.38,8.24,0.61,875.93,33.66
4457192,-0.06,-0.07,0.89,2.81,8.54,0.85,875.97,33.65
4457230,-0.03,-0.08,0.91,2.75,8.3,0.79,875.99,33.65
4457268,-0.03,-0.08,0.9,2.81,9.03,0.73,876.0,33.65
4457306,-0.03,-0.08,0.93,2.87,8.48,0.85,875.91,33.65
4457344,-0.06,-0.08,0.91,2.87,7.14,1.1,875.94,33.66
4457382,-0.03,-0.07,0.92,2.75,7.08,0.98,875.96,33.66
4457420,-0.03,-0.08,0.89,2.69,6.77,1.1,875.91,33.65
4457458,-0.05,-0.06,0.93,2.62,5.0,1.16,875.82,33.66
4457496,-0.03,-0.08,0.98,2.62,4.27,0.98,875.83,33.65
4457534,-0.02,-0.08,1.05,2.32,3.6,1.04,875.88,33.65
4457610,-0.05,-0.07,1.07,2.26,3.05,1.22,875.84,33.62
4457648,-0.05,-0.07,1.07,1.95,2.99,1.04,875.87,33.61
4457686,-0.04,-0.07,1.01,2.01,2.5,1.16,875.81,33.61
4457776,-0.05,-0.07,0.92,1.95,3.66,1.1,875.82,33.59
4457814,-0.06,-0.06,0.96,2.26,3.36,1.1,875.82,33.6
4457852,-0.06,-0.08,0.92,1.95,3.11,1.1,875.78,33.59
4457890,-0.04,-0.07,0.94,1.83,3.91,1.16,875.85,33.61
4457928,-0.04,-0.07,0.96,1.71,4.39,1.28,875.86,33.61
4457966,-0.04,-0.08,0.94,1.71,3.91,1.34,875.88,33.62
4458004,-0.05,-0.08,0.92,1.34,2.93,1.34,875.92,33.61
4458054,-0.05,-0.07,0.92,1.22,2.2,1.53,875.84,33.61
4458092,-0.05,-0.08,0.87,1.28,1.22,1.71,875.84,33.6
4458130,-0.04,-0.08,0.84,1.16,0.67,1.71,875.82,33.62
4458168,-0.06,-0.07,0.87,1.16,-0.12,1.77,875.75,33.62
4458206,-0.05,-0.09,0.87,1.1,-0.37,1.95,875.79,33.63
4458244,-0.04,-0.08,0.92,0.85,-0.43,1.95,875.82,33.64
4458283,-0.05,-0.07,0.93,0.61,-0.49,2.08,875.85,33.63
4458321,-0.06,-0.08,0.96,0.49,-1.53,2.14,875.85,33.63
4458359,-0.03,-0.09,0.96,0.37,-0.79,1.95,875.82,33.62
4458409,-0.06,-0.06,1.0,0.73,-1.1,2.2,875.85,33.61
4458447,-0.03,-0.09,0.96,0.73,0.37,2.32,875.85,33.63
4458485,-0.05,-0.08,0.98,1.22,0.31,1.95,875.99,33.63
4458523,-0.05,-0.08,1.0,1.46,1.04,2.26,875.86,33.63
4458561,-0.03,-0.08,1.02,1.71,1.4,2.2,875.95,33.62
4458599,-0.05,-0.08,1.02,1.65,2.38,1.89,875.9,33.62
4458637,-0.04,-0.07,1.04,1.53,3.36,1.83,875.93,33.63
4458675,-0.05,-0.07,1.05,1.83,3.6,2.01,875.9,33.63
4458713,-0.06,-0.08,1.0,1.59,3.05,2.14,875.92,33.63
4458751,-0.05,-0.07,0.99,1.77,3.17,2.2,875.97,33.63
4458801,-0.04,-0.08,0.96,1.83,3.42,2.2,875.93,33.62
4458839,-0.03,-0.07,0.93,1.53,2.32,2.44,875.93,33.63
4458877,-0.05,-0.07,0.95,1.28,2.01,2.38,875.93,33.62
4458916,-0.04,-0.08,0.99,1.16,2.26,2.44,875.93,33.63
4458954,-0.04,-0.07,1.02,0.73,2.38,2.56,875.87,33.62
4458992,-0.04,-0.06,1.04,0.92,1.71,2.75,875.95,33.64
4459030,-0.05,-0.07,1.04,0.92,1.71,2.81,875.92,33.63
4459068,-0.03,-0.06,1.08,1.16,1.89,2.69,875.91,33.64
4459106,-0.03,-0.07,1.04,1.04,1.53,2.93,875.98,33.62
4459144,-0.05,-0.06,1.09,1.1,-0.31,2.99,875.96,33.65
4459194,-0.04,-0.06,1.07,0.85,-0.18,3.17,875.92,33.63
4459232,-0.04,-0.07,1.18,1.1,-0.73,3.11,875.89,33.62
4459270,-0.02,-0.08,1.14,1.1,-0.85,3.17,875.94,33.63
4459308,-0.04,-0.06,1.17,1.59,-1.1,2.99,875.99,33.63
4459346,-0.03,-0.05,1.16,1.77,-1.04,3.3,875.96,33.63
4459384,-0.05,-0.06,1.16,1.71,-1.89,3.42,875.95,33.63
4459422,-0.05,-0.06,1.15,1.83,-1.22,3.54,875.93,33.63
4459460,-0.05,-0.06,1.13,1.71,-1.1,3.42,875.91,33.63
4459499,-0.03,-0.05,1.16,1.89,-0.79,3.42,875.94,33.64
4459548,-0.01,-0.06,1.11,1.77,-1.16,3.48,875.97,33.63
4459586,-0.04,-0.05,1.13,1.83,0.06,3.54,875.99,33.63
4459625,-0.04,-0.07,1.1,2.32,1.28,3.54,875.98,33.63
4459663,-0.04,-0.07,1.15,2.81,1.89,3.42,875.95,33.64
4459701,-0.0,-0.06,1.07,3.05,1.77,3.17,875.94,33.64
4459739,-0.03,-0.05,1.09,3.11,3.05,3.3,875.96,33.62
4459777,-0.01,-0.08,0.99,3.3,4.58,2.99,875.92,33.63
4459815,-0.01,-0.07,1.04,3.36,2.75,2.99,875.95,33.61
4459853,-0.03,-0.08,0.97,3.54,5.0,2.93,875.93,33.62
4459891,-0.02,-0.07,0.98,3.48,5.43,2.99,875.9,33.62
4459941,-0.01,-0.08,0.95,3.6,6.47,2.75,875.9,33.63
4459979,-0.02,-0.07,0.99,3.78,5.13,2.69,875.89,33.62
4460017,-0.01,-0.08,0.95,3.6,6.77,2.87,875.94,33.64
4460055,-0.01,-0.08,0.94,3.36,6.41,2.56,875.98,33.63
4460093,-0.02,-0.06,0.96,3.66,7.08,2.56,875.94,33.65
4460131,-0.02,-0.08,0.91,3.72,7.02,2.69,875.91,33.64
4460169,-0.02,-0.07,0.95,3.48,6.59,2.38,875.95,33.63
4460207,-0.02,-0.07,0.91,3.66,7.45,2.38,875.96,33.63
4460245,-0.02,-0.08,0.9,3.48,6.96,2.38,875.89,33.62
4460295,-0.03,-0.08,0.88,3.36,7.32,2.38,875.88,33.61
4460333,-0.01,-0.08,0.89,3.3,6.9,2.5,875.91,33.62
4460372,-0.03,-0.08,0.89,2.99,7.02,2.38,875.99,33.62
4460410,-0.02,-0.08,0.86,2.93,6.29,2.38,875.94,33.61
4460448,-0.03,-0.07,0.89,2.87,5.92,2.32,875.93,33.62
4460486,-0.02,-0.09,0.86,2.62,5.55,2.32,875.97,33.61
4460524,-0.04,-0.07,0.93,2.56,4.09,2.5,875.93,33.62
4460562,-0.04,-0.08,0.92,2.56,4.46,2.69,875.96,33.62
4460600,-0.02,-0.08,0.97,2.26,3.78,2.62,875.96,33.63
4460638,-0.03,-0.08,0.95,2.32,4.09,2.69,875.94,33.62
4460714,-0.02,-0.06,1.0,2.08,2.56,2.87,875.85,33.58
4460752,-0.02,-0.09,0.95,1.89,4.21,2.93,875.91,33.6
4460790,-0.05,-0.07,0.98,1.71,2.14,2.87,875.96,33.61
4460879,-0.01,-0.06,0.93,1.65,1.95,2.81,875.96,33.58
4460918,0.0,-0.07,0.96,2.26,4.82,2.44,875.96,33.59
4460956,-0.04,-0.08,0.86,2.08,4.33,2.81,875.91,33.59
4460994,-0.07,-0.06,0.96,2.32,3.78,2.93,875.87,33.59
4461032,-0.04,-0.09,0.96,1.59,4.03,2.87,875.9,33.6
4461070,-0.03,-0.06,1.07,1.34,4.09,2.75,875.92,33.61
4461108,-0.04,-0.08,1.02,1.65,3.42,2.81,875.86,33.61
4461158,-0.04,-0.07,1.04,1.65,3.42,3.05,875.95,33.6
4461196,-0.03,-0.07,1.02,1.65,3.66,3.3,875.92,33.6
4461234,-0.02,-0.07,1.07,1.65,2.81,3.3,875.92,33.6
4461272,-0.06,-0.08,1.02,1.65,4.15,3.23,875.92,33.61
4461310,-0.04,-0.08,1.04,1.46,3.78,3.3,875.88,33.6
4461348,-0.01,-0.08,1.07,1.89,4.39,3.23,875.89,33.61
4461386,-0.02,-0.07,0.99,1.46,3.66,3.36,875.92,33.59
4461424,-0.01,-0.06,1.09,1.77,3.11,3.6,875.92,33.59
4461463,-0.03,-0.09,0.96,2.01,4.46,3.3,875.95,33.6
4461512,-0.05,-0.06,1.04,2.08,2.99,3.54,876.0,33.6
4461550,-0.03,-0.09,0.93,2.32,4.21,3.36,875.9,33.59
4461589,-0.02,-0.07,1.01,2.08,3.6,3.11,875.93,33.6
4461627,-0.02,-0.08,0.98,2.26,5.49,3.23,875.9,33.6
4461665,-0.02,-0.08,0.97,2.26,5.07,3.36,875.98,33.59
4461703,-0.03,-0.08,0.99,2.32,5.62,3.23,875.95,33.59
4461741,-0.03,-0.09,0.93,2.32,5.43,3.05,875.96,33.59
4461779,-0.03,-0.07,0.96,2.32,5.86,3.3,875.91,33.59
4461817,-0.06,-0.09,0.85,2.26,5.68,3.05,875.94,33.59
4461855,-0.03,-0.07,0.91,2.14,4.88,3.23,875.96,33.58
4461905,-0.02,-0.09,0.87,1.95,5.55,3.23,875.91,33.58
4461943,-0.02,-0.07,0.96,1.59,4.82,3.05,875.91,33.57
4461981,-0.03,-0.07,0.97,1.65,5.37,3.05,875.88,33.57
4462020,-0.04,-0.08,0.93,1.59,4.46,3.17,876.01,33.57
4462058,-0.01,-0.07,0.99,1.65,4.03,3.23,875.96,33.58
4462096,-0.02,-0.09,0.9,1.89,5.37,3.17,875.95,33.56
4462134,-0.03,-0.07,0.89,2.14,5.55,2.87,875.89,33.57
4462172,-0.02,-0.08,0.77,2.08,7.26,2.69,875.99,33.58
4462210,-0.03,-0.08,0.69,1.83,7.69,2.75,875.96,33.58
4462248,-0.05,-0.07,0.76,1.77,6.71,2.69,875.88,33.58
4462298,-0.02,-0.09,0.78,1.53,7.63,2.69,876.03,33.57
4462336,0.0,-0.07,0.91,1.22,7.57,2.62,875.89,33.56
4462374,-0.03,-0.08,0.86,0.98,6.59,2.5,875.91,33.56
4462413,-0.03,-0.07,0.92,0.61,5.49,2.75,875.93,33.58
4462451,-0.03,-0.08,0.99,0.12,6.04,2.56,875.92,33.56
4462489,-0.03,-0.08,1.01,0.06,4.7,2.5,875.95,33.56
4462527,-0.04,-0.07,1.04,0.43,4.52,2.69,875.94,33.57
4462565,-0.01,-0.08,1.01,0.49,4.64,2.44,875.96,33.56
4462603,-0.01,-0.07,1.05,0.85,4.39,2.5,875.96,33.56
4462653,-0.02,-0.07,1.01,1.04,4.39,2.56,876.0,33.56
4462691,-0.01,-0.07,1.04,1.59,4.7,2.26,875.93,33.55
4462729,-0.02,-0.08,0.98,1.53,4.27,2.2,875.97,33.57
4462767,-0.03,-0.07,1.01,1.46,3.05,2.26,875.94,33.56
4462805,-0.01,-0.08,0.99,1.59,3.3,2.26,875.95,33.57
4462843,0.0,-0.08,0.97,1.59,2.75,1.95,875.94,33.57
4462881,-0.03,-0.07,0.98,1.34,2.26,2.01,875.94,33.57
4462920,-0.03,-0.08,1.0,1.28,1.95,1.95,875.93,33.58
4462958,-0.03,-0.07,1.03,1.1,2.08,1.83,875.98,33.58
4462996,-0.01,-0.07,1.06,1.22,1.46,1.77,875.91,33.58
4463046,-0.0,-0.07,1.08,1.59,1.89,1.71,875.95,33.58
4463084,0.0,-0.08,1.1,1.71,1.95,1.53,875.94,33.58
4463122,-0.02,-0.07,1.08,1.83,2.08,1.34,875.95,33.57
4463160,-0.04,-0.06,1.09,2.08,2.14,1.4,875.93,33.58
4463198,-0.02,-0.08,1.08,2.01,2.32,1.28,875.96,33.59
4463236,-0.03,-0.07,1.09,1.95,2.56,0.98,875.98,33.58
4463274,-0.01,-0.07,1.08,2.2,3.54,0.85,876.01,33.58
4463312,-0.04,-0.08,1.01,2.2,4.09,1.04,876.03,33.58
4463350,-0.01,-0.08,1.0,2.32,4.27,0.85,875.95,33.59
4463389,-0.02,-0.08,0.91,2.26,5.86,0.43,875.99,33.58
4463438,-0.03,-0.07,0.91,2.01,5.49,0.61,876.01,33.57
4463477,-0.04,-0.1,0.8,2.2,6.96,0.37,876.04,33.59
4463515,-0.03,-0.07,0.82,1.71,4.76,0.31,875.97,33.58
4463553,-0.03,-0.08,0.82,1.65,5.55,0.43,875.99,33.59
4463591,-0.02,-0.09,0.84,1.22,3.85,0.49,875.99,33.59
4463629,-0.05,-0.08,0.88,1.16,4.27,0.49,875.94,33.59
4463667,-0.05,-0.09,0.85,0.92,3.36,0.73,875.96,33.58
4463705,-0.04,-0.08,0.93,0.61,3.11,0.61,875.97,33.59
4463743,-0.03,-0.09,0.89,0.49,4.52,0.55,876.03,33.58
4463819,-0.05,-0.09,0.98,1.04,5.62,0.73,875.97,33.54
4463857,-0.03,-0.08,0.98,0.79,4.39,0.61,876.01,33.56
4463895,-0.05,-0.06,1.1,1.16,5.13,0.79,875.95,33.55
4463984,-0.02,-0.06,1.12,0.98,5.55,0.79,876.0,33.52
4464023,-0.02,-0.09,1.06,1.1,4.27,0.67,875.99,33.55
4464061,-0.03,-0.06,1.15,1.4,2.93,1.1,875.98,33.55
4464099,-0.03,-0.08,1.06,1.65,4.21,0.92,875.99,33.56
4464137,-0.01,-0.06,1.12,1.89,2.56,0.85,876.0,33.55
4464175,-0.02,-0.07,1.02,1.83,3.6,0.73,875.99,33.55
4464213,-0.03,-0.06,1.06,2.08,1.22,0.73,876.0,33.56
4464263,-0.03,-0.09,1.03,2.08,2.32,0.49,876.01,33.55
4464301,-0.04,-0.08,1.04,1.95,2.08,0.49,876.0,33.56
4464339,-0.03,-0.07,1.01,1.83,3.3,0.43,875.99,33.56
4464377,-0.03,-0.07,0.99,2.08,3.36,0.43,876.04,33.55
4464415,-0.05,-0.07,1.0,2.38,5.0,0.43,876.01,33.55
4464453,-0.04,-0.08,0.98,2.75,5.49,0.37,876.07,33.56
4464491,-0.05,-0.07,0.99,2.62,5.86,0.49,876.03,33.56
4464529,-0.03,-0.07,0.97,2.62,6.47,0.31,876.03,33.56
4464567,-0.04,-0.06,1.04,2.69,5.8,0.55,876.03,33.56
4464605,-0.04,-0.08,1.04,2.87,5.8,0.43,876.03,33.54
4464655,-0.03,-0.08,1.07,2.87,5.43,0.55,875.97,33.54
4464693,-0.05,-0.06,1.13,3.05,5.74,1.04,876.03,33.56
4464731,-0.04,-0.07,1.09,3.11,4.39,0.92,876.05,33.55
4464769,-0.07,-0.06,1.11,3.3,3.05,0.98,876.02,33.54
4464807,-0.04,-0.07,1.05,3.42,2.32,1.16,875.97,33.54
4464846,-0.04,-0.08,1.02,3.17,0.79,1.4,875.95,33.54
4464884,-0.05,-0.07,1.01,3.42,0.43,1.28,875.98,33.55
4464922,-0.03,-0.07,0.99,3.36,-0.67,1.4,875.92,33.54
4464960,-0.05,-0.07,0.96,3.11,-0.61,1.59,875.95,33.56
4465010,-0.04,-0.07,0.94,2.93,-0.85,1.59,875.94,33.55
4465048,-0.06,-0.06,0.96,2.75,-0.18,1.65,875.95,33.56
4465086,-0.05,-0.08,0.92,2.81,0.73,1.95,875.99,33.56
4465124,-0.05,-0.07,0.96,2.87,0.55,1.77,875.98,33.56
4465162,-0.03,-0.08,0.89,2.81,2.93,1.83,876.05,33.55
4465200,-0.04,-0.08,0.86,2.93,2.69,1.89,876.02,33.54
4465238,-0.04,-0.08,0.84,2.87,3.54,1.95,876.04,33.55
4465276,-0.02,-0.08,0.82,2.75,3.66,1.95,876.05,33.54
4465314,-0.03,-0.07,0.86,2.32,4.7,1.77,876.04,33.54
4465352,-0.02,-0.09,0.83,2.32,4.39,1.95,876.0,33.53
4465402,-0.03,-0.07,0.88,2.32,4.27,1.77,876.06,33.53
4465440,-0.02,-0.08,0.84,1.83,5.07,1.77,876.02,33.53
4465478,-0.01,-0.08,0.87,1.89,5.0,1.71,876.05,33.54
4465516,-0.03,-0.08,0.89,1.77,5.74,1.65,876.06,33.53
4465554,-0.02,-0.09,0.91,1.83,5.0,1.71,876.01,33.53
4465592,-0.03,-0.08,0.92,1.53,5.62,1.65,876.05,33.53
4465630,-0.03,-0.08,0.95,1.59,5.31,1.77,876.09,33.54
4465668,-0.01,-0.07,0.95,1.65,5.86,1.71,876.06,33.53
4465706,-0.03,-0.07,0.94,1.59,4.94,1.83,876.06,33.54
4465744,-0.02,-0.07,0.99,1.71,4.76,1.65,876.04,33.53
4465794,-0.04,-0.08,0.97,1.53,4.27,1.77,876.01,33.52
4465832,-0.03,-0.07,1.02,1.46,3.85,1.89,876.08,33.52
4465870,-0.02,-0.07,1.02,1.46,3.78,1.77,876.07,33.53
4465908,-0.03,-0.07,1.04,1.34,2.87,1.89,876.05,33.54
4465946,-0.03,-0.08,1.03,1.46,4.33,1.71,876.08,33.53
4465984,-0.03,-0.07,1.0,1.46,4.7,1.53,876.08,33.54
4466022,-0.03,-0.06,1.02,1.28,4.64,1.59,876.01,33.54
4466060,-0.02,-0.07,1.01,1.46,5.37,1.34,876.02,33.54
4466098,-0.02,-0.07,1.05,1.28,5.74,1.4,876.05,33.54
4466148,-0.01,-0.07,1.05,1.4,5.0,1.46,876.06,33.53
4466186,-0.03,-0.07,1.05,1.83,5.19,1.4,876.12,33.54
4466224,-0.03,-0.08,1.01,1.89,4.82,1.22,876.11,33.53
4466262,-0.03,-0.07,1.01,2.08,3.85,1.46,876.04,33.53
4466300,-0.03,-0.08,0.98,2.38,4.46,1.16,876.11,33.55
4466338,-0.02,-0.07,0.95,2.38,3.42,1.22,876.1,33.53
4466376,-0.03,-0.07,0.95,2.56,3.54,1.16,876.01,33.53
4466414,-0.02,-0.08,0.89,2.32,2.99,1.1,876.0,33.52
4466452,-0.02,-0.07,0.93,2.14,1.95,0.98,876.08,33.54
4466490,-0.01,-0.08,0.91,2.01,3.11,0.92,876.05,33.54
4466540,-0.01,-0.07,0.99,1.83,2.38,0.67,876.09,33.53
4466578,-0.04,-0.07,0.97,1.71,1.89,0.67,876.04,33.52
4466616,-0.04,-0.06,1.09,1.65,2.26,0.73,876.08,33.54
4466654,-0.02,-0.08,1.07,1.59,2.81,0.31,876.06,33.55
4466692,-0.02,-0.06,1.11,1.77,1.71,0.37,876.13,33.55
4466730,-0.03,-0.06,1.03,1.83,2.75,0.37,876.11,33.54
4466768,-0.03,-0.06,1.0,1.95,2.01,0.43,876.09,33.54
4466806,-0.03,-0.08,0.93,2.14,2.38,0.24,876.08,33.54
4466844,-0.03,-0.07,0.93,2.2,1.16,0.24,876.1,33.54
4466882,-0.03,-0.07,0.95,2.38,1.71,0.31,876.1,33.52
4466958,-0.02,-0.07,0.9,2.44,1.1,0.0,876.09,33.51
4466996,-0.03,-0.07,0.86,2.69,0.06,0.24,876.13,33.52
4467034,-0.03,-0.07,0.87,2.5,0.24,0.31,876.07,33.51
4467123,-0.05,-0.08,0.83,2.81,-0.43,0.12,876.14,33.5
4467162,-0.05,-0.08,0.74,2.69,0.67,0.0,876.13,33.5
4467200,-0.04,-0.06,0.81,2.69,0.49,-0.06,876.13,33.51
4467238,-0.03,-0.08,0.76,2.56,2.44,-0.06,876.18,33.52
4467276,-0.05,-0.07,0.84,2.32,0.24,0.24,876.09,33.52
4467314,-0.06,-0.08,0.85,2.01,1.59,0.18,876.09,33.52
4467364,-0.03,-0.06,0.94,1.28,2.08,0.18,876.09,33.5
4467402,-0.05,-0.07,0.99,1.65,2.62,0.37,876.17,33.52
4467440,-0.04,-0.09,0.94,1.4,1.83,0.49,876.15,33.51
4467478,-0.05,-0.06,1.03,1.34,2.32,0.37,876.16,33.52
4467516,-0.03,-0.07,0.94,1.28,3.3,0.92,876.18,33.51
4467554,-0.05,-0.06,1.07,1.1,1.1,0.85,876.18,33.52
4467592,-0.07,-0.07,1.02,1.16,2.01,0.92,876.14,33.51
4467630,-0.03,-0.06,1.08,1.28,0.98,1.04,876.15,33.52
4467668,-0.03,-0.07,1.07,1.65,2.69,0.92,876.16,33.51
4467706,-0.06,-0.08,0.99,1.83,2.26,1.22,876.17,33.52
4467756,-0.04,-0.07,0.93,2.01,3.48,1.16,876.19,33.5
4467794,-0.05,-0.06,0.88,2.32,2.2,1.28,876.16,33.5
4467832,-0.03,-0.07,0.85,2.38,2.56,1.28,876.18,33.5
4467870,-0.04,-0.09,0.83,2.69,2.62,1.22,876.2,33.49
4467908,-0.04,-0.09,0.85,2.62,2.32,1.34,876.25,33.52
4467947,-0.02,-0.09,0.86,2.38,2.2,1.4,876.17,33.51
4467985,-0.04,-0.08,0.88,2.56,2.5,1.59,876.2,33.52
4468023,-0.04,-0.09,0.88,2.56,2.38,1.46,876.2,33.52
4468061,-0.04,-0.09,0.89,2.44,1.89,1.4,876.21,33.52
4468111,-0.03,-0.07,0.94,2.2,1.1,1.53,876.2,33.5
4468149,-0.02,-0.07,0.95,1.71,1.22,1.53,876.18,33.5
4468187,-0.04,-0.08,1.02,1.65,1.16,1.4,876.24,33.5
4468225,-0.02,-0.08,1.09,1.16,1.04,1.65,876.25,33.5
4468263,-0.04,-0.07,1.13,1.28,0.79,1.53,876.23,33.5
4468301,-0.04,-0.06,1.17,1.53,1.4,1.4,876.28,33.49
4468339,-0.03,-0.07,1.16,1.59,1.77,1.1,876.25,33.5
4468377,-0.03,-0.08,1.17,1.89,2.14,1.16,876.21,33.49
4468415,-0.03,-0.08,1.1,1.71,4.15,1.1,876.3,33.5
4468453,-0.04,-0.07,1.09,2.08,5.49,0.73,876.34,33.51
4468503,-0.03,-0.06,1.11,2.44,6.47,0.73,876.3,33.5
4468541,-0.03,-0.08,1.08,2.56,6.71,0.55,876.27,33.51
4468579,-0.02,-0.08,1.13,2.2,7.02,0.61,876.27,33.5
4468617,-0.03,-0.09,1.06,2.32,8.24,0.61,876.32,33.51
4468655,-0.04,-0.07,1.05,2.44,7.69,0.67,876.27,33.5
4468693,-0.04,-0.08,0.99,2.32,8.61,0.67,876.26,33.51
4468731,-0.03,-0.08,0.95,1.95,8.24,0.67,876.33,33.51
4468770,-0.05,-0.07,1.0,2.26,7.57,0.49,876.23,33.5
4468808,-0.03,-0.08,0.97,1.95,7.63,0.55,876.33,33.5
4468846,-0.03,-0.07,1.04,1.46,6.9,0.85,876.3,33.51
4468896,-0.02,-0.09,1.02,1.46,7.69,0.73,876.28,33.48
4468934,-0.04,-0.07,1.06,1.34,5.37,0.85,876.33,33.49
4468972,-0.03,-0.07,1.07,1.71,5.92,0.73,876.31,33.49
4469010,-0.02,-0.08,1.02,1.59,5.13,0.73,876.24,33.49
4469048,-0.04,-0.06,1.04,1.71,5.19,0.92,876.33,33.49
4469086,-0.04,-0.09,1.0,1.65,4.09,0.85,876.29,33.49
4469124,-0.05,-0.08,1.03,1.53,3.91,1.1,876.28,33.49
4469162,-0.06,-0.08,1.01,1.65,3.91,1.16,876.32,33.5
4469200,-0.05,-0.08,1.0,1.95,3.97,1.1,876.26,33.49
4469250,-0.03,-0.09,0.94,1.83,2.87,1.16,876.28,33.48
4469288,-0.04,-0.08,0.92,2.2,3.6,1.28,876.33,33.5
4469327,-0.03,-0.09,0.86,2.14,3.78,1.4,876.26,33.5
4469365,-0.05,-0.07,0.92,1.83,2.5,1.22,876.28,33.51
4469403,-0.05,-0.08,0.95,1.53,3.05,1.65,876.27,33.5
4469441,-0.05,-0.1,0.91,1.22,4.03,1.59,876.27,33.5
4469479,-0.04,-0.05,1.0,0.92,3.3,1.34,876.33,33.52
4469517,-0.01,-0.08,1.02,0.67,4.03,1.53,876.33,33.5
4469555,-0.03,-0.09,1.03,0.0,4.76,1.53,876.31,33.51
4469593,-0.03,-0.07,1.1,0.61,4.76,1.34,876.34,33.52
4469643,-0.04,-0.08,1.02,0.98,4.94,1.53,876.32,33.5
4469681,-0.05,-0.06,1.02,0.98,4.33,1.46,876.37,33.51
4469719,-0.03,-0.07,1.03,0.92,3.85,1.4,876.38,33.52
4469757,0.01,-0.07,1.08,0.61,3.6,1.34,876.36,33.53
4469795,-0.02,-0.07,1.04,0.67,4.03,1.28,876.37,33.52
4469833,-0.03,-0.07,1.07,0.73,2.99,1.4,876.32,33.51
4469871,-0.02,-0.09,1.01,0.92,5.25,1.1,876.34,33.52
4469909,-0.05,-0.07,1.01,0.98,3.91,0.98,876.37,33.51
4469947,-0.03,-0.07,0.97,1.4,4.58,1.1,876.32,33.51
4469985,-0.03,-0.09,0.99,1.65,3.23,0.79,876.34,33.52
4470061,-0.03,-0.07,1.03,1.53,3.11,0.79,876.33,33.48
4470099,-0.03,-0.07,1.13,1.34,2.56,0.85,876.34,33.49
4470137,-0.02,-0.07,1.11,1.28,3.3,0.85,876.36,33.51
4470226,-0.02,-0.07,1.17,1.22,2.69,0.73,876.33,33.46
4470264,-0.04,-0.05,1.26,1.65,2.01,0.73,876.34,33.46
4470303,-0.03,-0.05,1.28,1.95,3.3,0.73,876.32,33.47
4470341,-0.02,-0.06,1.3,2.14,2.69,0.67,876.34,33.48
4470379,-0.04,-0.05,1.3,2.62,2.93,0.61,876.37,33.49
4470417,-0.02,-0.06,1.25,2.93,3.48,0.55,876.33,33.48
4470467,-0.04,-0.06,1.2,3.3,3.85,0.61,876.35,33.48
4470505,-0.02,-0.06,1.14,3.6,4.03,0.43,876.34,33.47
4470543,-0.03,-0.07,1.08,3.66,4.46,0.31,876.35,33.48
4470581,-0.02,-0.07,1.0,3.36,4.88,0.61,876.33,33.48
4470619,-0.02,-0.07,0.97,3.42,4.58,0.37,876.33,33.5
4470657,-0.04,-0.08,0.96,3.11,4.46,0.37,876.29,33.47
4470695,-0.03,-0.08,0.92,2.32,4.33,0.37,876.38,33.49
4470733,-0.03,-0.06,0.95,1.89,3.97,0.18,876.33,33.47
4470771,-0.03,-0.08,0.93,1.71,3.6,0.49,876.35,33.49
4470810,-0.05,-0.08,0.91,1.28,3.48,0.61,876.37,33.49
4470859,-0.04,-0.08,0.93,1.04,4.03,0.31,876.32,33.5
4470897,-0.05,-0.07,0.93,0.85,3.3,0.37,876.36,33.49
4470936,-0.04,-0.06,0.96,0.55,3.91,0.49,876.32,33.49
4470974,-0.03,-0.08,0.96,0.61,4.82,0.49,876.32,33.5
4471012,-0.05,-0.07,0.99,0.49,4.52,0.49,876.27,33.5
4471050,-0.04,-0.08,1.01,0.67,4.58,0.55,876.29,33.5
4471088,-0.04,-0.08,1.0,0.73,4.58,0.61,876.35,33.51
4471126,-0.06,-0.08,1.01,0.85,5.07,0.67,876.32,33.5
4471164,-0.04,-0.08,1.01,0.73,4.7,0.55,876.27,33.5
4471202,-0.05,-0.07,1.04,0.92,3.91,0.67,876.27,33.5
4471252,-0.05,-0.07,1.04,1.28,3.78,0.92,876.28,33.48
4471290,-0.06,-0.07,1.04,1.28,3.91,0.92,876.27,33.49
4471328,-0.07,-0.06,1.06,1.83,3.48,1.22,876.28,33.51
4471366,-0.05,-0.07,1.04,1.89,3.3,1.22,876.27,33.52
4471404,-0.07,-0.06,1.04,2.01,4.27,1.4,876.28,33.5
4471442,-0.04,-0.06,1.09,2.26,4.76,1.4,876.28,33.51
4471480,-0.05,-0.07,1.07,2.2,4.7,1.59,876.27,33.49
4471518,-0.07,-0.07,1.09,2.32,4.7,1.77,876.21,33.48
4471557,-0.05,-0.07,1.09,2.38,5.49,1.77,876.27,33.49
4471606,-0.04,-0.06,1.13,2.38,4.88,1.77,876.23,33.47
4471644,-0.05,-0.06,1.13,2.44,5.25,2.01,876.21,33.48
4471682,-0.04,-0.06,1.17,2.56,5.07,1.95,876.22,33.49
4471721,-0.05,-0.06,1.21,2.75,5.25,2.38,876.2,33.48
4471759,-0.06,-0.06,1.24,2.81,4.76,2.26,876.22,33.49
4471797,-0.06,-0.05,1.24,2.81,5.13,2.14,876.14,33.49
4471835,-0.05,-0.05,1.28,2.69,5.49,2.26,876.21,33.48
4471873,-0.04,-0.06,1.25,2.69,5.98,2.2,876.23,33.5
4471911,-0.05,-0.04,1.25,2.81,5.8,2.2,876.12,33.5
4471949,-0.06,-0.05,1.26,2.99,6.29,2.44,876.14,33.5
4471999,-0.05,-0.06,1.27,2.87,6.1,2.38,876.19,33.5
4472037,-0.06,-0.05,1.27,2.87,5.92,2.56,876.12,33.5
4472075,-0.05,-0.06,1.24,3.05,5.07,2.69,876.13,33.49
4472113,-0.06,-0.05,1.26,3.17,4.64,2.87,876.12,33.49
4472151,-0.05,-0.07,1.15,3.36,4.39,2.87,876.1,33.5
4472189,-0.05,-0.06,1.15,3.36,3.6,3.17,876.11,33.48
4472228,-0.06,-0.05,1.09,3.42,3.54,3.11,876.15,33.49
4472266,-0.06,-0.07,1.08,3.36,3.3,3.36,876.1,33.48
4472304,-0.06,-0.08,1.05,3.23,3.6,3.48,876.14,33.49
4472342,-0.07,-0.08,1.01,3.17,3.23,3.48,876.1,33.5
4472392,-0.04,-0.07,0.98,3.11,4.21,3.54,876.08,33.47
4472430,-0.06,-0.07,0.95,2.93,3.42,3.66,876.08,33.48
4472468,-0.05,-0.08,0.88,2.5,3.48,3.78,876.12,33.48
4472506,-0.04,-0.08,0.88,2.26,3.78,3.78,876.03,33.46
4472544,-0.04,-0.08,0.88,1.95,3.42,3.78,876.07,33.46
4472582,-0.04,-0.07,0.91,1.65,2.56,3.78,876.07,33.47
4472620,-0.03,-0.08,0.92,1.46,3.11,3.78,876.15,33.48
4472659,-0.04,-0.08,0.94,1.16,2.99,3.72,876.0,33.47
4472697,-0.05,-0.08,0.98,1.1,2.62,3.72,876.07,33.48
4472746,-0.04,-0.07,0.95,0.73,2.32,3.91,876.03,33.46
4472784,-0.04,-0.07,0.97,0.73,2.62,3.91,876.09,33.46
4472823,-0.03,-0.09,0.89,1.04,2.75,3.78,876.04,33.46
4472861,-0.03,-0.07,0.92,1.1,1.89,3.97,876.03,33.47
4472899,-0.03,-0.08,0.85,0.98,2.38,3.91,875.99,33.48
4472937,-0.01,-0.08,0.85,0.79,1.59,3.72,876.03,33.46
4472975,-0.02,-0.07,0.86,0.85,2.32,3.72,875.97,33.47
4473013,-0.02,-0.08,0.87,0.73,1.71,3.66,876.02,33.48
4473051,-0.01,-0.08,0.87,0.79,1.65,3.6,876.01,33.48
4473089,-0.01,-0.06,0.92,0.73,0.79,3.54,875.96,33.46
4473165,-0.03,-0.09,0.84,1.1,1.22,3.17,875.97,33.46
4473203,-0.03,-0.07,0.86,1.34,2.01,3.17,875.96,33.47
4473241,-0.0,-0.1,0.69,1.16,4.64,3.05,876.02,33.46
4473405,-0.01,-0.09,0.87,2.5,7.39,2.32,875.93,33.39
4473443,-0.02,-0.09,0.94,2.81,5.43,2.26,875.9,33.4
4473481,-0.03,-0.08,0.99,2.87,5.86,2.38,875.97,33.41
4473519,-0.02,-0.07,1.02,2.81,5.92,2.08,875.86,33.42
4473557,-0.03,-0.07,1.03,2.75,6.65,2.2,875.9,33.43
4473595,-0.05,-0.06,1.07,3.17,6.23,1.83,875.87,33.43
4473633,-0.05,-0.08,1.04,3.42,7.93,1.65,875.97,33.44
4473683,-0.02,-0.07,1.05,3.42,6.53,1.71,875.84,33.42
4473721,-0.03,-0.07,1.01,3.54,6.65,1.59,875.89,33.43
4473759,-0.05,-0.08,0.97,3.78,6.71,1.77,875.91,33.43
4473797,-0.01,-0.1,0.92,4.09,7.08,1.53,875.96,33.44
4473835,-0.03,-0.09,0.83,4.27,6.29,1.53,875.92,33.44
4473874,-0.03,-0.08,0.76,3.91,6.16,1.4,875.86,33.44
4473912,-0.02,-0.08,0.69,3.85,5.37,1.34,875.88,33.45
4473950,-0.02,-0.09,0.7,3.48,6.47,1.4,875.88,33.46
4473988,-0.0,-0.09,0.73,2.56,4.94,1.34,875.88,33.46
4474038,-0.03,-0.08,0.83,2.69,5.13,1.04,875.79,33.45
4474076,-0.02,-0.09,0.74,1.77,7.14,1.1,875.77,33.45
4474114,-0.02,-0.06,0.88,1.89,4.94,1.1,875.76,33.44
4474152,-0.02,-0.09,0.77,1.59,6.35,0.92,875.81,33.46
4474190,-0.03,-0.09,0.72,1.53,6.29,0.73,875.8,33.46
4474228,-0.0,-0.07,0.77,1.4,7.39,0.79,875.81,33.47
4474266,0.0,-0.09,0.72,1.4,8.3,0.61,875.76,33.47
4474304,-0.02,-0.09,0.77,1.16,7.51,0.67,875.79,33.47
4474342,-0.01,-0.1,0.76,1.16,9.09,0.43,875.76,33.46
4474380,-0.01,-0.11,0.74,0.79,9.28,0.06,875.76,33.46
4474430,-0.02,-0.07,0.82,1.04,7.14,0.12,875.78,33.44
4474468,-0.01,-0.1,0.74,0.73,6.47,-0.06,875.75,33.45
4474506,0.02,-0.09,0.8,0.24,6.53,-0.49,875.86,33.46
4474544,-0.01,-0.08,0.74,-0.18,6.1,-0.37,875.8,33.45
4474582,-0.03,-0.08,0.79,0.12,3.17,-0.18,875.8,33.45
4474620,-0.02,-0.08,0.71,-0.43,3.72,-0.49,875.81,33.45
4474658,-0.02,-0.07,0.87,0.0,2.08,-0.61,875.75,33.44
4474696,0.01,-0.09,0.81,0.0,1.4,-0.67,875.74,33.45
4474734,-0.01,-0.08,0.87,0.12,0.12,-0.79,875.75,33.44
4474773,-0.01,-0.09,0.84,0.18,2.44,-0.79,875.79,33.44
4474822,-0.01,-0.08,0.86,0.61,1.46,-1.16,875.81,33.43
4474860,-0.03,-0.08,0.77,0.98,1.77,-1.16,875.79,33.45
4474898,-0.03,-0.07,0.77,1.34,1.34,-1.22,875.78,33.42
4474936,0.0,-0.08,0.8,1.4,1.28,-1.46,875.79,33.45
4474974,-0.01,-0.08,0.86,1.59,-0.24,-1.4,875.74,33.44
4475012,-0.02,-0.07,0.92,1.34,-0.98,-1.4,875.75,33.44
4475050,-0.03,-0.08,0.97,1.1,-2.93,-1.28,875.77,33.44
4475088,-0.0,-0.07,1.07,0.37,-3.91,-1.4,875.75,33.44
4475127,-0.02,-0.06,1.07,0.43,-2.99,-1.46,875.82,33.45
4475176,-0.05,-0.06,1.17,0.85,-4.09,-1.4,875.82,33.44
4475214,-0.06,-0.07,1.13,1.71,-4.39,-1.59,875.8,33.43
4475252,-0.04,-0.06,1.12,1.46,-4.82,-1.4,875.8,33.45
4475290,-0.05,-0.04,1.12,1.71,-4.52,-1.53,875.89,33.45
4475329,-0.07,-0.07,1.07,2.44,-4.52,-1.65,875.87,33.45
4475367,-0.04,-0.08,0.96,2.56,-3.36,-1.65,875.86,33.45
4475405,-0.06,-0.05,0.94,2.75,-3.23,-1.65,875.88,33.46
4475443,-0.07,-0.06,0.91,3.42,-0.73,-1.46,875.89,33.46
4475481,-0.07,-0.07,0.8,3.05,0.37,-1.34,875.87,33.45
4475531,-0.1,-0.06,0.87,2.81,2.87,-1.4,875.81,33.45
4475569,-0.07,-0.09,0.89,2.87,5.86,-1.4,875.79,33.44
4475607,-0.04,-0.07,0.93,2.62,7.51,-1.46,875.89,33.45
4475645,-0.05,-0.07,0.86,2.81,9.83,-1.22,875.95,33.45
4475683,-0.05,-0.07,0.87,2.87,9.95,-0.98,875.94,33.44
4475721,-0.06,-0.08,0.82,2.38,11.11,-1.1,875.95,33.46
4475759,-0.06,-0.08,0.79,2.69,9.95,-0.85,875.85,33.44
4475797,-0.05,-0.06,0.85,2.44,9.83,-0.67,875.83,33.45
4475835,-0.03,-0.06,0.87,2.2,8.42,-0.61,875.91,33.46
4475874,-0.05,-0.08,0.91,2.2,7.93,-0.43,875.85,33.45
4475923,-0.04,-0.08,0.9,2.32,6.77,-0.24,875.86,33.46
4475961,-0.08,-0.06,0.96,2.62,3.48,-0.18,875.87,33.46
4476000,-0.04,-0.06,0.93,2.38,1.83,0.18,875.83,33.48
4476038,-0.05,-0.05,1.05,2.2,-0.92,0.24,875.79,33.46
4476076,-0.07,-0.07,1.01,2.14,-0.98,0.43,875.85,33.46
4476114,-0.05,-0.07,1.07,1.77,-3.05,0.92,875.86,33.47
4476152,-0.07,-0.04,1.11,1.65,-3.6,1.16,875.91,33.47
4476190,-0.05,-0.06,1.15,1.71,-3.05,1.16,875.97,33.46
4476228,-0.06,-0.05,1.08,1.89,-3.36,1.1,875.91,33.45
4476304,-0.05,-0.07,1.03,2.81,-2.38,1.4,875.94,33.42
4476342,-0.02,-0.05,1.02,2.62,-2.56,1.16,875.94,33.44
4476380,-0.04,-0.05,1.01,2.62,-1.59,1.53,875.98,33.44
4476469,-0.05,-0.07,1.01,2.56,-0.73,1.46,876.04,33.41
4476508,-0.05,-0.06,1.0,2.62,-0.85,1.59,876.02,33.41
4476546,-0.05,-0.06,0.96,2.38,-0.12,1.65,875.98,33.41
4476584,-0.04,-0.06,0.97,2.5,0.37,1.77,876.0,33.43
4476622,-0.04,-0.06,0.98,2.56,1.89,1.53,876.02,33.43
4476660,-0.05,-0.07,0.94,2.69,1.22,1.83,876.03,33.43
4476698,-0.06,-0.06,0.95,2.99,1.1,1.77,875.97,33.43
4476748,-0.06,-0.06,0.96,3.3,2.2,1.71,876.01,33.42
4476786,-0.05,-0.05,0.97,3.11,1.77,2.14,876.02,33.43
4476824,-0.06,-0.06,0.98,3.17,2.69,2.14,875.96,33.42
4476862,-0.05,-0.06,0.99,3.3,3.36,2.08,876.05,33.43
4476900,-0.05,-0.06,1.0,3.11,3.48,2.44,876.03,33.42
4476938,-0.06,-0.06,1.01,3.3,2.87,2.32,876.0,33.43
4476976,-0.05,-0.05,1.07,3.54,4.15,2.08,875.97,33.44
4477014,-0.06,-0.06,1.03,3.23,4.7,2.38,875.96,33.44
4477052,-0.03,-0.05,1.09,3.11,3.3,2.75,876.07,33.45
4477102,-0.08,-0.05,1.08,2.99,4.76,2.75,876.07,33.44
4477140,-0.05,-0.05,1.12,2.69,5.68,2.69,876.0,33.43
4477178,-0.03,-0.04,1.19,2.87,5.07,2.81,875.99,33.43
4477216,-0.06,-0.06,1.13,2.93,4.27,3.11,875.99,33.44
4477254,-0.06,-0.03,1.06,2.93,4.39,3.17,876.07,33.46
4477293,-0.06,-0.04,1.09,3.17,4.88,3.3,876.06,33.44
4477331,-0.06,-0.06,1.02,3.11,4.15,3.72,875.98,33.44
4477369,-0.06,-0.06,1.0,2.75,3.23,3.78,876.06,33.45
4477407,-0.07,-0.06,0.98,2.81,4.21,3.78,876.02,33.45
4477445,-0.04,-0.07,0.96,2.56,3.42,3.91,876.06,33.46
4477495,-0.04,-0.05,0.99,2.56,2.44,4.03,876.04,33.44
4477533,-0.06,-0.06,0.96,2.69,2.56,4.27,876.02,33.44
4477571,-0.05,-0.07,0.96,2.62,3.05,4.33,876.07,33.45
4477609,-0.06,-0.06,0.91,2.44,2.2,4.46,876.08,33.44
4477647,-0.05,-0.06,0.93,2.2,1.46,4.58,876.09,33.45
4477685,-0.04,-0.06,0.91,1.46,1.83,4.76,876.05,33.44
4477723,-0.04,-0.06,0.99,1.28,1.34,4.88,876.06,33.46
4477761,-0.04,-0.07,1.0,0.85,2.14,4.88,876.01,33.45
4477799,-0.05,-0.05,1.04,0.67,2.5,5.0,876.08,33.45
4477837,-0.02,-0.05,1.09,0.98,5.0,4.82,876.02,33.45
4477887,-0.05,-0.03,1.1,0.98,2.56,5.13,876.06,33.44
4477925,-0.06,-0.03,1.15,1.34,3.48,5.25,876.0,33.44
4477963,-0.04,-0.05,1.2,1.53,3.48,5.25,876.04,33.45
4478001,-0.04,-0.03,1.29,1.65,4.15,5.37,876.01,33.45
4478039,-0.03,-0.04,1.33,2.01,4.76,5.49,876.01,33.46
4478077,-0.03,-0.03,1.32,1.71,4.94,5.37,876.05,33.45
4478115,-0.03,-0.03,1.33,1.83,6.35,5.31,876.05,33.45
4478154,-0.03,-0.06,1.29,2.08,5.43,5.31,876.03,33.45
4478192,-0.02,-0.06,1.22,2.38,6.96,5.25,876.05,33.45
4478241,-0.02,-0.05,1.11,2.87,7.32,4.82,876.02,33.43
4478279,-0.0,-0.05,1.07,2.81,7.32,5.0,876.13,33.44
4478317,-0.03,-0.06,1.04,2.81,6.71,5.07,876.11,33.44
4478355,-0.03,-0.09,1.05,2.81,7.63,4.76,876.08,33.45
4478393,-0.01,-0.09,1.02,2.44,7.75,4.82,876.12,33.45
4478431,0.0,-0.06,1.06,2.2,6.65,4.7,876.11,33.45
4478469,-0.01,-0.06,1.02,2.01,5.98,4.46,876.07,33.43
4478507,-0.01,-0.07,1.05,1.65,5.68,4.7,876.09,33.44
4478545,-0.0,-0.08,1.04,1.46,5.68,4.64,876.09,33.45
4478583,-0.02,-0.08,1.04,1.16,4.76,4.58,876.08,33.44
4478633,-0.0,-0.07,1.03,0.85,5.07,4.33,876.15,33.44
4478671,-0.0,-0.08,1.07,0.85,5.13,4.15,876.08,33.44
4478709,-0.01,-0.09,1.02,0.37,5.37,4.03,876.09,33.43
4478747,-0.02,-0.08,1.02,0.43,5.49,3.97,876.08,33.43
4478785,-0.02,-0.08,1.01,0.12,6.29,3.54,876.06,33.44
4478823,-0.01,-0.07,1.03,-0.24,4.76,3.6,876.12,33.46
4478861,-0.01,-0.08,1.07,-0.43,4.03,3.54,876.08,33.45
4478899,-0.0,-0.08,1.09,-0.61,4.15,3.48,876.0,33.43
4478937,-0.0,-0.08,1.1,-0.61,4.58,3.3,876.03,33.43
4478976,-0.01,-0.07,1.1,-0.37,2.99,3.23,876.05,33.44
4479025,-0.03,-0.08,1.07,-0.61,3.3,3.11,876.07,33.43
4479063,-0.02,-0.08,1.05,-0.49,2.62,2.87,876.06,33.43
4479102,-0.02,-0.08,1.03,-0.55,2.62,2.93,876.11,33.45
4479140,-0.02,-0.07,1.0,-0.73,1.4,2.69,876.04,33.45
4479178,-0.02,-0.06,1.04,-0.49,0.79,2.62,876.01,33.44
4479216,-0.03,-0.07,1.07,-0.37,1.1,2.75,876.08,33.46
4479254,-0.03,-0.07,1.14,-0.49,0.37,2.75,876.08,33.46
4479292,-0.04,-0.07,1.17,-0.18,0.31,2.56,875.99,33.45
4479330,-0.02,-0.06,1.18,0.06,1.22,2.5,876.05,33.44
4479405,-0.02,-0.07,1.17,0.55,2.38,2.32,876.0,33.41
4479443,-0.02,-0.06,1.19,0.73,2.01,2.32,876.03,33.42
4479482,-0.01,-0.06,1.17,0.79,2.26,2.2,875.99,33.41
4479571,-0.01,-0.07,1.13,0.92,2.5,2.08,876.01,33.4
4479609,-0.01,-0.06,1.15,0.98,1.83,1.89,875.96,33.41
4479647,-0.01,-0.07,1.15,1.04,1.83,1.89,875.89,33.42
4479685,-0.01,-0.06,1.16,1.1,1.53,1.77,875.98,33.43
4479723,-0.04,-0.06,1.16,1.16,2.62,1.59,876.0,33.43
4479761,-0.02,-0.07,1.14,1.28,2.38,1.65,876.0,33.43
4479799,-0.02,-0.08,1.09,1.4,3.3,1.46,876.02,33.43
4479849,-0.01,-0.07,1.09,1.59,3.72,1.1,875.91,33.41
4479887,-0.02,-0.07,1.0,1.59,5.43,0.98,875.95,33.43
4479925,-0.03,-0.07,1.03,1.46,4.58,0.73,875.87,33.42
4479963,-0.03,-0.08,1.04,1.28,4.94,0.92,875.95,33.42
4480001,-0.04,-0.08,1.03,1.4,6.1,0.73,875.95,33.42
4480039,-0.03,-0.07,1.01,1.16,6.59,0.79,875.95,33.42
4480077,-0.03,-0.06,1.02,1.1,6.16,0.49,875.98,33.42
4480115,-0.02,-0.07,1.0,1.1,6.41,0.49,875.88,33.42
4480153,-0.01,-0.08,1.0,0.98,7.14,0.73,875.89,33.42
4480191,-0.02,-0.07,1.03,0.98,6.35,0.49,875.91,33.42
4480241,-0.05,-0.06,1.02,0.98,6.1,0.55,875.94,33.42
4480279,-0.02,-0.07,1.1,0.98,5.43,0.67,875.84,33.42
4480317,-0.0,-0.07,1.09,1.16,5.68,0.67,875.85,33.42
4480355,-0.03,-0.08,1.06,1.34,4.21,0.73,875.88,33.44
4480393,-0.02,-0.06,1.05,1.4,4.03,0.79,875.83,33.44
4480431,-0.03,-0.07,0.99,1.71,4.39,0.73,875.88,33.43
4480469,-0.04,-0.06,0.95,2.08,3.85,0.79,875.85,33.42
4480508,-0.04,-0.07,0.89,1.71,4.15,0.85,875.81,33.43
4480546,-0.03,-0.09,0.92,1.28,4.21,0.92,875.75,33.43
4480595,-0.04,-0.07,0.95,1.1,4.39,0.85,875.79,33.42
4480634,-0.03,-0.08,0.94,1.04,5.55,0.79,875.81,33.42
4480672,-0.04,-0.07,0.93,0.79,5.07,0.79,875.78,33.43
4480710,-0.05,-0.06,0.97,0.92,5.25,0.79,875.77,33.43
4480748,-0.05,-0.08,0.94,0.79,5.62,0.92,875.75,33.42
4480786,-0.03,-0.07,0.94,0.61,4.88,0.85,875.84,33.44
4480824,-0.05,-0.06,0.95,0.73,6.04,1.04,875.74,33.43
4480862,-0.05,-0.08,0.94,0.49,6.04,1.16,875.71,33.44
4480900,-0.03,-0.06,0.98,0.37,5.8,1.28,875.77,33.45
4480938,-0.05,-0.06,0.98,0.49,6.23,1.28,875.68,33.44
4480988,-0.04,-0.07,0.97,0.43,6.71,1.46,875.71,33.43
4481026,-0.05,-0.07,1.0,0.85,7.08,1.53,875.72,33.44
4481064,-0.05,-0.07,0.97,0.98,7.02,1.59,875.6,33.43
4481102,-0.05,-0.06,0.99,0.98,6.77,1.71,875.59,33.44
4481140,-0.04,-0.06,0.99,1.04,7.75,1.65,875.63,33.43
4481178,-0.04,-0.06,1.01,1.28,7.45,1.83,875.62,33.44
4481216,-0.03,-0.07,1.02,1.4,7.14,1.83,875.63,33.44
4481254,-0.05,-0.06,1.02,1.59,6.59,2.01,875.54,33.43
4481293,-0.05,-0.06,1.01,1.71,6.84,1.89,875.62,33.43
4481331,-0.03,-0.06,1.03,1.89,5.55,2.26,875.62,33.43
4481380,-0.03,-0.06,1.05,2.08,6.04,2.08,875.65,33.44
4481419,-0.04,-0.06,1.08,2.26,6.41,2.14,875.6,33.42
4481457,-0.04,-0.06,1.09,2.56,6.47,2.26,875.58,33.44
4481495,-0.04,-0.05,1.12,2.44,5.98,2.26,875.51,33.43
4481533,-0.04,-0.05,1.1,2.69,6.35,2.14,875.55,33.42
4481571,-0.04,-0.06,1.09,2.81,5.86,2.5,875.57,33.44
4481609,-0.01,-0.07,1.07,2.87,4.82,2.5,875.6,33.43
4481647,-0.03,-0.07,1.05,2.93,4.09,2.2,875.58,33.43
4481685,-0.01,-0.07,1.0,2.99,4.33,2.26,875.54,33.43
4481735,-0.03,-0.07,0.98,3.05,3.05,2.5,875.5,33.42
4481773,-0.03,-0.08,0.89,2.69,2.75,2.14,875.52,33.42
4481811,-0.04,-0.07,0.89,2.62,1.83,1.89,875.55,33.43
4481849,-0.02,-0.07,0.88,2.5,2.56,1.89,875.53,33.41
4481887,-0.03,-0.07,0.89,2.38,2.81,1.95,875.51,33.43
4481925,-0.04,-0.07,0.92,2.44,3.17,1.89,875.49,33.42
4481964,-0.05,-0.07,0.9,2.5,3.17,1.77,875.47,33.42
4482002,-0.02,-0.07,0.9,2.2,4.39,2.01,875.43,33.41
4482040,-0.03,-0.07,0.85,2.2,4.58,1.77,875.5,33.4
4482078,-0.03,-0.06,0.85,2.01,3.54,1.65,875.45,33.41
4482127,-0.05,-0.07,0.83,2.14,2.81,1.71,875.45,33.39
4482165,-0.05,-0.08,0.87,2.08,4.15,1.83,875.42,33.4
4482204,-0.01,-0.07,0.93,1.77,3.48,1.71,875.38,33.39
4482242,-0.04,-0.06,0.98,1.89,3.05,1.65,875.43,33.39
4482280,-0.05,-0.07,1.02,2.14,4.09,1.71,875.36,33.41
4482318,-0.02,-0.07,1.04,2.32,5.43,1.53,875.38,33.4
4482356,-0.03,-0.06,1.09,2.14,5.37,1.34,875.38,33.41
4482394,-0.04,-0.07,1.0,2.5,6.23,1.46,875.39,33.4
4482432,-0.02,-0.06,1.04,2.69,5.62,1.34,875.37,33.4
4482508,-0.03,-0.06,1.01,3.36,6.23,1.53,875.36,33.37
4482546,-0.05,-0.07,1.0,3.6,7.26,1.22,875.37,33.39
4482584,-0.04,-0.06,1.01,3.66,7.08,1.22,875.32,33.38
4482674,-0.03,-0.06,1.05,3.66,6.41,1.28,875.27,33.36
4482712,-0.04,-0.06,1.05,3.48,6.47,1.16,875.33,33.38
4482750,-0.02,-0.07,0.99,2.87,5.86,1.4,875.28,33.37
4482788,-0.02,-0.06,1.02,2.69,5.13,1.46,875.28,33.4
4482826,-0.02,-0.08,0.92,2.38,4.46,1.4,875.31,33.41
4482864,-0.02,-0.06,0.94,2.2,2.5,1.1,875.28,33.38
4482902,0.0,-0.07,0.96,2.2,2.81,1.04,875.23,33.41
4482952,-0.02,-0.07,0.92,1.71,1.1,0.85,875.26,33.39
4482990,-0.06,-0.07,0.9,1.4,2.5,0.79,875.26,33.38
4483028,-0.03,-0.07,0.9,1.22,1.77,0.61,875.29,33.4
4483066,-0.02,-0.06,0.93,1.16,1.53,0.61,875.2,33.42
4483104,-0.04,-0.07,0.89,0.85,2.56,0.31,875.26,33.4
4483142,-0.05,-0.06,0.93,1.04,3.72,0.31,875.25,33.41
4483180,-0.03,-0.07,0.93,1.28,3.36,0.24,875.26,33.41
4483218,-0.04,-0.06,0.94,1.28,3.78,0.31,875.17,33.4
4483256,-0.06,-0.06,0.92,1.22,4.46,0.24,875.2,33.41
4483294,-0.05,-0.07,0.95,1.89,4.15,0.18,875.22,33.42
4483344,-0.04,-0.07,0.92,2.26,4.52,-0.06,875.12,33.38
4483382,-0.04,-0.06,0.96,2.38,4.21,0.0,875.14,33.42
4483420,-0.02,-0.07,0.94,2.62,5.25,0.24,875.16,33.4
4483458,-0.05,-0.07,0.94,2.81,4.76,0.18,875.13,33.41
4483496,-0.07,-0.07,0.93,3.05,5.49,0.24,875.17,33.4
4483534,-0.03,-0.08,0.93,3.23,4.82,0.12,875.11,33.39
4483572,-0.03,-0.05,0.98,3.23,4.76,0.18,875.08,33.39
4483610,-0.06,-0.06,0.94,3.54,5.13,0.49,875.12,33.41
4483648,-0.05,-0.05,0.99,3.3,3.6,0.24,875.13,33.39
4483698,-0.03,-0.08,0.99,3.11,4.21,0.49,875.09,33.38
4483736,-0.03,-0.07,1.0,2.81,3.48,0.55,875.07,33.39
4483774,-0.04,-0.06,1.01,2.93,4.64,0.43,875.11,33.39
4483812,-0.05,-0.07,0.97,3.3,4.03,0.37,875.04,33.37
4483850,-0.04,-0.05,0.98,3.23,3.91,0.31,875.1,33.41
4483888,-0.03,-0.06,0.95,3.23,4.88,0.49,875.08,33.39
4483926,-0.05,-0.07,0.94,3.48,5.49,0.12,875.0,33.39
4483964,-0.06,-0.07,0.95,3.36,5.43,0.06,875.02,33.39
4484002,-0.04,-0.06,0.98,3.48,5.98,0.31,874.98,33.39
4484041,-0.04,-0.07,0.98,3.3,7.14,0.06,875.03,33.39
4484090,-0.03,-0.06,1.03,3.3,7.51,0.0,874.95,33.39
4484128,-0.05,-0.06,1.03,3.3,7.93,0.06,874.98,33.39
4484166,-0.04,-0.07,1.05,3.17,8.06,0.0,875.04,33.39
4484204,-0.04,-0.06,1.08,3.11,7.87,-0.06,874.99,33.4
4484242,-0.03,-0.06,1.08,3.36,7.2,0.18,874.97,33.38
4484281,-0.04,-0.07,1.04,3.48,7.14,-0.06,874.96,33.39
4484319,-0.03,-0.05,1.06,3.23,6.35,0.12,874.94,33.38
4484357,-0.02,-0.06,1.06,3.42,5.68,0.12,874.97,33.39
4484395,-0.02,-0.07,0.99,3.36,5.0,-0.06,874.93,33.39
4484433,-0.05,-0.06,1.0,3.48,3.48,0.06,874.88,33.4
4484483,-0.02,-0.07,0.96,3.78,2.08,0.37,874.93,33.39
4484521,-0.04,-0.07,0.96,3.36,-0.67,0.12,874.83,33.39
4484559,-0.03,-0.06,0.92,3.23,-0.85,0.18,874.85,33.41
4484597,-0.03,-0.07,0.85,2.99,-1.83,0.18,874.85,33.39
4484635,-0.04,-0.07,0.82,2.87,-2.38,0.18,874.78,33.4
4484673,-0.07,-0.06,0.79,2.5,-2.87,0.31,874.83,33.4
4484711,-0.05,-0.08,0.74,2.26,-1.89,0.43,874.81,33.4
4484749,-0.04,-0.07,0.72,1.95,-2.14,0.06,874.85,33.41
4484788,-0.05,-0.06,0.76,2.26,-1.83,0.24,874.83,33.4
4484837,-0.03,-0.08,0.68,1.59,-1.89,0.18,874.88,33.37
4484875,-0.04,-0.06,0.8,1.77,-1.16,-0.06,874.84,33.38
4484914,-0.05,-0.07,0.82,1.71,0.24,0.18,874.84,33.4
4484952,-0.04,-0.07,0.89,1.77,1.16,0.06,874.84,33.39
4484990,-0.02,-0.08,0.9,1.4,1.04,-0.12,874.87,33.38
4485028,-0.04,-0.06,0.92,1.53,-0.18,-0.18,874.84,33.37
4485066,-0.04,-0.08,0.87,1.22,2.01,0.0,874.85,33.38
4485104,-0.01,-0.06,0.92,1.34,1.22,-0.18,874.84,33.37
4485142,-0.06,-0.05,0.94,1.65,1.53,-0.31,874.87,33.37
4485180,-0.05,-0.08,0.97,2.01,1.59,-0.18,874.85,33.36
4485230,-0.03,-0.08,1.05,1.89,3.36,-0.55,874.8,33.37
4485268,-0.04,-0.07,1.02,1.89,3.91,-0.61,874.79,33.36
4485306,-0.05,-0.06,1.05,2.01,4.64,-0.37,874.8,33.38
4485344,-0.03,-0.05,1.12,2.14,4.39,-0.49,874.75,33.38
4485382,-0.02,-0.05,1.13,2.08,5.0,-0.67,874.73,33.37
4485420,-0.02,-0.05,1.13,1.83,5.37,-0.67,874.81,33.38
4485459,-0.02,-0.06,1.18,1.83,5.19,-0.67,874.76,33.38
4485497,-0.06,-0.07,1.12,1.83,5.86,-0.73,874.77,33.4
4485535,-0.05,-0.05,1.16,1.95,4.88,-0.43,874.78,33.39
4485611,-0.02,-0.07,1.05,2.38,4.52,-0.49,874.78,33.35
4485649,-0.04,-0.05,1.05,2.69,4.52,-0.61,874.79,33.37
4485687,-0.04,-0.07,1.03,2.81,6.16,-0.49,874.77,33.36
