timestamp,acc_x,acc_y,acc_z,rot_x,rot_y,rot_z,qfe,temp,Unnamed: 10
6427543,-0.04,-0.07,0.97,0.92,1.04,1.71,942.65,20.99,
6427581,-0.04,-0.08,0.95,0.31,0.24,1.89,942.72,21.01,
6427619,-0.04,-0.07,1.03,0.73,-1.16,1.89,942.68,21.01,
6427658,-0.04,-0.08,1.04,0.31,-0.24,1.83,942.71,21.01,
6427696,-0.03,-0.07,1.1,0.67,-1.34,2.14,942.75,21.01,
6427734,-0.06,-0.07,1.11,0.73,-0.98,2.14,942.7,21.01,
6427773,-0.04,-0.08,1.1,0.92,-0.37,2.01,942.7,21.01,
6427811,-0.03,-0.07,1.16,1.16,-0.61,2.2,942.78,21.02,
6427849,-0.04,-0.07,1.1,0.98,-0.31,2.26,942.74,21.02,
6427887,-0.05,-0.06,1.1,1.16,-0.49,2.14,942.76,21.02,
6427963,-0.03,-0.07,1.06,1.04,0.55,2.08,942.75,21.0,
6428002,-0.02,-0.08,1.02,0.85,0.31,2.14,942.76,20.99,
6428040,-0.03,-0.08,0.97,0.79,0.37,2.14,942.73,21.01,
6428130,-0.03,-0.08,0.92,0.92,0.92,2.08,942.75,20.96,
6428168,-0.04,-0.08,0.93,0.92,0.43,2.14,942.79,20.98,
6428206,-0.03,-0.09,0.91,0.43,0.73,2.14,942.72,20.98,
6428245,-0.01,-0.07,0.96,0.79,1.16,2.08,942.74,20.99,
6428283,-0.03,-0.08,0.94,0.73,1.89,2.08,942.76,21.0,
6428321,-0.02,-0.08,0.93,1.16,1.16,2.2,942.75,20.99,
6428360,-0.03,-0.08,0.94,0.98,2.32,1.71,942.78,21.0,
6428410,-0.04,-0.09,0.93,1.16,3.05,2.01,942.75,20.99,
6428448,-0.01,-0.08,0.94,1.28,2.69,1.77,942.8,21.01,
6428486,-0.03,-0.08,0.93,1.65,3.66,1.77,942.82,21.01,
6428524,-0.03,-0.08,0.95,2.01,4.39,1.77,942.74,21.0,
6428563,-0.03,-0.08,0.98,2.14,4.46,1.77,942.71,20.99,
6428601,-0.03,-0.08,1.0,2.38,3.97,1.77,942.72,20.99,
6428639,-0.04,-0.09,0.98,2.32,4.7,1.77,942.79,21.01,
6428677,-0.03,-0.08,1.03,2.38,4.46,1.65,942.73,21.01,
6428716,-0.03,-0.07,1.01,2.5,4.33,1.95,942.78,20.99,
6428766,-0.04,-0.08,1.0,2.75,4.09,1.77,942.76,21.0,
6428804,-0.02,-0.08,0.97,2.56,4.82,1.59,942.79,21.01,
6428842,-0.02,-0.08,0.97,2.56,4.76,1.89,942.78,21.01,
6428881,-0.04,-0.08,0.92,2.56,5.13,1.89,942.75,21.01,
6428919,-0.03,-0.08,0.93,2.62,4.82,1.77,942.74,21.01,
6428957,-0.02,-0.08,0.95,2.93,4.64,1.77,942.77,21.0,
6428995,-0.02,-0.08,0.92,2.81,3.97,1.77,942.75,21.01,
6429034,-0.03,-0.08,0.94,2.62,3.05,1.95,942.75,21.01,
6429072,-0.01,-0.08,0.91,2.01,3.17,1.83,942.74,21.01,
6429110,-0.02,-0.08,0.93,1.89,2.32,2.01,942.75,21.01,
6429160,-0.02,-0.08,0.94,1.71,2.32,2.01,942.73,20.99,
6429199,-0.02,-0.08,0.95,1.53,1.16,1.89,942.77,21.01,
6429237,-0.02,-0.09,0.92,1.53,2.14,1.89,942.78,21.02,
6429275,-0.02,-0.08,0.91,1.46,1.77,1.89,942.75,21.0,
6429313,-0.02,-0.07,0.94,1.46,1.89,1.65,942.74,21.01,
6429352,-0.02,-0.08,0.91,1.22,2.75,1.59,942.74,21.01,
6429390,-0.02,-0.08,0.94,1.28,2.75,1.53,942.78,21.02,
6429428,-0.02,-0.08,0.94,0.85,2.93,1.65,942.74,21.0,
6429466,-0.02,-0.08,0.97,1.16,2.81,1.46,942.79,21.01,
6429505,-0.02,-0.08,0.94,0.92,3.3,1.34,942.79,21.01,
6429555,-0.02,-0.08,0.97,1.16,3.78,1.28,942.77,21.0,
6429593,-0.01,-0.08,0.97,1.1,4.27,0.98,942.79,21.0,
6429631,-0.02,-0.08,0.98,1.22,3.78,0.85,942.85,21.01,
6429669,-0.02,-0.08,0.98,1.1,4.33,0.98,942.79,21.0,
6429708,-0.01,-0.08,0.98,1.04,4.15,0.85,942.79,21.01,
6429746,-0.03,-0.07,0.99,1.16,3.42,0.85,942.81,21.01,
6429784,-0.02,-0.08,0.96,1.1,3.72,0.92,942.77,21.01,
6429822,-0.02,-0.08,0.96,1.4,3.36,0.79,942.8,21.01,
6429861,-0.01,-0.08,0.96,1.53,2.87,0.61,942.79,21.01,
6429911,-0.03,-0.08,0.93,1.71,2.81,0.79,942.81,21.01,
6429949,-0.02,-0.08,0.94,1.89,3.11,0.73,942.82,21.0,
6429987,-0.02,-0.08,0.92,1.89,3.36,0.55,942.79,21.01,
6430026,-0.03,-0.08,0.93,1.89,3.66,0.55,942.84,21.02,
6430064,-0.03,-0.09,0.93,1.89,4.7,0.37,942.75,20.99,
6430102,-0.02,-0.09,0.97,1.95,4.58,0.37,942.85,21.01,
6430140,-0.03,-0.08,0.98,1.77,5.31,0.24,942.82,21.01,
6430179,-0.03,-0.08,1.01,1.83,5.31,0.37,942.81,21.01,
6430217,-0.01,-0.08,1.02,1.77,5.25,0.18,942.87,21.0,
6430255,-0.02,-0.07,1.01,2.01,5.19,0.06,942.85,21.01,
6430305,-0.03,-0.08,1.01,2.2,5.86,0.31,942.82,20.99,
6430343,-0.03,-0.07,1.01,2.38,5.49,0.18,942.8,21.01,
6430382,-0.02,-0.08,1.01,2.75,5.98,0.18,942.82,21.02,
6430420,-0.03,-0.08,0.96,2.56,5.49,0.18,942.86,21.01,
6430458,-0.03,-0.08,0.96,2.81,5.25,0.06,942.83,21.02,
6430496,-0.02,-0.08,0.93,2.62,5.13,0.0,942.8,21.01,
6430535,-0.03,-0.08,0.93,2.44,4.64,0.0,942.83,21.02,
6430573,-0.03,-0.08,0.92,2.14,3.97,0.06,942.81,21.02,
6430611,-0.04,-0.08,0.89,1.89,3.17,0.06,942.86,21.02,
6430649,-0.03,-0.08,0.9,1.83,2.32,0.06,942.89,21.03,
6430699,-0.04,-0.08,0.91,1.53,2.26,0.06,942.83,21.01,
6430738,-0.03,-0.08,0.94,1.59,2.14,0.0,942.82,21.02,
6430776,-0.03,-0.08,0.95,1.59,2.2,0.0,942.87,21.01,
6430814,-0.04,-0.08,0.94,1.53,2.01,0.0,942.86,21.02,
6430852,-0.04,-0.08,0.95,1.46,2.26,0.06,942.9,21.03,
6430891,-0.05,-0.08,0.93,1.46,1.83,-0.06,942.89,21.02,
6430929,-0.04,-0.08,0.95,1.53,2.08,-0.06,942.87,21.01,
6430967,-0.03,-0.08,0.97,1.71,2.14,-0.06,942.86,21.03,
6431005,-0.04,-0.08,1.0,1.59,2.14,0.06,942.85,21.02,
6431082,-0.05,-0.08,1.01,1.89,2.5,0.12,942.91,20.99,
6431120,-0.04,-0.08,1.0,2.01,2.69,0.0,942.94,21.0,
6431158,-0.04,-0.07,1.0,2.14,2.62,-0.12,942.9,21.01,
6431248,-0.03,-0.07,0.98,2.38,2.01,-0.12,942.92,20.97,
6431286,-0.04,-0.07,0.98,2.62,1.83,-0.06,942.9,20.99,
6431324,-0.03,-0.08,0.94,2.56,1.89,-0.06,942.87,21.0,
6431363,-0.03,-0.07,0.94,2.56,0.85,0.0,942.95,21.0,
6431401,-0.04,-0.07,0.96,2.62,0.43,-0.06,942.91,21.0,
6431439,-0.03,-0.08,0.95,2.26,0.06,-0.06,942.92,21.0,
6431477,-0.05,-0.07,0.97,2.38,-0.24,-0.12,942.91,21.01,
6431527,-0.04,-0.08,0.97,2.08,0.49,-0.12,942.89,21.0,
6431566,-0.04,-0.08,0.98,1.95,0.06,-0.18,942.92,21.01,
6431604,-0.05,-0.07,1.03,2.2,1.28,-0.24,942.93,21.01,
6431642,-0.04,-0.08,0.99,1.71,2.14,-0.12,942.94,21.0,
6431680,-0.04,-0.07,1.02,1.83,1.59,-0.24,942.92,21.0,
6431719,-0.05,-0.08,0.99,1.89,2.08,-0.24,942.97,21.01,
6431757,-0.05,-0.08,1.0,1.65,2.32,-0.18,942.9,21.0,
6431795,-0.04,-0.08,0.99,1.53,3.11,-0.31,942.98,21.02,
6431833,-0.06,-0.07,0.99,1.28,2.14,-0.06,942.93,21.03,
6431883,-0.06,-0.08,1.0,1.46,2.69,-0.12,942.97,21.01,
6431922,-0.04,-0.07,1.0,1.28,2.44,-0.12,942.94,21.02,
6431960,-0.05,-0.06,1.03,1.4,2.56,0.06,942.95,21.0,
6431998,-0.05,-0.08,0.97,1.4,2.5,0.06,942.95,21.01,
6432036,-0.05,-0.08,0.98,1.28,2.2,0.06,943.0,21.02,
6432075,-0.05,-0.07,0.96,1.22,1.95,0.06,942.94,21.0,
6432113,-0.06,-0.08,0.94,1.16,1.28,0.37,943.0,21.01,
6432151,-0.05,-0.07,0.95,1.16,0.98,0.24,942.98,21.02,
6432190,-0.04,-0.07,0.95,0.98,0.79,0.24,942.98,21.02,
6432228,-0.05,-0.07,0.94,1.04,0.55,0.31,943.01,21.01,
6432278,-0.04,-0.07,0.95,0.98,0.43,0.43,943.01,21.01,
6432316,-0.05,-0.07,0.95,1.04,0.67,0.43,943.03,21.01,
6432354,-0.06,-0.07,0.98,1.28,0.61,0.55,942.99,21.01,
6432392,-0.05,-0.07,0.95,1.22,0.92,0.49,943.05,21.0,
6432431,-0.05,-0.07,0.98,1.53,0.85,0.43,943.1,21.02,
6432469,-0.06,-0.06,0.99,1.89,1.59,0.49,943.06,21.02,
6432507,-0.06,-0.07,0.97,2.32,1.65,0.61,943.04,21.02,
6432545,-0.06,-0.07,0.99,2.38,2.44,0.73,943.13,21.02,
6432584,-0.05,-0.07,0.96,2.75,2.56,0.67,943.08,21.02,
6432634,-0.06,-0.07,0.95,3.05,3.11,0.98,943.11,21.02,
6432672,-0.06,-0.08,0.91,3.11,3.23,0.98,943.08,21.02,
6432710,-0.05,-0.07,0.92,3.36,2.69,0.98,943.05,21.01,
6432748,-0.06,-0.08,0.87,3.17,3.23,1.22,943.13,21.02,
6432787,-0.05,-0.07,0.88,3.3,2.75,1.22,943.07,21.03,
6432825,-0.06,-0.07,0.85,3.05,2.93,1.46,943.09,21.02,
6432863,-0.05,-0.07,0.86,2.75,2.32,1.46,943.13,21.02,
6432902,-0.05,-0.07,0.87,2.69,2.5,1.71,943.07,21.02,
6432940,-0.05,-0.07,0.87,2.5,2.2,1.65,943.13,21.02,
6432978,-0.05,-0.07,0.9,2.44,2.26,1.77,943.13,21.02,
6433028,-0.04,-0.07,0.91,2.32,2.01,1.95,943.13,21.01,
6433066,-0.05,-0.07,0.91,2.26,2.2,2.14,943.15,21.01,
6433105,-0.05,-0.07,0.9,2.26,2.26,2.2,943.19,21.02,
6433143,-0.04,-0.07,0.91,2.44,1.89,2.2,943.19,21.01,
6433181,-0.05,-0.07,0.89,2.44,2.01,2.2,943.2,21.02,
6433220,-0.04,-0.07,0.9,2.32,2.01,2.38,943.22,21.03,
6433258,-0.04,-0.08,0.88,2.44,2.14,2.32,943.19,21.02,
6433296,-0.04,-0.07,0.9,2.44,1.83,2.32,943.21,21.02,
6433334,-0.05,-0.08,0.9,2.32,2.14,2.5,943.18,21.03,
6433373,-0.05,-0.07,0.91,2.44,2.38,2.56,943.24,21.02,
6433423,-0.04,-0.07,0.91,2.01,2.32,2.5,943.2,21.01,
6433461,-0.04,-0.08,0.94,2.2,2.44,2.69,943.25,21.02,
6433499,-0.04,-0.07,0.95,2.08,2.87,2.81,943.25,21.02,
6433538,-0.03,-0.07,0.97,2.2,2.62,2.69,943.25,21.02,
6433576,-0.05,-0.07,0.97,1.77,2.81,2.87,943.28,21.03,
6433614,-0.04,-0.07,0.99,1.95,2.87,2.75,943.36,21.03,
6433652,-0.04,-0.08,0.98,1.95,3.17,2.87,943.31,21.02,
6433691,-0.03,-0.07,1.0,2.26,2.69,2.75,943.33,21.03,
6433729,-0.04,-0.07,0.99,1.95,3.05,2.99,943.36,21.02,
6433779,-0.02,-0.06,0.98,1.95,2.62,2.81,943.36,21.02,
6433817,-0.02,-0.07,0.99,1.71,2.75,2.81,943.33,21.02,
6433856,-0.03,-0.07,0.96,1.53,2.56,2.81,943.36,21.02,
6433894,-0.03,-0.07,0.98,1.59,2.87,2.81,943.39,21.03,
6433932,-0.02,-0.07,0.96,1.4,3.3,2.69,943.4,21.02,
6433970,-0.03,-0.07,0.97,1.28,2.99,2.81,943.37,21.03,
6434009,-0.02,-0.07,0.97,1.22,3.3,2.62,943.38,21.02,
6434047,-0.02,-0.08,0.97,1.22,3.48,2.5,943.42,21.03,
6434085,-0.02,-0.07,1.0,1.22,3.3,2.32,943.44,21.03,
6434123,-0.03,-0.07,1.0,1.22,3.36,2.38,943.45,21.03,
6434199,-0.03,-0.07,1.02,1.28,3.6,2.38,943.51,21.01,
6434238,-0.02,-0.07,1.04,1.04,3.66,2.14,943.5,21.01,
6434276,-0.03,-0.06,1.05,1.16,3.23,2.38,943.46,21.02,
6434366,-0.03,-0.08,1.0,1.16,4.15,2.08,943.49,20.98,
6434404,-0.03,-0.07,1.0,1.22,3.72,2.01,943.48,20.99,
6434442,-0.02,-0.07,0.94,1.1,3.91,2.32,943.48,20.98,
6434481,-0.02,-0.08,0.93,1.28,3.97,1.71,943.53,21.01,
6434519,-0.03,-0.08,0.89,1.46,5.07,1.89,943.5,21.01,
6434557,-0.01,-0.08,0.89,1.53,4.88,1.77,943.53,21.01,
6434595,-0.01,-0.07,0.88,1.59,4.64,1.65,943.5,21.01,
6434645,-0.02,-0.08,0.88,1.65,4.33,1.65,943.55,21.01,
6434684,-0.01,-0.08,0.88,1.22,3.97,1.46,943.56,21.02,
6434722,-0.01,-0.08,0.89,1.28,3.17,1.34,943.54,21.02,
6434760,-0.01,-0.07,0.89,1.34,2.99,1.46,943.53,21.02,
6434798,-0.02,-0.08,0.9,1.28,2.5,1.28,943.6,21.03,
6434837,-0.03,-0.07,0.93,1.22,2.26,1.28,943.61,21.01,
6434875,-0.01,-0.08,0.97,1.04,1.77,1.16,943.58,21.02,
6434913,-0.03,-0.08,0.97,1.1,1.34,1.1,943.63,21.03,
6434952,-0.02,-0.08,1.02,1.34,1.04,1.04,943.65,21.03,
6435002,-0.01,-0.07,0.99,1.16,1.77,0.98,943.62,20.99,
6435040,-0.02,-0.06,1.03,1.46,1.34,0.79,943.64,21.01,
6435078,-0.02,-0.08,1.01,1.4,2.26,0.67,943.69,21.01,
6435116,-0.03,-0.08,1.03,1.4,2.2,0.61,943.73,21.03,
6435155,-0.02,-0.07,1.04,1.46,2.81,0.67,943.68,21.02,
6435193,-0.02,-0.07,1.01,1.71,2.62,0.37,943.69,21.01,
6435231,-0.02,-0.07,1.0,1.89,2.87,0.55,943.7,21.02,
6435270,-0.02,-0.07,0.98,1.83,2.87,0.37,943.7,21.03,
6435308,-0.03,-0.07,0.99,1.89,2.62,0.37,943.69,21.02,
6435346,-0.02,-0.07,1.0,1.71,2.38,0.31,943.76,21.03,
6435396,-0.02,-0.07,1.03,1.71,1.71,0.37,943.67,21.01,
6435434,-0.02,-0.07,1.04,1.71,1.65,0.24,943.75,21.03,
6435473,-0.03,-0.06,1.01,1.65,1.28,0.12,943.78,21.03,
6435511,-0.01,-0.07,1.05,1.95,0.37,0.18,943.8,21.03,
6435549,-0.02,-0.07,1.03,1.95,-0.12,0.24,943.76,21.02,
6435588,-0.04,-0.07,1.01,1.89,0.0,0.12,943.78,21.02,
6435626,-0.01,-0.07,1.04,1.95,0.12,0.18,943.81,21.03,
6435664,-0.02,-0.07,1.05,1.89,-0.18,0.06,943.79,21.02,
6435702,-0.04,-0.07,1.01,2.01,-0.24,0.18,943.76,21.01,
6435741,-0.03,-0.08,1.0,1.89,0.37,0.06,943.81,21.02,
6435791,-0.03,-0.07,0.97,2.01,0.61,-0.12,943.84,21.02,
6435829,-0.03,-0.07,0.99,1.95,0.37,-0.06,943.82,21.01,
6435867,-0.02,-0.08,0.97,1.65,0.98,-0.24,943.88,21.03,
6435906,-0.03,-0.07,0.96,1.83,1.46,-0.31,943.87,21.02,
6435944,-0.03,-0.07,0.98,1.77,1.71,-0.31,943.87,21.02,
6435982,-0.03,-0.07,0.96,1.71,1.71,-0.24,943.89,21.03,
6436020,-0.05,-0.07,0.99,1.89,2.26,-0.31,943.82,21.02,
6436059,-0.04,-0.07,0.99,1.89,3.05,-0.37,943.9,21.03,
6436097,-0.03,-0.07,0.99,1.77,3.17,-0.24,943.88,21.03,
6436147,-0.04,-0.07,1.02,1.71,3.91,-0.31,943.89,21.02,
6436185,-0.05,-0.07,1.01,1.65,4.15,-0.31,943.9,21.01,
6436223,-0.04,-0.06,1.02,1.65,4.46,-0.12,943.94,21.02,
6436262,-0.05,-0.07,1.02,1.89,4.39,-0.18,943.86,21.01,
6436300,-0.04,-0.07,1.02,1.89,4.7,0.0,943.86,21.02,
6436338,-0.04,-0.07,1.03,1.83,5.19,0.0,943.91,21.03,
6436377,-0.05,-0.06,1.05,2.01,5.49,-0.06,943.96,21.04,
6436415,-0.05,-0.07,1.06,1.89,5.74,0.24,943.9,21.02,
6436453,-0.04,-0.07,1.09,1.95,5.13,0.12,943.9,21.03,
6436492,-0.05,-0.06,1.1,2.08,5.25,0.12,944.0,21.04,
6436542,-0.04,-0.07,1.1,1.95,5.31,0.31,944.03,21.02,
6436580,-0.04,-0.06,1.1,2.32,4.15,0.37,943.98,21.03,
6436618,-0.05,-0.08,1.07,2.32,3.72,0.49,943.95,21.03,
6436656,-0.05,-0.08,1.03,2.44,3.42,0.55,944.0,21.03,
6436695,-0.04,-0.07,1.01,2.38,3.05,0.67,944.05,21.02,
6436733,-0.05,-0.07,0.96,2.5,2.62,0.73,944.02,21.03,
6436771,-0.05,-0.07,0.97,2.44,2.14,0.92,943.98,21.03,
6436809,-0.04,-0.08,0.97,2.32,2.08,0.67,944.01,21.04,
6436848,-0.05,-0.07,0.95,2.01,1.4,1.1,944.01,21.03,
6436898,-0.05,-0.07,0.94,1.95,1.22,1.28,943.98,21.01,
6436936,-0.05,-0.07,0.9,1.77,0.92,1.1,944.0,21.02,
6436974,-0.05,-0.07,0.89,1.4,0.55,1.16,944.1,21.02,
6437012,-0.05,-0.07,0.89,1.4,0.55,1.34,944.04,21.03,
6437051,-0.03,-0.07,0.86,1.16,0.55,1.28,944.06,21.03,
6437089,-0.05,-0.07,0.86,0.98,0.49,1.4,944.09,21.03,
6437127,-0.05,-0.08,0.81,0.61,0.67,1.46,944.06,21.03,
6437165,-0.05,-0.08,0.8,0.55,0.73,1.46,944.08,21.05,
6437204,-0.06,-0.07,0.79,0.67,0.92,1.46,944.11,21.03,
6437242,-0.05,-0.07,0.76,0.67,2.2,1.4,944.05,21.03,
6437318,-0.04,-0.07,0.81,1.16,2.32,1.65,944.15,21.01,
6437356,-0.05,-0.07,0.83,1.46,2.32,1.83,944.16,21.02,
6437394,-0.05,-0.08,0.83,1.16,2.93,1.95,944.1,21.0,
6437484,-0.05,-0.07,0.9,1.04,3.85,1.89,944.2,20.99,
6437523,-0.04,-0.07,0.93,1.34,3.78,2.14,944.18,21.0,
6437561,-0.03,-0.06,0.93,1.46,4.21,1.83,944.23,21.01,
6437599,-0.06,-0.07,0.99,1.71,4.27,2.01,944.22,21.01,
6437637,-0.04,-0.08,1.0,1.46,5.31,2.14,944.28,21.02,
6437676,-0.03,-0.07,1.04,1.77,5.31,2.08,944.22,21.01,
6437714,-0.03,-0.07,1.05,1.83,5.8,2.26,944.23,21.02,
6437764,-0.03,-0.06,1.11,2.2,4.64,2.14,944.32,21.01,
6437802,-0.04,-0.07,1.1,2.08,5.13,2.38,944.31,21.01,
6437841,-0.03,-0.05,1.15,2.2,3.6,2.32,944.31,21.01,
6437879,-0.04,-0.06,1.15,2.01,4.03,2.38,944.26,21.02,
6437917,-0.02,-0.06,1.17,2.01,3.48,2.32,944.34,21.02,
6437955,-0.02,-0.06,1.18,1.89,3.48,2.32,944.33,21.02,
6437994,-0.03,-0.07,1.14,1.89,2.93,2.38,944.33,21.02,
6438032,-0.03,-0.07,1.15,2.44,2.01,2.56,944.35,21.03,
6438070,-0.03,-0.06,1.1,2.32,2.14,2.26,944.36,21.03,
6438120,-0.05,-0.07,1.07,2.81,1.16,2.56,944.36,21.02,
6438158,-0.03,-0.08,1.0,2.81,1.4,2.38,944.43,21.02,
6438197,-0.02,-0.06,1.0,2.93,0.98,2.26,944.42,21.03,
6438235,-0.04,-0.07,0.94,2.87,1.34,2.44,944.42,21.02,
6438273,-0.03,-0.07,0.92,2.69,1.34,2.2,944.37,21.01,
6438312,-0.05,-0.08,0.92,2.62,2.08,2.26,944.4,21.03,
6438350,-0.03,-0.08,0.9,2.26,2.14,2.44,944.38,21.02,
6438388,-0.04,-0.07,0.91,2.2,2.5,2.2,944.44,21.03,
6438427,-0.03,-0.07,0.91,1.77,2.99,2.14,944.44,21.03,
6438465,-0.03,-0.08,0.94,1.83,2.87,2.14,944.5,21.03,
6438515,-0.04,-0.08,0.94,1.53,3.66,2.38,944.48,21.01,
6438553,-0.03,-0.07,0.97,1.46,3.97,2.14,944.49,21.03,
6438592,-0.04,-0.07,0.97,1.34,4.21,2.26,944.58,21.03,
6438630,-0.03,-0.08,0.98,1.28,4.09,2.26,944.54,21.03,
6438668,-0.03,-0.08,0.99,1.22,4.03,2.2,944.57,21.03,
6438706,-0.03,-0.07,0.99,1.22,3.6,2.14,944.53,21.02,
6438745,-0.03,-0.07,0.99,1.28,3.17,2.32,944.55,21.03,
6438783,-0.03,-0.07,0.98,1.1,3.05,2.32,944.58,21.03,
6438821,-0.03,-0.07,0.97,1.04,2.93,2.08,944.55,21.03,
6438860,-0.03,-0.08,0.98,1.04,2.87,2.2,944.61,21.04,
6438910,-0.03,-0.07,1.01,0.85,2.87,2.01,944.59,21.03,
6438948,-0.02,-0.07,1.01,0.67,2.93,2.01,944.61,21.02,
6438986,-0.02,-0.07,1.03,0.79,2.99,2.01,944.59,21.03,
6439024,-0.02,-0.08,1.02,0.43,3.23,2.01,944.64,21.03,
6439063,-0.03,-0.07,1.05,0.55,3.11,1.83,944.66,21.03,
6439101,-0.02,-0.07,1.03,0.43,3.11,1.95,944.7,21.03,
6439139,-0.02,-0.07,1.05,0.61,2.62,1.77,944.69,21.02,
6439178,-0.02,-0.07,1.05,0.49,2.75,1.71,944.7,21.03,
6439216,-0.03,-0.06,1.07,0.73,2.08,1.83,944.75,21.03,
6439266,-0.02,-0.07,1.06,0.67,2.5,1.83,944.73,21.02,
6439304,-0.02,-0.06,1.09,0.92,1.83,1.77,944.7,21.02,
6439342,-0.02,-0.07,1.08,0.98,2.01,1.71,944.74,21.02,
6439381,-0.03,-0.06,1.06,1.1,2.08,1.71,944.74,21.03,
6439419,-0.02,-0.08,1.07,1.4,2.2,1.53,944.74,21.02,
6439457,-0.01,-0.07,1.05,1.4,2.38,1.46,944.75,21.03,
6439496,-0.03,-0.06,1.04,1.59,1.95,1.46,944.81,21.04,
6439534,-0.02,-0.07,1.04,1.59,2.26,1.28,944.79,21.04,
6439572,-0.02,-0.07,1.03,1.65,2.2,1.46,944.78,21.03,
6439610,-0.02,-0.07,1.02,1.65,2.38,1.28,944.79,21.03,
6439660,-0.02,-0.07,1.04,1.83,2.69,1.22,944.82,21.02,
6439699,-0.01,-0.08,1.01,1.77,3.23,1.1,944.79,21.02,
6439737,-0.02,-0.07,1.0,2.01,3.23,0.92,944.82,21.02,
6439775,-0.02,-0.07,1.0,2.01,3.6,0.98,944.85,21.03,
6439813,-0.01,-0.08,0.96,2.08,3.48,0.85,944.84,21.03,
6439852,-0.02,-0.07,0.98,2.08,3.05,0.79,944.85,21.03,
6439890,-0.02,-0.07,0.96,1.95,2.87,0.79,944.89,21.03,
6439928,-0.02,-0.07,0.98,2.08,2.69,0.67,944.89,21.04,
6439967,-0.01,-0.07,0.96,1.71,2.75,0.85,944.87,21.04,
6440005,-0.02,-0.07,0.96,1.71,2.44,0.67,944.91,21.04,
6440055,-0.02,-0.08,0.95,1.83,2.93,0.67,944.95,21.03,
6440093,-0.02,-0.08,0.95,1.89,2.81,0.61,944.93,21.04,
6440131,-0.02,-0.07,0.96,1.95,2.99,0.49,944.94,21.03,
6440170,-0.02,-0.08,0.95,2.14,3.36,0.49,944.9,21.02,
6440208,-0.02,-0.07,0.98,2.08,3.11,0.37,944.92,21.02,
6440246,-0.02,-0.07,0.98,2.2,3.3,0.24,944.94,21.03,
6440284,-0.03,-0.08,0.97,2.08,3.48,0.31,944.94,21.03,
6440323,-0.01,-0.07,0.98,2.01,3.85,0.18,945.0,21.05,
6440361,-0.02,-0.08,0.98,1.95,3.85,0.18,944.98,21.03,
6440437,-0.03,-0.07,0.96,2.2,3.72,0.12,944.97,21.01,
6440475,-0.02,-0.07,0.98,2.14,3.54,0.06,944.98,21.01,
6440514,-0.02,-0.08,0.96,2.01,3.23,0.12,945.02,21.02,
6440603,-0.02,-0.08,0.97,2.2,3.3,-0.06,945.0,20.98,
6440642,-0.03,-0.08,0.97,2.26,2.81,-0.12,944.98,21.0,
6440680,-0.02,-0.07,0.98,2.26,3.05,-0.06,945.07,21.02,
6440718,-0.02,-0.07,0.98,2.26,3.05,-0.18,945.03,21.01,
6440757,-0.02,-0.07,0.99,2.26,2.93,-0.18,945.04,21.01,
6440795,-0.03,-0.07,0.99,2.32,2.38,-0.12,945.05,21.02,
6440833,-0.03,-0.07,0.99,2.32,2.56,-0.18,945.08,21.02,
6440883,-0.02,-0.07,0.98,2.26,2.5,-0.43,945.09,21.02,
6440922,-0.03,-0.08,0.97,2.44,2.38,-0.31,945.04,21.01,
6440960,-0.04,-0.08,0.96,2.38,2.32,-0.18,945.07,21.02,
6440998,-0.03,-0.08,0.97,2.01,2.56,-0.31,945.1,21.02,
6441036,-0.03,-0.07,0.97,1.83,2.5,-0.24,945.09,21.03,
6441075,-0.04,-0.07,0.99,1.77,2.01,-0.24,945.05,21.03,
6441113,-0.04,-0.07,1.0,1.77,2.14,-0.24,945.12,21.02,
6441151,-0.02,-0.08,1.0,1.77,1.83,-0.12,945.11,21.02,
6441190,-0.04,-0.07,1.04,1.59,1.46,-0.37,945.1,21.02,
6441239,-0.03,-0.07,1.03,1.46,1.53,-0.18,945.17,21.01,
6441278,-0.03,-0.07,1.06,1.46,1.89,-0.24,945.21,21.03,
6441316,-0.03,-0.07,1.05,1.16,1.83,-0.12,945.17,21.03,
6441354,-0.04,-0.07,1.07,1.34,1.34,-0.12,945.2,21.02,
6441393,-0.05,-0.07,1.08,1.28,1.95,-0.12,945.16,21.02,
6441431,-0.03,-0.07,1.09,1.04,2.26,-0.37,945.26,21.03,
6441469,-0.03,-0.07,1.1,0.92,2.93,-0.24,945.19,21.03,
6441508,-0.05,-0.07,1.08,0.92,3.05,-0.31,945.24,21.03,
6441546,-0.04,-0.07,1.09,1.16,3.6,-0.31,945.22,21.03,
6441584,-0.04,-0.07,1.07,0.73,3.66,-0.31,945.23,21.03,
6441634,-0.04,-0.07,1.06,1.16,3.72,-0.18,945.17,21.01,
6441673,-0.04,-0.07,1.01,1.04,3.6,-0.06,945.28,21.03,
6441711,-0.04,-0.07,1.02,1.34,2.93,-0.12,945.28,21.03,
6441749,-0.04,-0.07,1.01,1.22,3.17,15.5,945.2,21.03,
6441787,-0.04,-0.07,1.01,1.28,3.17,-0.06,945.29,21.04,
6441826,-0.04,-0.08,1.0,1.22,3.23,-0.06,945.28,21.04,
6441864,-0.05,-0.07,1.0,1.22,2.87,0.06,945.31,21.03,
6441902,-0.05,-0.07,1.01,1.34,2.81,0.18,945.29,21.04,
6441940,-0.04,-0.07,1.01,1.46,2.69,0.06,945.3,21.04,
6441990,-0.04,-0.07,1.01,1.4,2.38,0.24,945.3,21.02,
6442029,-0.06,-0.07,1.01,1.34,2.08,0.24,945.28,21.02,
6442067,-0.04,-0.07,1.03,1.65,2.08,0.31,945.32,21.04,
6442105,-0.04,-0.07,1.02,1.4,2.08,0.43,945.32,21.03,
6442143,-0.05,-0.07,1.03,1.53,2.01,0.37,945.34,21.04,
6442182,-0.05,-0.07,1.01,1.71,2.26,0.37,945.33,21.05,
6442220,-0.04,-0.07,1.02,1.71,1.95,0.49,945.34,21.02,
6442258,-0.04,-0.07,1.03,1.77,1.89,0.67,945.38,21.02,
6442296,-0.05,-0.07,1.03,1.71,2.14,0.55,945.34,21.04,
6442335,-0.05,-0.07,1.03,1.71,2.01,0.55,945.32,21.03,
6442385,-0.05,-0.07,1.05,1.95,2.38,0.43,945.32,21.03,
6442423,-0.05,-0.08,1.04,1.83,2.2,0.49,945.31,21.02,
6442461,-0.05,-0.07,1.04,1.77,2.08,0.61,945.35,21.03,
6442499,-0.05,-0.07,1.04,1.77,2.08,0.73,945.35,21.04,
6442538,-0.04,-0.07,1.03,1.83,2.44,0.61,945.38,21.04,
6442576,-0.05,-0.07,1.02,1.77,2.38,0.79,945.35,21.03,
6442614,-0.05,-0.07,1.02,2.01,2.38,0.85,945.44,21.03,
6442652,-0.05,-0.08,1.01,2.08,2.56,0.92,945.41,21.04,
6442691,-0.05,-0.07,1.01,2.32,2.38,0.79,945.39,21.03,
6442729,-0.05,-0.08,1.0,2.32,2.44,0.98,945.38,21.03,
6442779,-0.05,-0.07,0.97,1.95,1.95,0.98,945.38,21.04,
6442817,-0.04,-0.07,0.99,1.83,1.95,1.04,945.44,21.02,
6442855,-0.05,-0.07,0.98,1.71,2.01,1.22,945.42,21.04,
6442894,-0.05,-0.07,0.98,1.71,1.65,1.22,945.43,21.03,
6442932,-0.04,-0.07,0.99,1.83,1.59,1.28,945.49,21.03,
6442970,-0.05,-0.07,0.97,1.77,1.59,1.34,945.39,21.03,
6443009,-0.04,-0.07,0.99,1.95,1.71,1.46,945.47,21.04,
6443047,-0.05,-0.08,0.96,1.95,1.83,1.46,945.5,21.05,
6443085,-0.05,-0.08,0.97,2.08,1.46,1.59,945.45,21.03,
6443135,-0.05,-0.07,0.96,1.83,2.14,1.53,945.49,21.02,
6443174,-0.04,-0.07,0.99,1.65,1.95,1.46,945.48,21.03,
6443212,-0.04,-0.07,1.0,1.53,2.26,1.65,945.49,21.03,
6443250,-0.06,-0.07,1.01,1.77,2.38,1.71,945.5,21.03,
6443289,-0.04,-0.07,1.03,1.53,2.32,1.77,945.48,21.03,
6443327,-0.04,-0.08,1.03,1.65,1.95,1.71,945.51,21.04,
6443365,-0.05,-0.07,1.03,1.71,1.4,1.77,945.51,21.04,
6443403,-0.04,-0.07,1.0,1.65,1.95,1.77,945.54,21.04,
6443442,-0.03,-0.07,0.99,1.83,1.53,1.77,945.53,21.04,
6443480,-0.04,-0.08,0.98,1.89,1.22,2.08,945.52,21.03,
6443556,-0.05,-0.08,0.95,2.01,0.73,2.14,945.59,21.01,
6443594,-0.04,-0.08,0.92,1.89,0.85,2.14,945.55,21.02,
6443633,-0.04,-0.08,0.91,1.65,0.37,2.08,945.6,21.04,
6443797,-0.05,-0.08,0.94,1.4,0.49,2.26,945.58,20.96,
6443835,-0.05,-0.09,0.93,1.34,1.16,2.26,945.65,20.98,
6443873,-0.04,-0.08,0.93,1.34,1.4,2.08,945.64,20.99,
6443912,-0.04,-0.08,0.92,1.46,1.89,2.2,945.62,21.0,
6443950,-0.04,-0.07,0.94,1.46,2.2,2.26,945.66,21.01,
6443988,-0.04,-0.08,0.94,1.34,2.44,2.2,945.6,21.0,
6444026,-0.04,-0.08,0.94,1.34,2.69,2.32,945.65,20.99,
6444076,-0.04,-0.08,0.95,1.28,2.99,2.26,945.65,20.99,
6444115,-0.03,-0.08,0.96,1.46,3.23,2.08,945.67,21.01,
6444153,-0.04,-0.08,0.94,1.53,2.93,2.14,945.7,21.01,
6444191,-0.03,-0.08,0.94,1.65,2.87,2.5,945.7,21.01,
6444230,-0.04,-0.07,0.95,1.65,2.99,2.32,945.73,21.01,
6444268,-0.03,-0.08,0.94,1.53,3.17,2.2,945.71,21.02,
6444306,-0.04,-0.07,0.95,1.83,2.44,2.26,945.68,21.02,
6444344,-0.04,-0.08,0.94,1.77,2.87,2.32,945.76,21.02,
6444383,-0.03,-0.07,0.91,1.77,2.44,2.26,945.74,21.03,
6444433,-0.04,-0.08,0.91,1.95,2.5,2.26,945.68,21.0,
6444471,-0.04,-0.08,0.92,1.77,2.56,2.44,945.78,21.02,
6444509,-0.04,-0.08,0.92,1.77,3.11,2.38,945.76,21.03,
6444548,-0.04,-0.08,0.94,1.83,3.23,2.2,945.75,21.02,
6444586,-0.04,-0.07,0.97,1.89,4.21,2.14,945.78,21.02,
6444624,-0.03,-0.08,1.0,1.65,4.39,2.26,945.8,21.03,
6444662,-0.04,-0.08,1.04,1.53,4.15,2.26,945.81,21.03,
6444701,-0.04,-0.08,1.01,1.46,4.46,2.32,945.79,21.02,
6444739,-0.03,-0.07,1.01,1.34,3.91,2.44,945.89,21.05,
6444777,-0.04,-0.07,1.01,1.34,3.48,2.32,945.84,21.02,
6444827,-0.04,-0.08,0.97,1.16,3.17,2.62,945.81,21.02,
6444865,-0.05,-0.07,1.02,1.4,3.42,2.62,945.83,21.02,
6444904,-0.04,-0.08,1.01,1.22,3.42,2.56,945.8,21.02,
6444942,-0.04,-0.08,1.02,1.4,3.17,2.56,945.88,21.03,
6444980,-0.05,-0.08,1.02,1.53,3.78,2.5,945.89,21.03,
6445019,-0.03,-0.08,1.02,1.4,3.6,2.44,945.89,21.03,
6445057,-0.02,-0.08,1.03,1.4,3.72,2.32,945.88,21.03,
6445095,-0.04,-0.08,1.01,1.53,3.6,2.56,945.85,21.03,
6445133,-0.04,-0.08,1.02,1.46,4.09,2.5,945.92,21.03,
6445172,-0.04,-0.07,1.02,1.65,4.21,2.56,945.95,21.04,
6445222,-0.03,-0.08,1.03,1.4,4.15,2.32,945.93,21.03,
6445260,-0.04,-0.08,1.06,1.59,4.03,2.56,945.97,21.03,
6445298,-0.02,-0.08,1.03,1.53,4.09,2.56,945.97,21.03,
6445337,-0.03,-0.07,1.04,1.59,3.66,2.5,946.01,21.04,
6445375,-0.02,-0.08,1.02,1.83,3.42,2.56,945.96,21.03,
6445413,-0.03,-0.08,1.0,1.65,2.93,2.26,945.96,21.03,
6445451,-0.03,-0.07,1.01,1.65,2.99,2.32,946.0,21.04,
6445490,-0.01,-0.09,1.01,1.77,2.32,2.32,946.03,21.03,
6445528,-0.03,-0.08,0.99,1.59,2.08,2.2,946.04,21.05,
6445578,-0.02,-0.08,1.0,1.71,1.89,2.38,946.07,21.02,
6445616,-0.01,-0.08,0.97,1.34,1.77,2.2,945.98,21.03,
6445654,-0.01,-0.08,0.99,1.53,1.1,2.2,946.05,21.05,
6445693,-0.03,-0.08,0.97,1.4,0.85,2.08,946.09,21.04,
6445731,-0.02,-0.08,1.01,1.46,0.37,1.89,946.1,21.04,
6445769,-0.01,-0.08,1.0,0.92,0.67,1.89,946.09,21.03,
6445808,-0.02,-0.08,1.04,0.92,0.18,1.89,946.07,21.04,
6445846,-0.01,-0.09,1.03,0.73,0.79,1.77,946.08,21.04,
6445884,-0.01,-0.07,1.03,1.1,0.55,1.53,946.09,21.03,
6445922,-0.0,-0.07,1.03,1.1,0.92,1.46,946.08,21.03,
6445972,-0.01,-0.08,1.06,1.34,0.79,1.28,946.18,21.03,
6446011,-0.01,-0.07,1.05,1.53,0.73,1.1,946.15,21.04,
6446049,-0.02,-0.09,1.1,1.59,0.55,1.04,946.2,21.04,
6446087,-0.01,-0.09,1.08,1.4,0.18,1.1,946.19,21.05,
6446125,-0.04,-0.07,1.08,1.4,0.61,0.85,946.18,21.04,
6446164,-0.01,-0.08,1.05,0.92,2.14,0.73,946.22,21.05,
6446202,-0.0,-0.08,1.08,0.98,1.59,0.61,946.18,21.04,
6446240,-0.03,-0.08,1.06,0.92,1.4,0.61,946.16,21.04,
6446278,-0.03,-0.08,1.06,0.98,1.34,0.61,946.19,21.05,
6446317,-0.01,-0.08,1.09,0.79,1.95,0.43,946.15,21.04,
6446367,-0.03,-0.08,1.08,1.16,0.79,0.43,946.23,21.03,
6446405,-0.04,-0.08,1.07,1.1,1.28,0.49,946.17,21.03,
6446443,-0.01,-0.08,1.08,1.28,2.26,0.24,946.2,21.03,
6446482,-0.01,-0.08,1.09,1.46,2.38,0.31,946.19,21.05,
6446520,-0.01,-0.09,1.06,1.28,3.05,0.37,946.21,21.03,
6446558,-0.03,-0.08,1.01,1.4,3.6,0.24,946.21,21.04,
6446596,-0.03,-0.08,1.02,1.1,3.97,0.06,946.23,21.04,
6446635,-0.0,-0.08,1.0,0.98,4.33,0.18,946.26,21.05,
6446673,-0.02,-0.07,1.0,0.98,3.17,0.18,946.26,21.05,
6446749,-0.01,-0.08,0.98,1.16,2.32,0.12,946.23,21.01,
6446787,-0.02,-0.09,0.95,0.98,2.69,0.0,946.17,21.02,
6446825,-0.03,-0.08,0.93,1.04,2.14,0.0,946.19,21.03,
6446915,-0.02,-0.08,0.94,1.04,2.2,-0.12,946.22,21.0,
6446953,-0.03,-0.08,0.95,0.92,2.5,0.0,946.24,21.01,
6446992,-0.03,-0.08,0.94,0.79,2.44,0.0,946.29,21.02,
6447030,-0.04,-0.08,0.96,0.85,2.38,0.0,946.28,21.03,
6447068,-0.05,-0.08,0.95,0.55,2.75,0.18,946.27,21.02,
6447106,-0.05,-0.08,1.0,0.85,2.38,0.12,946.31,21.03,
6447145,-0.04,-0.08,1.01,0.92,2.5,0.12,946.25,21.01,
6447195,-0.05,-0.07,1.01,0.92,2.2,0.24,946.26,21.01,
6447233,-0.04,-0.08,1.01,0.79,2.99,0.31,946.28,21.02,
6447271,-0.05,-0.07,1.02,1.1,2.44,0.37,946.25,21.02,
6447309,-0.05,-0.08,1.0,0.73,2.81,0.55,946.29,21.03,
6447348,-0.05,-0.07,1.01,0.92,2.75,0.49,946.32,21.04,
6447386,-0.04,-0.07,1.02,1.1,3.54,0.61,946.34,21.04,
6447424,-0.04,-0.07,1.04,1.22,3.36,0.73,946.29,21.03,
6447463,-0.05,-0.07,1.03,1.22,3.72,0.73,946.27,21.02,
6447501,-0.05,-0.07,1.01,1.53,4.03,0.85,946.36,21.04,
6447539,-0.04,-0.07,1.02,1.59,4.33,0.79,946.39,21.04,
6447589,-0.05,-0.07,1.0,1.77,4.15,0.98,946.37,21.03,
6447627,-0.05,-0.07,1.01,1.71,4.7,0.98,946.35,21.04,
6447666,-0.05,-0.07,1.03,1.77,4.39,1.04,946.36,21.05,
6447704,-0.04,-0.07,1.06,1.77,4.39,1.22,946.3,21.03,
6447742,-0.05,-0.08,1.04,2.08,4.15,1.4,946.38,21.04,
6447780,-0.05,-0.07,1.05,2.26,4.09,1.53,946.42,21.04,
6447819,-0.05,-0.07,1.01,2.26,4.7,1.65,946.38,21.03,
6447857,-0.04,-0.07,1.01,2.5,4.15,1.89,946.42,21.04,
6447895,-0.05,-0.07,1.0,2.5,4.15,1.95,946.37,21.04,
6447945,-0.05,-0.07,0.96,2.5,4.33,1.95,946.39,21.03,
6447983,-0.04,-0.08,0.95,2.75,4.46,2.14,946.39,21.03,
6448022,-0.04,-0.07,0.94,2.87,4.39,2.32,946.42,21.04,
6448060,-0.04,-0.07,0.94,2.93,4.52,2.26,946.4,21.05,
6448098,-0.05,-0.07,0.93,2.87,4.82,2.2,946.41,21.03,
6448136,-0.03,-0.08,0.95,2.87,4.76,2.44,946.37,21.04,
6448175,-0.04,-0.08,0.96,2.99,4.7,2.38,946.44,21.03,
6448213,-0.04,-0.08,0.95,2.81,4.88,2.5,946.48,21.05,
6448251,-0.04,-0.08,0.98,2.93,4.76,2.44,946.43,21.05,
6448290,-0.04,-0.07,0.98,3.11,4.39,2.62,946.44,21.04,
6448340,-0.04,-0.07,0.99,2.99,3.97,2.69,946.48,21.02,
6448378,-0.03,-0.07,0.98,2.87,3.78,2.75,946.48,21.05,
6448416,-0.03,-0.08,0.98,3.17,3.72,2.69,946.42,21.03,
6448454,-0.03,-0.08,0.96,2.99,3.66,2.75,946.5,21.05,
6448493,-0.03,-0.08,0.96,2.99,3.66,2.75,946.47,21.03,
6448531,-0.03,-0.08,0.94,2.62,3.78,2.81,946.49,21.05,
6448569,-0.03,-0.07,0.94,2.62,3.42,2.5,946.51,21.05,
6448608,-0.03,-0.08,0.92,2.5,3.42,2.75,946.54,21.05,
6448646,-0.03,-0.07,0.93,2.5,2.99,2.62,946.52,21.04,
6448684,-0.03,-0.08,0.93,2.38,3.42,2.56,946.56,21.05,
6448734,-0.03,-0.07,0.93,2.5,2.81,2.5,946.56,21.03,
6448772,-0.02,-0.08,0.93,2.26,3.11,2.62,946.56,21.04,
6448811,-0.02,-0.08,0.93,2.08,2.99,2.44,946.52,21.05,
6448849,-0.03,-0.08,0.93,2.08,2.75,2.5,946.55,21.04,
6448887,-0.02,-0.08,0.93,2.08,2.75,2.44,946.57,21.05,
6448925,-0.02,-0.08,0.94,2.08,2.38,2.38,946.65,21.06,
6448963,-0.03,-0.07,0.94,2.01,2.44,2.2,946.56,21.05,
6449002,-0.02,-0.08,0.94,1.95,2.2,2.2,946.56,21.05,
6449040,-0.03,-0.08,0.93,2.01,1.95,2.26,946.62,21.06,
6449090,-0.02,-0.07,0.95,2.08,1.89,2.14,946.62,21.04,
6449128,-0.02,-0.08,0.94,1.77,2.01,2.01,946.57,21.03,
6449166,-0.02,-0.08,0.95,1.59,1.89,1.95,946.67,21.05,
6449205,-0.02,-0.08,0.96,1.59,1.77,2.08,946.62,21.05,
6449243,-0.02,-0.07,0.97,1.71,1.53,1.83,946.64,21.06,
6449281,-0.02,-0.08,0.97,1.53,1.4,1.83,946.68,21.04,
6449320,-0.02,-0.07,0.97,1.77,1.59,1.71,946.62,21.05,
6449358,-0.02,-0.08,0.95,1.71,1.95,1.65,946.67,21.05,
6449396,-0.01,-0.07,0.95,1.71,1.65,1.59,946.68,21.05,
6449434,-0.02,-0.07,0.93,1.77,1.71,1.59,946.68,21.05,
6449484,-0.02,-0.07,0.93,1.89,1.71,1.46,946.68,21.03,
6449523,-0.02,-0.08,0.93,1.65,1.83,1.22,946.67,21.04,
6449561,-0.03,-0.08,0.92,1.71,1.83,1.34,946.73,21.05,
6449599,-0.02,-0.08,0.94,1.71,2.01,1.1,946.74,21.04,
6449637,-0.02,-0.07,0.93,1.65,2.26,1.16,946.77,21.05,
6449676,-0.02,-0.07,0.95,1.65,2.14,1.1,946.72,21.04,
6449714,-0.02,-0.08,0.95,1.53,2.44,0.85,946.73,21.05,
6449752,-0.02,-0.07,0.97,1.53,2.56,0.98,946.76,21.05,
6449790,-0.02,-0.07,0.97,1.53,2.81,0.85,946.72,21.05,
6449829,-0.02,-0.07,0.98,1.53,2.56,0.73,946.82,21.07,
6449905,-0.02,-0.07,0.99,1.71,2.81,0.55,946.76,21.01,
6449943,-0.02,-0.07,0.98,1.53,3.3,0.61,946.84,21.05,
6449981,-0.02,-0.08,0.99,1.59,2.81,0.49,946.8,21.03,
6450071,-0.02,-0.08,0.98,1.83,2.44,0.43,946.8,21.01,
6450109,-0.03,-0.07,0.97,1.65,2.75,0.55,946.85,21.03,
6450148,-0.03,-0.07,0.97,1.77,2.14,0.55,946.81,21.01,
6450186,-0.03,-0.08,0.98,1.59,1.83,0.49,946.83,21.02,
6450224,-0.03,-0.08,0.96,1.59,1.46,0.49,946.95,21.03,
6450263,-0.03,-0.07,0.97,1.83,1.22,0.31,946.96,21.04,
6450313,-0.03,-0.07,0.89,1.65,1.83,0.43,946.84,21.02,
6450351,-0.03,-0.07,0.88,1.65,1.77,0.43,946.87,21.02,
6450389,-0.03,-0.07,0.88,1.77,1.95,0.55,946.88,21.04,
6450427,-0.03,-0.08,0.88,1.53,1.53,0.43,946.88,21.04,
6450466,-0.02,-0.08,0.91,1.59,2.01,0.43,946.94,21.04,
6450504,-0.03,-0.08,0.91,1.53,2.14,0.37,946.96,21.05,
6450542,-0.02,-0.08,0.93,1.53,2.14,0.31,946.87,21.03,
6450580,-0.03,-0.07,0.92,1.59,1.95,0.12,946.97,21.04,
6450618,-0.03,-0.08,0.93,1.71,2.01,0.31,946.94,21.04,
6450657,-0.02,-0.08,0.92,1.46,2.32,0.18,947.0,21.06,
6450707,-0.03,-0.07,0.93,1.46,2.56,0.12,947.05,21.04,
6450745,-0.03,-0.08,0.93,1.65,2.56,0.18,946.97,21.04,
6450783,-0.03,-0.08,0.96,1.65,2.93,0.06,947.0,21.04,
6450821,-0.02,-0.07,0.98,1.59,3.11,0.0,947.02,21.05,
6450860,-0.03,-0.07,0.99,1.95,3.36,0.0,947.0,21.04,
6450898,-0.04,-0.07,0.97,1.89,3.91,0.06,947.05,21.04,
6450936,-0.0,-0.07,1.0,1.95,4.15,-0.06,947.12,21.05,
6450974,-0.03,-0.07,0.99,1.95,3.97,0.0,947.07,21.05,
6451013,-0.03,-0.07,0.98,2.08,4.27,-0.12,947.07,21.03,
6451051,-0.03,-0.08,0.94,1.95,4.46,0.06,947.06,21.04,
6451101,-0.03,-0.07,0.95,2.14,4.15,0.06,947.11,21.03,
6451139,-0.04,-0.08,0.93,2.01,4.64,-0.06,947.11,21.05,
6451177,-0.04,-0.07,0.94,2.38,4.58,0.0,947.11,21.05,
6451216,-0.03,-0.07,0.94,2.14,4.82,-0.06,947.07,21.04,
6451254,-0.04,-0.07,0.94,2.26,4.88,0.06,947.14,21.05,
6451292,-0.04,-0.07,0.96,2.08,5.07,0.06,947.14,21.05,
6451331,-0.04,-0.07,0.97,1.95,4.94,0.12,947.13,21.05,
6451369,-0.04,-0.07,0.94,1.83,4.88,0.12,947.19,21.04,
6451407,-0.05,-0.07,0.93,1.71,4.58,0.12,947.15,21.06,
6451457,-0.04,-0.07,0.94,1.71,4.21,0.18,947.16,21.05,
6451495,-0.02,-0.08,0.92,1.59,3.6,0.12,947.19,21.05,
6451534,-0.04,-0.07,0.96,1.71,2.62,0.18,947.2,21.06,
6451572,-0.03,-0.08,0.94,1.22,2.2,0.31,947.17,21.05,
6451610,-0.04,-0.07,0.93,1.4,1.22,0.31,947.24,21.05,
6451648,-0.05,-0.06,0.96,1.28,0.79,0.43,947.11,21.05,
6451687,-0.05,-0.07,0.94,1.1,0.67,0.43,947.22,21.05,
6451725,-0.04,-0.07,0.97,1.4,0.67,0.43,947.25,21.05,
6451763,-0.03,-0.07,0.98,1.4,0.73,0.31,947.23,21.05,
6451802,-0.04,-0.07,1.0,1.59,0.49,0.37,947.23,21.04,
6451852,-0.03,-0.06,0.99,1.71,0.67,0.31,947.29,21.05,
6451890,-0.05,-0.07,0.98,1.89,0.49,0.37,947.31,21.04,
6451928,-0.04,-0.07,0.98,2.01,0.61,0.31,947.31,21.04,
6451967,-0.04,-0.07,0.97,2.08,1.1,0.18,947.32,21.04,
6452005,-0.04,-0.07,0.97,2.14,1.28,0.37,947.34,21.06,
6452043,-0.04,-0.07,0.96,2.32,1.71,0.31,947.32,21.06,
6452081,-0.04,-0.06,0.95,2.38,1.95,0.24,947.41,21.05,
6452120,-0.05,-0.07,0.95,2.5,2.56,0.18,947.37,21.06,
6452158,-0.04,-0.07,0.95,2.32,3.11,0.06,947.37,21.05,
6452208,-0.04,-0.07,0.96,2.5,2.69,0.18,947.39,21.04,
6452246,-0.05,-0.07,0.94,2.5,3.36,0.31,947.36,21.04,
6452285,-0.04,-0.06,0.96,2.56,3.23,0.24,947.35,21.04,
6452323,-0.04,-0.07,0.97,2.44,3.36,0.24,947.47,21.05,
6452361,-0.05,-0.07,0.97,2.56,3.72,0.18,947.44,21.05,
6452399,-0.04,-0.06,1.0,2.69,3.6,0.31,947.39,21.05,
6452438,-0.04,-0.07,0.98,2.5,3.6,0.37,947.47,21.06,
6452476,-0.05,-0.07,0.98,2.62,3.48,0.43,947.47,21.05,
6452514,-0.04,-0.07,0.99,2.44,3.48,0.43,947.53,21.05,
6452553,-0.04,-0.07,0.95,2.81,2.87,0.55,947.54,21.06,
6452603,-0.04,-0.07,0.93,3.05,2.26,0.73,947.56,21.06,
6452641,-0.05,-0.07,0.87,2.87,2.08,0.73,947.51,21.05,
6452679,-0.04,-0.07,0.9,2.93,1.34,0.92,947.55,21.05,
6452718,-0.05,-0.07,0.89,2.75,1.71,0.79,947.57,21.06,
6452756,-0.05,-0.07,0.9,2.75,1.59,0.85,947.57,21.06,
6452794,-0.05,-0.07,0.93,2.75,1.95,0.98,947.59,21.06,
6452833,-0.04,-0.07,0.92,2.62,2.14,0.92,947.61,21.06,
6452871,-0.05,-0.07,0.92,2.69,2.01,0.98,947.59,21.05,
6452909,-0.05,-0.07,0.91,2.56,2.38,1.1,947.6,21.05,
6452947,-0.05,-0.07,0.91,2.5,2.56,1.16,947.61,21.06,
6453024,-0.04,-0.06,0.91,2.38,2.56,1.28,947.72,21.03,
6453062,-0.04,-0.07,0.89,2.08,2.99,1.22,947.69,21.05,
6453100,-0.04,-0.07,0.93,2.2,2.69,1.34,947.71,21.04,
6453190,-0.04,-0.07,0.96,1.95,2.32,1.22,947.77,21.02,
6453229,-0.05,-0.07,0.96,1.83,2.5,1.34,947.76,21.03,
6453267,-0.04,-0.07,0.97,1.77,2.44,1.46,947.77,21.02,
6453305,-0.04,-0.07,0.97,1.65,2.08,1.53,947.79,21.04,
6453343,-0.05,-0.06,0.97,1.71,1.59,1.53,947.85,21.04,
6453382,-0.04,-0.07,0.97,1.77,1.83,1.71,947.77,21.04,
6453432,-0.04,-0.07,0.96,1.83,1.53,1.59,947.86,21.03,
6453470,-0.05,-0.07,0.96,1.89,1.34,1.71,947.87,21.03,
6453508,-0.03,-0.07,0.94,1.65,2.01,1.65,947.91,21.05,
6453547,-0.04,-0.07,0.96,1.83,1.71,1.4,947.87,21.04,
6453585,-0.04,-0.07,0.96,1.89,1.65,1.89,947.95,21.05,
6453623,-0.04,-0.07,0.96,1.95,1.65,1.71,947.89,21.05,
6453662,-0.04,-0.07,0.96,1.89,2.14,1.59,947.91,21.05,
6453700,-0.04,-0.07,0.96,1.77,1.77,1.46,947.93,21.05,
6453738,-0.04,-0.07,0.98,1.89,1.83,1.65,947.95,21.05,
6453777,-0.04,-0.07,0.99,1.89,2.14,1.53,947.98,21.06,
6453827,-0.03,-0.07,1.0,2.01,2.38,1.46,947.99,21.05,
6453865,-0.04,-0.07,0.98,2.01,2.08,1.53,947.98,21.04,
6453903,-0.05,-0.07,0.99,1.77,2.14,1.46,947.99,21.04,
6453941,-0.03,-0.07,0.97,1.83,2.14,1.53,948.0,21.05,
6453980,-0.04,-0.07,0.96,1.83,1.95,1.53,948.06,21.04,
6454018,-0.04,-0.07,0.95,1.71,2.2,1.59,948.09,21.05,
6454056,-0.04,-0.07,0.95,1.65,2.01,1.59,948.08,21.05,
6454095,-0.03,-0.07,0.95,1.77,2.01,1.65,948.03,21.04,
6454133,-0.04,-0.07,0.95,1.95,1.89,1.77,948.1,21.05,
6454171,-0.04,-0.07,0.93,1.71,2.44,1.59,948.13,21.05,
6454221,-0.04,-0.06,0.95,1.65,1.95,1.59,948.14,21.04,
6454260,-0.04,-0.07,0.95,1.59,2.38,1.59,948.14,21.05,
6454298,-0.03,-0.07,0.97,1.4,2.01,1.59,948.17,21.05,
6454336,-0.04,-0.08,1.0,1.34,2.5,1.28,948.16,21.06,
6454374,-0.04,-0.07,1.0,1.28,2.38,1.77,948.2,21.06,
6454413,-0.05,-0.06,1.06,1.28,2.01,1.65,948.18,21.05,
6454451,-0.05,-0.07,1.07,1.16,2.93,1.65,948.17,21.05,
6454489,-0.04,-0.07,1.09,1.53,2.62,1.59,948.22,21.05,
6454528,-0.04,-0.07,1.07,1.53,3.11,1.77,948.25,21.06,
6454578,-0.04,-0.06,1.03,1.34,2.81,1.77,948.24,21.05,
6454616,-0.03,-0.07,1.02,1.34,1.89,2.01,948.3,21.06,
6454654,-0.04,-0.09,0.97,1.04,1.1,2.01,948.33,21.05,
6454693,-0.04,-0.06,1.0,1.1,0.31,1.95,948.29,21.05,
6454731,-0.02,-0.07,0.99,0.92,0.31,2.38,948.29,21.04,
6454769,-0.04,-0.07,0.97,0.73,-0.85,2.38,948.34,21.06,
6454808,-0.02,-0.07,1.04,0.73,-0.61,2.26,948.4,21.06,
6454846,-0.04,-0.09,1.02,0.43,0.79,2.2,948.42,21.06,
6454884,-0.02,-0.06,1.09,-0.06,1.16,1.89,948.34,21.06,
6454923,-0.02,-0.04,1.18,-0.43,2.81,1.77,948.32,21.06,
6454973,-0.02,-0.04,1.33,-1.04,5.19,1.59,948.41,21.05,
6455011,-0.04,-0.04,1.46,-1.22,5.07,1.65,948.38,21.05,
6455049,-0.0,-0.03,1.55,-0.79,5.62,1.34,948.42,21.05,
6455088,-0.03,-0.03,1.58,-0.61,5.98,1.53,948.42,21.05,
6455126,-0.0,-0.04,1.59,0.0,6.65,1.4,948.49,21.07,
6455164,-0.01,-0.04,1.53,0.43,6.23,1.28,948.46,21.06,
6455202,-0.03,-0.04,1.46,0.92,6.41,1.34,948.5,21.06,
6455241,-0.01,-0.05,1.37,1.28,6.65,1.34,948.47,21.06,
6455279,-0.02,-0.05,1.35,1.65,6.1,0.85,948.54,21.07,
6455317,-0.02,-0.07,1.26,1.77,7.02,0.98,948.56,21.06,
6455368,-0.01,-0.06,1.3,2.2,5.43,0.79,948.59,21.05,
6455406,-0.02,-0.07,1.21,1.95,6.65,0.61,948.56,21.06,
6455444,-0.01,-0.06,1.23,2.56,5.86,0.49,948.58,21.06,
6455483,-0.02,-0.07,1.17,2.2,6.35,0.37,948.54,21.06,
6455521,-0.02,-0.07,1.15,2.5,5.43,0.49,948.55,21.05,
6455559,-0.02,-0.06,1.13,2.32,5.68,0.24,948.58,21.06,
6455597,-0.01,-0.07,1.13,2.26,4.94,0.12,948.56,21.06,
6455636,-0.02,-0.07,1.12,2.62,4.94,0.0,948.59,21.06,
6455674,-0.05,-0.06,1.1,2.69,4.46,0.18,948.6,21.07,
6455724,-0.02,-0.07,1.09,3.23,3.97,0.12,948.57,21.04,
6455762,-0.03,-0.06,1.08,3.05,1.4,0.12,948.55,21.05,
6455801,-0.05,-0.06,1.07,3.42,1.28,0.18,948.56,21.07,
6455839,-0.03,-0.07,1.05,3.3,1.4,0.24,948.5,21.05,
6455877,-0.04,-0.06,1.06,3.23,1.1,0.06,948.62,21.07,
6455916,-0.04,-0.07,1.01,2.75,1.65,0.12,948.57,21.07,
6455954,-0.06,-0.07,1.01,2.56,1.4,0.18,948.57,21.06,
6455992,-0.04,-0.07,1.0,2.01,1.71,0.24,948.56,21.06,
6456030,-0.03,-0.06,1.01,1.83,1.1,0.06,948.58,21.06,
6456069,-0.03,-0.06,1.04,1.65,0.79,0.31,948.61,21.07,
6456145,-0.05,-0.07,1.02,1.34,0.06,0.31,948.63,21.04,
6456183,-0.04,-0.07,1.02,1.53,0.18,0.31,948.64,21.06,
6456221,-0.05,-0.07,0.97,1.28,0.12,0.24,948.61,21.05,
6456311,-0.03,-0.07,0.94,1.1,0.06,0.12,948.66,21.02,
6456350,-0.04,-0.07,0.97,1.04,-0.49,0.18,948.62,21.04,
6456388,-0.04,-0.07,0.97,0.79,0.18,0.06,948.63,21.05,
6456426,-0.05,-0.06,1.0,1.1,-0.06,0.24,948.62,21.04,
6456464,-0.04,-0.07,1.0,1.04,0.79,0.31,948.64,21.05,
6456503,-0.05,-0.07,0.99,1.28,0.73,0.24,948.62,21.06,
6456541,-0.05,-0.06,0.99,1.34,1.4,0.31,948.69,21.05,
6456591,-0.06,-0.06,0.96,1.28,1.89,0.18,948.68,21.05,
6456629,-0.05,-0.06,0.99,1.4,1.65,0.24,948.67,21.04,
6456668,-0.05,-0.07,0.96,1.46,1.95,0.24,948.64,21.05,
6456706,-0.05,-0.07,0.98,1.59,1.46,0.37,948.62,21.05,
6456744,-0.05,-0.06,0.96,1.59,1.53,0.43,948.69,21.06,
6456782,-0.05,-0.07,0.99,1.65,1.53,0.61,948.68,21.06,
6456821,-0.05,-0.07,0.97,1.53,1.65,0.79,948.66,21.05,
6456859,-0.05,-0.07,1.01,1.46,1.4,0.85,948.67,21.05,
6456897,-0.06,-0.07,1.0,1.28,2.26,1.04,948.66,21.06,
6456947,-0.06,-0.06,1.05,1.46,1.77,1.04,948.73,21.05,
6456986,-0.05,-0.07,1.06,1.77,2.56,0.98,948.66,21.05,
6457024,-0.06,-0.06,1.04,1.89,2.14,1.16,948.73,21.06,
6457062,-0.05,-0.06,1.06,1.95,2.01,1.4,948.71,21.05,
6457101,-0.05,-0.07,1.01,1.89,2.56,1.46,948.68,21.06,
6457139,-0.06,-0.06,1.03,2.08,2.26,1.46,948.72,21.06,
6457177,-0.05,-0.07,1.01,1.89,2.56,1.65,948.72,21.07,
6457216,-0.04,-0.07,1.04,2.08,2.38,1.53,948.69,21.06,
6457254,-0.04,-0.06,1.02,1.77,3.05,1.65,948.78,21.05,
6457292,-0.05,-0.06,1.03,1.83,2.93,1.83,948.75,21.06,
6457342,-0.04,-0.06,1.01,1.65,3.3,1.83,948.74,21.04,
6457381,-0.05,-0.07,1.03,1.89,3.3,1.95,948.69,21.03,
6457419,-0.04,-0.06,1.01,1.59,3.3,2.26,948.74,21.06,
6457457,-0.03,-0.07,1.02,1.59,2.87,2.01,948.77,21.06,
6457495,-0.04,-0.06,1.02,1.4,2.81,2.14,948.75,21.06,
6457534,-0.03,-0.07,1.01,1.28,2.62,2.2,948.76,21.05,
6457572,-0.02,-0.07,0.99,1.16,2.99,2.14,948.78,21.05,
6457610,-0.03,-0.07,1.0,1.34,2.08,2.01,948.76,21.05,
6457649,-0.04,-0.07,1.01,1.28,2.08,2.08,948.76,21.06,
6457687,-0.03,-0.06,1.01,1.46,1.89,2.14,948.83,21.06,
6457737,-0.01,-0.07,1.0,1.71,1.53,1.95,948.82,21.05,
6457775,-0.02,-0.07,0.98,1.65,0.92,2.08,948.79,21.05,
6457813,-0.04,-0.07,0.97,1.77,0.79,2.14,948.8,21.06,
6457852,-0.02,-0.07,0.93,2.01,1.04,2.01,948.84,21.06,
6457890,-0.02,-0.06,0.94,1.89,0.06,2.2,948.81,21.06,
6457928,-0.02,-0.07,0.93,2.26,0.06,2.08,948.83,21.07,
6457966,-0.03,-0.08,0.9,1.89,0.12,2.01,948.81,21.06,
6458005,-0.02,-0.06,0.97,1.95,-0.06,1.89,948.79,21.06,
6458043,-0.01,-0.08,0.96,1.65,0.43,1.89,948.88,21.07,
6458093,-0.02,-0.07,1.05,1.95,-0.67,1.83,948.83,21.05,
6458131,-0.01,-0.07,1.05,1.46,0.43,1.77,948.85,21.06,
6458170,-0.0,-0.06,1.1,1.53,0.24,1.53,948.9,21.07,
6458208,-0.03,-0.06,1.09,1.28,0.98,1.53,948.87,21.07,
6458246,-0.02,-0.07,1.11,1.34,1.4,1.53,948.85,21.06,
6458285,-0.02,-0.08,1.07,1.1,2.75,1.34,948.92,21.07,
6458323,-0.01,-0.07,1.05,1.34,2.87,1.4,948.91,21.07,
6458361,-0.02,-0.07,1.03,1.46,3.3,1.22,948.86,21.07,
6458399,-0.01,-0.07,1.0,1.34,3.3,1.22,948.89,21.08,
6458438,-0.01,-0.06,1.03,1.71,3.42,1.1,948.91,21.06,
6458488,-0.01,-0.07,0.99,1.53,3.42,1.04,948.86,21.05,
6458526,-0.02,-0.07,1.02,1.65,2.75,1.04,948.89,21.06,
6458564,-0.02,-0.07,1.0,1.46,3.36,0.98,948.94,21.07,
6458602,-0.0,-0.07,1.02,1.4,2.5,0.85,948.92,21.07,
6458641,0.0,-0.07,1.01,1.22,2.5,0.92,948.9,21.07,
6458679,-0.01,-0.07,0.99,1.34,2.08,1.04,948.89,21.07,
6458717,-0.0,-0.07,0.96,1.28,2.32,0.79,948.89,21.07,
6458755,-0.0,-0.07,0.93,1.16,2.01,0.85,948.91,21.06,
6458794,-0.01,-0.07,0.9,1.22,1.89,0.85,948.92,21.07,
6458844,-0.01,-0.07,0.88,1.34,2.44,0.67,948.94,21.05,
6458882,0.0,-0.07,0.86,1.46,2.75,0.55,948.94,21.06,
6458920,0.01,-0.07,0.87,1.46,2.87,0.43,948.94,21.07,
6458958,0.01,-0.08,0.87,1.65,2.87,0.24,948.92,21.05,
6458997,0.0,-0.08,0.88,1.34,2.69,0.37,948.94,21.07,
6459035,-0.01,-0.07,0.9,1.59,2.69,0.18,949.0,21.06,
6459073,0.0,-0.08,0.88,1.22,2.81,0.0,948.94,21.06,
6459111,0.0,-0.07,0.92,1.34,2.44,0.0,948.94,21.07,
6459150,-0.0,-0.08,0.87,0.85,3.11,-0.37,948.94,21.06,
6459188,0.01,-0.06,0.95,1.04,2.08,-0.12,948.91,21.06,
6459264,-0.02,-0.06,0.97,1.22,1.16,-0.37,948.91,21.03,
6459302,-0.01,-0.07,1.01,1.28,2.5,-0.37,948.95,21.05,
6459340,0.0,-0.07,1.03,1.4,2.62,-0.61,948.99,21.06,
6459430,-0.02,-0.07,1.03,1.89,2.87,-0.49,949.0,21.02,
6459469,-0.03,-0.07,1.04,2.14,2.81,-0.55,949.05,21.05,
6459507,-0.02,-0.08,1.05,2.14,3.48,-0.61,949.0,21.05,
6459545,0.0,-0.06,1.08,2.56,3.23,-0.79,949.0,21.05,
6459583,0.0,-0.08,1.07,2.5,4.03,-0.85,948.97,21.05,
6459622,-0.02,-0.07,1.06,2.56,2.93,-0.73,948.98,21.05,
6459660,-0.03,-0.09,1.05,2.38,3.91,-0.55,949.0,21.06,
6459710,-0.02,-0.04,1.09,2.62,3.05,-0.79,948.95,21.04,
6459748,-0.03,-0.07,1.06,2.75,3.23,-0.61,949.01,21.05,
6459786,-0.0,-0.08,0.99,2.44,2.62,-0.61,949.03,21.05,
6459825,-0.03,-0.07,1.01,3.36,2.26,-0.79,948.99,21.05,
6459863,-0.03,-0.08,0.88,2.14,3.66,-0.55,948.95,21.05,
6459901,0.0,-0.06,0.97,2.99,1.89,-0.67,949.03,21.06,
6459939,-0.01,-0.08,0.86,2.26,2.2,-0.61,948.94,21.05,
6459978,-0.04,-0.07,0.93,2.44,1.71,-0.49,949.03,21.07,
6460016,-0.02,-0.09,0.92,2.08,1.46,-0.55,948.98,21.06,
6460066,-0.03,-0.07,1.01,1.89,0.18,-0.61,948.96,21.06,
6460104,-0.03,-0.07,1.0,0.98,1.71,-0.37,949.04,21.07,
6460143,-0.04,-0.07,1.08,1.16,2.08,-0.61,948.98,21.06,
6460181,-0.04,-0.08,1.07,0.98,4.03,-0.73,948.99,21.06,
6460219,-0.04,-0.07,1.06,0.85,3.78,-0.79,948.93,21.06,
6460257,-0.05,-0.08,1.04,0.67,5.19,-0.67,949.06,21.06,
6460296,-0.03,-0.07,0.99,0.43,6.23,-0.73,949.03,21.06,
6460334,-0.03,-0.07,0.97,1.04,5.86,-0.37,949.05,21.06,
6460372,-0.04,-0.08,0.89,0.67,5.43,-0.31,949.06,21.07,
6460410,-0.03,-0.08,0.87,1.16,5.62,-0.49,949.05,21.06,
6460460,-0.03,-0.07,0.87,1.22,4.46,-0.18,949.02,21.06,
6460499,-0.05,-0.08,0.91,1.22,4.46,0.0,949.04,21.06,
6460537,-0.04,-0.07,0.91,1.1,3.48,0.06,949.01,21.06,
6460575,-0.04,-0.07,0.96,1.28,2.62,0.12,948.96,21.06,
6460613,-0.05,-0.08,0.9,0.85,3.66,0.24,949.02,21.06,
6460652,-0.05,-0.08,0.92,1.04,3.17,0.24,949.05,21.06,
6460690,-0.05,-0.08,0.91,0.92,3.05,0.37,949.02,21.06,
6460728,-0.03,-0.07,0.89,1.04,2.32,0.43,948.99,21.06,
6460766,-0.05,-0.07,0.88,0.98,2.2,0.43,949.07,21.07,
6460816,-0.06,-0.07,0.91,1.1,2.44,0.79,949.03,21.05,
6460855,-0.05,-0.08,0.93,1.1,2.5,0.79,949.03,21.06,
6460893,-0.05,-0.07,0.94,0.92,2.08,0.79,949.08,21.07,
6460931,-0.04,-0.07,1.0,1.28,1.95,1.04,948.99,21.06,
6460970,-0.05,-0.07,1.0,0.98,2.01,1.1,949.09,21.07,
6461008,-0.04,-0.07,1.02,1.34,1.95,1.28,949.04,21.07,
6461046,-0.05,-0.07,0.99,1.16,1.71,1.46,949.13,21.08,
6461084,-0.07,-0.07,0.98,1.28,1.34,1.65,949.1,21.08,
6461123,-0.05,-0.08,0.97,1.28,2.14,1.71,949.14,21.08,
6461161,-0.06,-0.08,0.97,1.53,2.2,1.65,949.07,21.07,
6461211,-0.06,-0.07,0.98,1.65,3.23,1.77,949.08,21.05,
6461249,-0.05,-0.07,1.01,1.77,3.42,2.01,949.08,21.06,
6461287,-0.05,-0.08,1.01,1.28,3.85,2.2,949.1,21.07,
6461326,-0.06,-0.07,1.04,1.28,4.7,2.32,949.11,21.07,
6461364,-0.06,-0.08,1.06,1.4,5.07,2.32,949.08,21.06,
6461402,-0.04,-0.07,1.06,1.4,4.88,2.44,949.06,21.07,
6461440,-0.05,-0.05,1.07,1.34,4.46,2.56,949.12,21.07,
6461479,-0.04,-0.07,1.08,1.46,4.39,2.81,949.14,21.07,
6461517,-0.05,-0.07,1.04,1.34,4.09,2.99,949.12,21.07,
6461555,-0.05,-0.07,1.03,1.71,3.72,2.99,949.18,21.07,
6461605,-0.05,-0.07,1.0,1.65,3.6,3.11,949.15,21.07,
6461643,-0.03,-0.07,1.0,1.46,3.91,3.11,949.16,21.07,
6461682,-0.04,-0.07,1.01,1.65,3.85,3.17,949.19,21.08,
6461720,-0.05,-0.07,1.0,1.46,4.52,3.42,949.17,21.07,
6461758,-0.05,-0.07,0.98,1.22,5.13,3.42,949.15,21.07,
6461796,-0.05,-0.06,1.0,1.4,5.31,3.36,949.21,21.08,
6461835,-0.02,-0.07,0.99,1.1,5.62,3.42,949.18,21.08,
6461873,-0.05,-0.07,1.03,1.22,5.07,3.42,949.2,21.07,
6461911,-0.03,-0.07,1.07,1.16,5.25,3.66,949.24,21.08,
6461961,-0.03,-0.06,1.1,1.46,4.52,3.48,949.21,21.05,
6461999,-0.01,-0.06,1.14,1.4,3.66,3.54,949.23,21.08,
6462038,-0.03,-0.07,1.1,1.77,3.36,3.66,949.17,21.07,
6462076,-0.02,-0.07,1.09,1.95,2.38,3.72,949.22,21.07,
6462114,-0.02,-0.07,1.11,2.26,0.85,3.66,949.19,21.07,
6462153,-0.03,-0.07,1.08,2.5,-0.12,3.85,949.21,21.07,
6462191,-0.03,-0.07,1.07,2.75,-0.67,3.78,949.17,21.06,
6462229,-0.02,-0.07,1.04,2.75,-0.98,3.6,949.25,21.08,
6462268,-0.03,-0.07,1.0,2.5,-1.1,3.6,949.24,21.08,
6462306,-0.04,-0.07,1.01,2.81,-1.59,3.66,949.25,21.09,
6462382,-0.03,-0.07,0.97,2.32,-1.04,3.6,949.29,21.05,
6462420,-0.02,-0.07,0.97,2.5,-1.04,3.36,949.26,21.06,
6462458,-0.03,-0.07,0.94,2.08,-1.1,3.42,949.29,21.06,
6462548,-0.02,-0.07,0.96,2.01,-0.85,3.17,949.25,21.03,
6462587,-0.03,-0.07,0.97,2.01,-0.37,3.3,949.27,21.03,
6462625,-0.03,-0.07,0.97,1.83,-0.06,3.23,949.26,21.05,
6462663,-0.02,-0.07,0.97,1.77,0.12,3.23,949.25,21.06,
6462701,-0.04,-0.07,0.95,1.46,0.37,3.11,949.25,21.05,
6462740,-0.03,-0.07,0.95,1.53,0.24,3.11,949.29,21.07,
6462790,-0.02,-0.07,0.97,1.46,0.79,3.11,949.31,21.06,
6462828,-0.02,-0.06,0.97,1.16,0.79,3.05,949.3,21.05,
6462866,-0.02,-0.07,1.0,1.28,0.98,3.17,949.28,21.05,
6462904,-0.03,-0.07,0.99,1.1,1.53,2.93,949.31,21.06,
6462943,-0.03,-0.06,1.01,1.28,1.46,3.11,949.29,21.06,
6462981,-0.03,-0.06,1.03,1.4,1.34,3.11,949.29,21.06,
6463019,-0.01,-0.08,1.0,1.22,1.71,2.99,949.31,21.06,
6463057,-0.01,-0.07,1.03,1.04,2.38,2.93,949.3,21.06,
6463096,0.0,-0.07,1.01,1.04,2.81,3.05,949.31,21.07,
6463134,-0.01,-0.06,1.02,1.46,1.95,2.93,949.4,21.07,
6463184,-0.02,-0.07,1.0,1.34,3.23,2.87,949.32,21.05,
6463222,-0.01,-0.06,1.01,1.4,3.42,2.5,949.39,21.07,
6463260,-0.01,-0.07,1.0,1.46,3.54,2.5,949.33,21.06,
6463299,-0.01,-0.07,0.99,1.46,3.48,2.26,949.33,21.06,
6463337,-0.01,-0.07,1.0,1.22,4.39,2.26,949.37,21.08,
6463375,-0.02,-0.07,1.01,1.46,4.15,2.44,949.36,21.06,
6463414,-0.02,-0.07,1.01,1.28,4.39,2.26,949.4,21.08,
6463452,-0.03,-0.07,1.0,1.28,4.76,2.2,949.36,21.07,
6463490,-0.02,-0.06,1.03,1.46,4.27,2.08,949.29,21.07,
6463528,-0.01,-0.07,1.0,1.34,4.46,2.14,949.34,21.07,
6463578,-0.01,-0.06,1.0,1.59,4.21,2.14,949.37,21.06,
6463617,-0.01,-0.07,0.96,1.65,5.0,2.08,949.35,21.05,
6463655,-0.01,-0.07,0.97,1.53,4.27,2.01,949.42,21.07,
6463693,-0.01,-0.06,0.99,1.53,4.39,2.14,949.43,21.07,
6463731,-0.01,-0.08,0.97,1.53,4.52,1.89,949.41,21.07,
6463770,-0.0,-0.07,0.97,1.65,3.91,1.71,949.46,21.08,
6463808,-0.0,-0.07,0.97,1.71,3.66,1.71,949.32,21.06,
6463846,-0.01,-0.08,0.95,1.71,2.93,1.89,949.39,21.08,
6463884,-0.0,-0.07,0.97,1.65,2.87,1.46,949.37,21.07,
6463934,-0.01,-0.07,0.94,1.53,2.38,1.53,949.42,21.06,
6463973,-0.0,-0.07,0.97,1.77,2.56,1.46,949.37,21.06,
6464011,0.0,-0.07,0.95,1.28,2.99,1.22,949.38,21.07,
6464049,0.0,-0.07,1.01,1.71,2.44,0.98,949.43,21.08,
6464088,-0.01,-0.08,0.96,1.16,2.69,1.16,949.41,21.07,
6464126,-0.01,-0.07,0.99,1.53,2.2,0.98,949.45,21.07,
6464164,-0.01,-0.07,0.97,1.22,2.75,0.92,949.43,21.07,
6464202,-0.01,-0.06,1.0,1.53,2.01,0.79,949.48,21.08,
6464241,-0.01,-0.07,1.0,1.4,2.81,0.73,949.47,21.09,
6464279,0.01,-0.07,0.96,0.98,2.56,0.55,949.42,21.07,
6464329,-0.01,-0.07,0.99,1.34,2.69,0.55,949.46,21.07,
6464367,-0.0,-0.08,0.94,1.1,3.3,0.55,949.39,21.07,
6464406,-0.01,-0.07,1.0,1.4,2.44,0.37,949.47,21.07,
6464444,-0.01,-0.08,0.95,0.92,3.11,0.43,949.42,21.08,
6464482,-0.01,-0.07,1.01,1.04,2.99,0.24,949.42,21.07,
6464520,-0.03,-0.06,1.05,0.73,4.64,0.0,949.52,21.08,
6464559,-0.01,-0.06,1.07,1.04,4.46,0.0,949.45,21.08,
6464597,-0.02,-0.07,1.1,1.22,4.58,0.12,949.47,21.07,
6464635,-0.03,-0.07,1.09,1.22,5.07,0.06,949.43,21.07,
6464674,-0.01,-0.06,1.09,1.28,4.94,0.06,949.44,21.07,
6464723,-0.02,-0.06,1.05,1.28,5.25,0.0,949.49,21.08,
6464762,-0.03,-0.06,1.06,1.34,4.88,0.06,949.5,21.07,
6464800,-0.02,-0.07,1.04,1.34,5.43,0.12,949.39,21.08,
6464838,-0.02,-0.07,1.03,1.65,4.7,0.12,949.5,21.07,
6464877,-0.03,-0.06,1.0,1.59,4.46,0.12,949.48,21.07,
6464915,-0.02,-0.07,0.96,1.59,3.48,0.12,949.47,21.07,
6464953,-0.01,-0.07,0.97,1.46,2.99,0.06,949.52,21.07,
6464992,-0.0,-0.07,0.94,1.4,2.69,0.12,949.49,21.08,
6465030,-0.01,-0.07,0.95,1.4,2.01,0.18,949.49,21.07,
6465068,-0.03,-0.07,0.92,1.59,1.95,0.12,949.47,21.09,
6465118,-0.02,-0.07,0.94,1.59,1.28,0.18,949.47,21.07,
6465157,-0.02,-0.07,0.92,1.71,1.59,0.0,949.5,21.07,
6465195,-0.03,-0.07,0.93,1.89,0.98,0.0,949.48,21.08,
6465233,-0.02,-0.07,0.95,1.95,1.04,0.12,949.53,21.08,
6465271,-0.02,-0.07,0.95,1.77,0.61,-0.06,949.48,21.07,
6465310,-0.03,-0.07,0.96,1.77,1.04,-0.12,949.42,21.06,
6465348,-0.02,-0.07,0.94,1.83,1.04,0.0,949.48,21.08,
6465386,-0.03,-0.07,0.98,2.14,0.55,0.0,949.5,21.07,
6465424,-0.03,-0.07,0.95,1.89,0.55,-0.12,949.53,21.08,
6465502,-0.02,-0.06,1.0,1.83,0.49,0.06,949.47,21.04,
6465540,-0.03,-0.07,0.98,1.71,0.18,0.12,949.49,21.05,
6465578,-0.03,-0.07,1.01,1.65,0.0,0.06,949.47,21.06,
6465669,-0.02,-0.07,1.02,1.53,-0.18,0.06,949.53,21.03,
6465707,-0.03,-0.07,1.03,1.71,-0.12,0.12,949.58,21.05,
6465745,-0.03,-0.07,1.01,1.65,-0.12,0.18,949.55,21.05,
6465784,-0.03,-0.06,1.03,1.77,-0.18,0.18,949.53,21.05,
6465822,-0.03,-0.07,1.01,1.59,0.37,0.24,949.5,21.06,
6465860,-0.04,-0.06,1.02,1.83,0.31,0.24,949.54,21.06,
6465898,-0.03,-0.07,1.02,1.89,0.98,0.24,949.5,21.06,
6465948,-0.01,-0.07,1.04,2.01,1.53,0.18,949.59,21.06,
6465987,-0.04,-0.07,1.02,1.95,1.83,0.06,949.6,21.06,
6466025,-0.02,-0.06,1.04,1.89,1.95,0.31,949.54,21.07,
6466063,-0.03,-0.07,1.03,1.77,2.5,0.24,949.5,21.06,
6466102,-0.03,-0.07,1.0,1.77,3.36,0.31,949.55,21.05,
6466140,-0.04,-0.07,1.03,1.89,3.05,0.31,949.61,21.06,
6466178,-0.03,-0.07,1.0,1.77,3.72,0.37,949.56,21.07,
6466217,-0.03,-0.07,1.0,2.01,3.66,0.31,949.54,21.07,
6466255,-0.03,-0.07,0.96,1.83,4.21,0.55,949.58,21.07,
6466305,-0.04,-0.07,0.95,2.08,3.66,0.49,949.6,21.07,
6466343,-0.04,-0.07,0.91,1.77,4.03,0.61,949.55,21.06,
6466381,-0.03,-0.08,0.88,1.89,3.48,0.67,949.54,21.06,
6466420,-0.02,-0.08,0.85,1.89,3.36,0.79,949.53,21.07,
6466458,-0.03,-0.07,0.82,1.83,2.93,0.79,949.57,21.08,
6466496,-0.03,-0.07,0.81,2.01,2.81,0.98,949.58,21.07,
6466535,-0.03,-0.08,0.78,1.77,3.17,0.85,949.53,21.07,
6466573,-0.04,-0.07,0.78,1.95,2.99,0.92,949.56,21.08,
6466611,-0.04,-0.08,0.78,1.59,3.91,0.79,949.58,21.09,
6466650,-0.03,-0.07,0.82,1.34,3.17,0.98,949.55,21.08,
6466700,-0.03,-0.08,0.82,1.16,4.27,0.92,949.6,21.06,
6466738,-0.05,-0.06,0.85,1.1,3.97,1.04,949.62,21.08,
6466776,-0.04,-0.07,0.87,1.04,4.7,1.22,949.58,21.08,
6466815,-0.03,-0.07,0.89,0.98,4.64,1.28,949.53,21.07,
6466853,-0.03,-0.07,0.92,1.1,4.46,1.34,949.63,21.08,
6466891,-0.04,-0.07,0.92,0.92,4.39,1.34,949.55,21.07,
6466929,-0.03,-0.07,0.94,1.04,4.39,1.28,949.64,21.09,
6466968,-0.03,-0.07,0.94,0.79,4.33,1.53,949.6,21.07,
6467006,-0.04,-0.07,0.95,1.1,3.85,1.83,949.63,21.07,
6467044,-0.02,-0.06,0.98,0.79,3.91,1.71,949.62,21.08,
6467094,-0.03,-0.06,0.99,1.1,3.42,1.77,949.66,21.06,
6467133,-0.04,-0.06,1.01,1.28,3.17,1.89,949.63,21.07,
6467171,-0.04,-0.06,1.03,1.28,3.23,1.83,949.63,21.07,
6467209,-0.04,-0.07,1.03,1.34,4.15,1.95,949.65,21.08,
6467248,-0.03,-0.06,1.06,1.46,4.27,1.89,949.65,21.08,
6467286,-0.05,-0.07,1.04,1.59,4.64,1.89,949.66,21.08,
6467324,-0.04,-0.06,1.06,1.65,5.07,2.01,949.69,21.07,
6467362,-0.03,-0.06,1.08,1.59,6.29,1.89,949.7,21.08,
6467401,-0.03,-0.06,1.07,1.34,7.08,1.83,949.72,21.07,
6467451,-0.04,-0.05,1.1,1.4,8.18,1.89,949.7,21.06,
6467489,-0.04,-0.06,1.12,1.59,8.48,1.83,949.7,21.07,
6467527,-0.03,-0.05,1.16,1.77,8.73,1.95,949.63,21.07,
6467566,-0.01,-0.05,1.18,1.59,9.16,1.83,949.72,21.09,
6467604,-0.03,-0.05,1.19,1.65,9.64,1.89,949.7,21.06,
6467642,-0.02,-0.05,1.18,1.34,10.13,1.89,949.7,21.09,
6467681,-0.01,-0.05,1.23,1.71,8.73,1.95,949.68,21.07,
6467719,-0.03,-0.05,1.19,1.4,8.06,1.89,949.67,21.07,
6467757,-0.02,-0.06,1.18,1.95,6.41,2.01,949.71,21.08,
6467796,-0.01,-0.04,1.18,2.14,4.09,2.14,949.75,21.08,
6467846,-0.01,-0.06,1.13,2.56,2.69,2.32,949.75,21.07,
6467884,-0.01,-0.06,1.14,2.32,2.08,2.38,949.72,21.09,
6467923,-0.01,-0.05,1.14,2.14,1.77,2.01,949.73,21.07,
6467961,-0.02,-0.06,1.13,2.2,1.65,1.95,949.77,21.08,
6467999,-0.01,-0.07,1.14,2.2,2.14,2.01,949.74,21.08,
6468037,-0.03,-0.05,1.13,2.44,2.75,1.59,949.75,21.07,
6468076,-0.0,-0.06,1.08,2.62,2.5,1.53,949.73,21.08,
6468114,0.0,-0.07,1.06,2.38,2.32,1.22,949.81,21.09,
6468152,-0.02,-0.07,1.05,2.62,1.83,1.28,949.74,21.08,
6468191,-0.01,-0.07,1.03,2.26,1.28,1.16,949.77,21.08,
6468241,-0.01,-0.07,1.04,2.32,1.22,0.92,949.81,21.07,
6468279,-0.01,-0.07,1.02,2.08,0.73,0.92,949.75,21.09,
6468317,-0.01,-0.07,1.01,2.01,0.67,0.85,949.74,21.08,
6468355,-0.01,-0.08,0.95,1.46,0.61,0.55,949.8,21.07,
6468394,-0.02,-0.07,0.97,1.65,0.55,0.49,949.72,21.07,
6468432,-0.02,-0.07,0.92,1.34,1.28,0.49,949.79,21.09,
6468470,-0.03,-0.07,0.95,1.28,0.92,0.43,949.76,21.09,
6468509,-0.01,-0.07,0.95,0.92,1.46,0.18,949.7,21.08,
6468547,-0.01,-0.06,0.98,1.22,0.79,0.18,949.79,21.08,
6468623,-0.01,-0.07,1.0,0.92,0.92,0.0,949.73,21.05,
6468661,-0.01,-0.07,1.01,1.22,1.04,-0.12,949.84,21.07,
6468699,-0.01,-0.07,1.0,0.73,0.79,-0.18,949.8,21.06,
6468789,-0.02,-0.07,0.96,0.85,2.2,-0.49,949.72,21.02,
6468828,-0.02,-0.06,1.0,0.73,2.32,-0.67,949.74,21.05,
6468866,-0.03,-0.07,0.99,0.55,2.99,-0.73,949.79,21.06,
6468904,-0.01,-0.06,1.08,0.79,3.3,-0.85,949.81,21.06,
6468943,-0.02,-0.06,1.11,0.79,3.23,-0.92,949.76,21.06,
6468981,-0.04,-0.06,1.14,1.1,2.38,-0.85,949.7,21.04,
6469019,-0.04,-0.06,1.16,0.92,2.87,-0.92,949.8,21.07,
6469069,-0.01,-0.05,1.15,1.34,2.69,-1.04,949.75,21.06,
6469108,-0.03,-0.06,1.1,1.59,2.01,-0.67,949.8,21.06,
6469146,-0.04,-0.06,1.07,1.59,1.83,-0.67,949.74,21.06,
6469184,-0.02,-0.06,1.08,1.77,1.71,-0.61,949.71,21.06,
6469222,-0.03,-0.06,1.05,1.59,0.98,-0.61,949.77,21.07,
6469261,-0.03,-0.06,1.07,2.01,1.16,-0.61,949.83,21.06,
6469299,-0.03,-0.07,1.07,1.83,1.53,-0.73,949.71,21.07,
6469337,-0.04,-0.06,1.07,1.83,1.46,-0.61,949.73,21.06,
6469376,-0.05,-0.06,1.13,1.89,1.83,-0.49,949.73,21.08,
6469426,-0.01,-0.05,1.12,1.46,2.93,-0.73,949.74,21.06,
6469464,-0.03,-0.04,1.15,1.83,1.71,-0.61,949.75,21.07,
6469502,-0.03,-0.07,1.15,1.65,2.08,-0.55,949.71,21.08,
6469540,-0.03,-0.07,1.14,1.4,1.28,-0.67,949.69,21.07,
6469579,-0.04,-0.05,1.18,1.65,2.14,-0.67,949.73,21.08,
6469617,-0.05,-0.06,1.08,1.53,2.62,-0.31,949.7,21.07,
6469655,-0.04,-0.05,1.09,2.01,1.89,-0.49,949.73,21.08,
6469694,-0.05,-0.06,1.05,2.08,2.44,-0.37,949.72,21.08,
6469732,-0.04,-0.06,1.01,2.2,1.77,-0.06,949.68,21.09,
6469770,-0.04,-0.07,0.99,1.77,1.71,-0.12,949.71,21.1,
6469820,-0.05,-0.07,0.98,1.65,1.4,0.0,949.75,21.06,
6469859,-0.02,-0.06,0.98,1.46,1.46,0.0,949.7,21.08,
6469897,-0.04,-0.08,0.95,1.71,1.22,0.12,949.7,21.08,
6469935,-0.04,-0.06,0.9,1.04,0.67,0.12,949.78,21.09,
6469973,-0.05,-0.06,0.94,1.34,0.98,0.24,949.67,21.07,
6470012,-0.04,-0.07,0.88,0.98,0.85,0.24,949.72,21.08,
6470050,-0.04,-0.06,0.95,1.34,0.43,0.24,949.68,21.08,
6470088,-0.02,-0.07,0.95,1.1,1.04,0.37,949.72,21.07,
6470127,-0.02,-0.07,0.97,1.34,0.73,0.43,949.69,21.08,
6470177,-0.04,-0.06,0.95,1.04,1.95,0.49,949.72,21.06,
6470215,-0.03,-0.06,0.97,1.53,1.59,0.43,949.72,21.07,
6470253,-0.04,-0.07,0.96,1.34,1.65,0.43,949.77,21.09,
6470291,-0.01,-0.06,0.96,1.53,1.71,0.37,949.7,21.08,
6470330,-0.02,-0.06,0.94,1.34,2.69,0.37,949.75,21.07,
6470368,-0.02,-0.06,0.92,1.46,2.56,0.37,949.73,21.08,
6470406,-0.02,-0.07,0.96,1.59,2.69,0.24,949.75,21.08,
6470445,-0.02,-0.07,0.93,1.59,3.23,0.24,949.7,21.08,
6470483,-0.02,-0.05,1.0,1.71,2.56,0.37,949.7,21.09,
6470521,-0.03,-0.06,1.01,1.77,3.05,0.31,949.74,21.09,
6470571,-0.03,-0.06,1.01,1.83,2.87,0.31,949.71,21.07,
6470610,-0.03,-0.06,1.0,1.89,3.17,0.37,949.7,21.08,
6470648,-0.03,-0.06,1.0,2.14,2.08,0.61,949.64,21.07,
6470686,-0.04,-0.06,0.99,2.2,2.32,0.55,949.7,21.07,
6470724,-0.04,-0.06,0.98,2.2,2.87,0.61,949.63,21.07,
6470763,-0.03,-0.06,0.99,2.38,3.17,0.61,949.72,21.08,
6470801,-0.04,-0.06,0.97,2.44,3.17,0.67,949.64,21.08,
6470839,-0.02,-0.05,1.0,2.62,3.23,0.85,949.66,21.07,
6470878,-0.02,-0.06,0.94,2.2,4.21,0.85,949.67,21.08,
6470916,-0.02,-0.05,0.99,2.5,3.36,0.85,949.63,21.09,
6470966,-0.04,-0.06,0.95,2.2,3.85,0.85,949.68,21.08,
6471004,-0.03,-0.06,0.98,2.38,3.66,0.92,949.66,21.08,
6471042,-0.04,-0.06,0.94,2.14,3.66,0.85,949.69,21.08,
6471081,-0.04,-0.05,0.95,2.38,2.32,1.16,949.67,21.09,
6471119,-0.04,-0.06,0.94,1.89,3.36,1.1,949.64,21.1,
6471157,-0.04,-0.06,0.96,2.2,3.48,1.1,949.68,21.09,
6471196,-0.03,-0.07,0.98,1.95,3.97,1.53,949.59,21.07,
6471234,-0.04,-0.06,0.99,1.89,3.23,1.28,949.62,21.09,
6471272,-0.05,-0.06,1.02,2.26,3.42,1.46,949.63,21.08,
6471322,-0.03,-0.06,1.0,2.14,3.72,1.46,949.69,21.07,
6471361,-0.03,-0.05,1.02,2.38,3.36,1.71,949.69,21.09,
6471399,-0.04,-0.06,0.98,2.2,3.72,1.65,949.68,21.08,
6471437,-0.03,-0.06,1.01,2.69,3.05,1.53,949.67,21.1,
6471476,-0.03,-0.06,1.0,2.5,3.48,1.77,949.66,21.08,
6471514,-0.04,-0.06,1.01,2.69,2.44,1.89,949.65,21.09,
6471552,-0.03,-0.06,1.0,2.56,2.99,1.83,949.62,21.09,
6471591,-0.02,-0.06,0.99,2.5,2.44,1.89,949.61,21.08,
6471629,-0.02,-0.05,0.97,2.5,2.32,1.95,949.63,21.09,
6471667,-0.02,-0.06,0.99,2.69,2.44,1.95,949.58,21.09,
6471743,-0.02,-0.06,0.99,2.69,1.89,1.77,949.66,21.06,
6471782,-0.01,-0.07,0.93,2.38,2.56,1.77,949.6,21.07,
6471820,-0.03,-0.06,0.92,1.89,2.44,1.83,949.63,21.07,
6471910,-0.04,-0.06,0.86,1.77,2.26,1.71,949.57,21.04,
6471948,-0.04,-0.06,0.89,2.08,2.5,1.71,949.6,21.05,
6471986,-0.02,-0.07,0.84,1.28,2.93,1.53,949.58,21.07,
6472025,-0.03,-0.06,0.86,1.59,1.83,1.65,949.56,21.06,
6472063,-0.03,-0.07,0.84,1.28,2.75,1.65,949.58,21.07,
6472101,-0.03,-0.06,0.87,1.16,2.44,1.4,949.61,21.08,
6472140,-0.02,-0.07,0.88,0.98,2.14,1.77,949.6,21.08,
6472190,-0.04,-0.06,0.94,0.85,0.98,1.71,949.6,21.06,
6472228,-0.02,-0.07,0.98,0.79,1.83,1.71,949.55,21.06,
6472266,-0.03,-0.05,0.99,0.31,0.37,1.77,949.61,21.07,
6472305,-0.04,-0.06,1.04,0.85,0.18,1.83,949.56,21.08,
6472343,-0.03,-0.07,1.04,0.73,1.04,1.59,949.65,21.08,
6472381,-0.01,-0.05,1.09,0.92,0.43,1.83,949.66,21.09,
6472420,-0.02,-0.07,1.02,1.16,0.49,1.65,949.56,21.08,
6472458,-0.04,-0.07,0.99,1.46,0.18,1.59,949.6,21.09,
6472496,-0.02,-0.07,0.97,1.59,0.37,1.71,949.61,21.09,
6472546,-0.04,-0.07,0.92,1.65,-1.16,1.65,949.58,21.08,
6472585,-0.03,-0.07,0.93,1.89,-1.04,1.65,949.59,21.08,
6472623,-0.02,-0.08,0.93,1.71,-0.92,1.59,949.54,21.07,
6472661,-0.03,-0.06,0.98,1.65,-1.04,1.65,949.59,21.07,
6472700,-0.04,-0.07,0.98,1.46,-0.49,1.59,949.59,21.08,
6472738,-0.06,-0.07,0.98,1.1,0.06,1.59,949.59,21.08,
6472776,-0.02,-0.07,1.01,1.04,0.73,1.59,949.51,21.07,
6472815,-0.03,-0.06,1.03,0.79,0.98,1.4,949.62,21.09,
6472853,-0.03,-0.06,1.01,0.73,1.71,1.83,949.63,21.08,
6472891,-0.03,-0.06,1.04,0.98,2.32,1.53,949.62,21.09,
6472941,-0.05,-0.07,1.02,0.67,2.69,1.77,949.59,21.07,
6472979,-0.03,-0.07,1.07,0.92,2.08,1.83,949.59,21.08,
6473018,-0.05,-0.06,1.08,0.31,2.99,1.53,949.64,21.1,
6473056,-0.04,-0.05,1.11,0.67,3.17,1.71,949.64,21.09,
6473094,-0.02,-0.07,1.04,0.31,3.78,1.71,949.58,21.09,
6473133,-0.04,-0.06,1.06,0.79,2.99,1.77,949.57,21.08,
6473171,-0.04,-0.07,1.03,0.61,3.97,1.83,949.59,21.09,
6473209,-0.03,-0.06,1.02,0.73,3.6,1.95,949.56,21.1,
6473247,-0.04,-0.06,1.03,0.79,3.3,1.89,949.56,21.09,
6473286,-0.06,-0.06,1.02,0.79,3.11,2.01,949.56,21.09,
6473336,-0.04,-0.06,1.06,1.04,3.3,2.32,949.51,21.09,
6473374,-0.03,-0.06,1.04,1.16,2.32,2.2,949.58,21.08,
6473412,-0.05,-0.05,1.06,1.46,1.83,2.38,949.5,21.09,
6473451,-0.04,-0.06,1.0,1.53,2.87,2.62,949.55,21.08,
6473489,-0.04,-0.05,1.04,1.89,2.08,2.38,949.52,21.08,
6473527,-0.04,-0.05,1.02,1.89,2.26,2.5,949.53,21.09,
6473566,-0.05,-0.05,1.01,2.2,1.77,2.69,949.56,21.1,
6473604,-0.04,-0.06,1.01,2.14,2.75,2.69,949.54,21.1,
6473642,-0.05,-0.05,0.98,2.2,2.44,2.75,949.57,21.1,
6473692,-0.05,-0.06,0.97,2.5,2.81,3.11,949.59,21.08,
6473731,-0.05,-0.06,0.9,2.32,2.5,2.99,949.59,21.09,
6473769,-0.04,-0.06,0.93,2.5,2.75,3.23,949.53,21.09,
6473807,-0.04,-0.06,0.89,2.08,2.81,3.3,949.56,21.1,
6473845,-0.03,-0.06,0.91,2.26,2.38,3.48,949.56,21.08,
6473884,-0.04,-0.06,0.87,1.95,3.3,3.54,949.58,21.09,
6473922,-0.04,-0.06,0.86,1.77,3.05,3.6,949.58,21.11,
6473960,-0.03,-0.06,0.88,1.77,2.87,3.42,949.58,21.08,
6473999,-0.03,-0.06,0.84,1.59,3.72,3.48,949.56,21.09,
6474037,-0.03,-0.06,0.87,1.71,3.6,3.54,949.56,21.09,
6474087,-0.03,-0.06,0.87,1.46,4.15,3.3,949.58,21.07,
6474125,-0.04,-0.05,0.89,1.53,4.33,3.48,949.58,21.09,
6474164,-0.03,-0.06,0.89,1.4,4.88,3.54,949.55,21.09,
6474202,-0.04,-0.05,0.9,1.46,4.39,3.6,949.55,21.09,
6474240,-0.03,-0.06,0.89,1.34,4.46,3.78,949.59,21.09,
6474279,-0.03,-0.05,0.88,1.28,3.66,3.78,949.53,21.08,
6474317,-0.02,-0.06,0.9,1.46,3.6,3.91,949.57,21.09,
6474355,-0.03,-0.06,0.9,1.77,3.42,4.21,949.59,21.09,
6474393,-0.04,-0.06,0.89,1.89,3.23,4.15,949.6,21.09,
6474432,-0.04,-0.05,0.92,1.95,2.26,4.21,949.6,21.11,
6474482,-0.03,-0.06,0.9,1.53,2.93,4.39,949.55,21.09,
6474520,-0.01,-0.06,0.94,1.34,2.44,4.09,949.55,21.09,
6474558,-0.02,-0.06,0.95,1.04,2.99,4.33,949.61,21.1,
6474597,-0.04,-0.05,0.96,1.22,2.69,4.39,949.59,21.09,
6474635,-0.02,-0.05,0.97,1.16,3.54,4.21,949.61,21.09,
6474673,-0.02,-0.05,0.98,1.46,3.54,4.21,949.62,21.09,
6474712,-0.02,-0.06,0.97,1.46,3.6,4.33,949.64,21.09,
6474750,-0.03,-0.05,0.98,1.65,3.91,4.09,949.62,21.1,
6474788,-0.02,-0.06,0.98,2.01,4.27,4.27,949.62,21.1,
6474864,-0.02,-0.05,0.99,2.38,3.78,4.15,949.62,21.06,
6474903,-0.03,-0.06,0.96,2.26,4.03,4.03,949.68,21.07,
6474941,-0.01,-0.05,0.99,2.5,3.23,4.27,949.67,21.09,
6475031,-0.01,-0.05,0.98,2.56,2.5,4.46,949.66,21.05,
6475069,-0.01,-0.05,1.0,2.62,2.2,4.39,949.63,21.04,
6475108,-0.01,-0.06,0.96,2.62,2.08,4.15,949.62,21.06,
6475146,-0.01,-0.05,0.99,2.62,1.65,4.27,949.65,21.08,
6475184,-0.01,-0.05,0.97,2.69,2.01,4.15,949.71,21.08,
6475222,-0.01,-0.05,0.97,2.75,1.46,4.03,949.65,21.08,
6475261,-0.01,-0.05,1.0,2.69,1.59,4.15,949.68,21.08,
6475311,-0.0,-0.05,1.0,2.87,1.59,3.91,949.64,21.07,
6475349,-0.01,-0.05,0.99,2.75,2.01,3.72,949.72,21.07,
6475387,-0.01,-0.05,0.97,2.81,1.95,3.66,949.73,21.08,
6475426,-0.01,-0.05,0.98,2.62,2.32,3.54,949.67,21.08,
6475464,-0.01,-0.05,0.97,2.56,2.62,3.42,949.71,21.08,
