timestamp,acc_x,acc_y,acc_z,rot_x,rot_y,rot_z,qfe,temp
4813535,0.01,-0.07,1.13,2.32,6.84,-0.31,877.58,31.13
4813573,0.01,-0.07,1.15,2.01,7.63,-0.43,877.58,31.12
4813611,-0.01,-0.07,1.1,2.26,8.12,-0.43,877.62,31.13
4813649,-0.0,-0.06,1.16,2.38,8.73,-0.43,877.62,31.13
4813687,0.01,-0.08,1.13,2.2,9.83,-0.55,877.67,31.14
4813725,-0.01,-0.06,1.14,2.2,9.64,-0.79,877.67,31.12
4813775,-0.0,-0.08,1.12,2.44,10.99,-0.67,877.71,31.12
4813813,0.02,-0.08,1.11,2.44,10.8,-0.79,877.77,31.13
4813851,-0.0,-0.07,1.13,2.56,10.25,-0.79,877.74,31.11
4813890,0.01,-0.07,1.07,2.2,9.34,-0.92,877.76,31.11
4813928,-0.01,-0.07,1.07,1.71,8.97,-0.79,877.74,31.13
4813966,0.01,-0.08,1.06,0.98,7.69,-1.04,877.74,31.13
4814004,0.0,-0.08,1.03,0.73,7.93,-1.1,877.81,31.13
4814042,-0.01,-0.08,1.02,0.49,7.45,-1.4,877.87,31.12
4814080,-0.0,-0.09,0.99,0.55,7.51,-1.59,877.88,31.13
4814130,-0.0,-0.07,0.98,-0.06,7.14,-1.53,877.83,31.11
4814168,-0.03,-0.08,1.01,-0.24,6.23,-1.71,877.93,31.12
4814206,-0.02,-0.09,1.0,-0.67,6.23,-1.83,877.95,31.13
4814245,-0.02,-0.08,1.07,-0.79,6.04,-1.77,877.88,31.13
4814283,-0.02,-0.07,1.12,-0.79,6.53,-1.83,877.98,31.12
4814321,-0.03,-0.07,1.15,-0.85,6.1,-1.89,877.97,31.12
4814359,-0.02,-0.07,1.23,-0.73,6.9,-1.95,877.95,31.11
4814397,-0.02,-0.08,1.2,-0.85,7.81,-1.95,878.08,31.12
4814435,-0.03,-0.07,1.25,-0.43,7.51,-1.89,878.02,31.1
4814473,-0.03,-0.07,1.21,0.0,8.24,-1.95,878.05,31.13
4814601,-0.03,-0.07,1.24,0.61,8.18,-2.08,878.11,31.07
4814639,-0.03,-0.08,1.19,0.92,8.48,-1.89,878.13,31.07
4814677,-0.03,-0.07,1.22,0.92,8.18,-2.01,878.1,31.08
4814767,-0.05,-0.08,1.17,1.04,8.3,-2.14,878.1,31.05
4814805,-0.05,-0.08,1.14,1.34,8.0,-1.95,878.12,31.06
4814843,-0.04,-0.07,1.14,1.1,7.26,-2.14,878.11,31.09
4814881,-0.03,-0.07,1.15,0.92,6.9,-2.01,878.12,31.09
4814919,-0.05,-0.08,1.1,1.04,7.2,-1.77,878.16,31.09
4814958,-0.05,-0.07,1.14,1.1,6.23,-1.83,878.18,31.09
4815007,-0.04,-0.08,1.09,1.16,5.8,-1.77,878.15,31.08
4815045,-0.05,-0.06,1.11,0.98,5.55,-1.71,878.22,31.1
4815084,-0.04,-0.08,1.07,0.98,5.55,-1.65,878.19,31.1
4815122,-0.05,-0.08,1.06,1.04,5.49,-1.71,878.23,31.11
4815160,-0.05,-0.08,1.01,1.28,5.68,-1.65,878.19,31.1
4815198,-0.06,-0.08,0.99,1.04,5.74,-1.65,878.31,31.11
4815236,-0.05,-0.07,1.0,1.22,6.77,-1.71,878.24,31.11
4815274,-0.05,-0.08,0.99,1.28,6.71,-1.65,878.25,31.09
4815313,-0.07,-0.07,0.97,0.98,6.96,-1.71,878.24,31.11
4815351,-0.06,-0.08,1.0,0.85,7.08,-1.65,878.33,31.11
4815401,-0.06,-0.07,1.02,0.98,7.14,-1.46,878.21,31.09
4815439,-0.06,-0.07,1.0,0.79,7.02,-1.59,878.27,31.08
4815477,-0.07,-0.07,1.02,0.85,6.84,-1.28,878.29,31.09
4815515,-0.07,-0.08,1.03,0.92,6.1,-1.04,878.34,31.1
4815553,-0.07,-0.07,1.04,0.92,6.16,-1.1,878.31,31.08
4815591,-0.09,-0.06,1.05,1.22,5.31,-0.98,878.3,31.08
4815630,-0.09,-0.08,1.04,1.4,5.13,-0.67,878.34,31.09
4815668,-0.06,-0.07,1.05,1.34,5.68,-0.67,878.31,31.08
4815706,-0.08,-0.08,1.02,1.28,5.07,-0.55,878.38,31.1
4815756,-0.06,-0.07,1.0,1.4,5.07,-0.43,878.37,31.09
4815794,-0.06,-0.07,1.0,1.28,5.13,-0.37,878.35,31.08
4815832,-0.06,-0.07,1.0,1.46,4.46,-0.37,878.41,31.1
4815870,-0.06,-0.08,1.0,1.28,4.15,-0.24,878.37,31.1
4815908,-0.06,-0.08,1.04,1.16,3.97,-0.18,878.37,31.09
4815947,-0.05,-0.08,1.01,1.34,4.15,-0.06,878.36,31.08
4815985,-0.05,-0.06,1.04,1.34,2.87,0.06,878.46,31.1
4816023,-0.06,-0.07,1.04,1.28,3.6,0.12,878.43,31.1
4816061,-0.06,-0.07,1.02,1.1,3.48,0.0,878.42,31.1
4816099,-0.06,-0.07,1.05,0.98,3.78,0.18,878.44,31.09
4816149,-0.06,-0.07,1.03,0.92,3.42,0.18,878.46,31.08
4816187,-0.05,-0.07,1.06,0.85,3.66,0.31,878.43,31.08
4816225,-0.05,-0.07,1.06,0.92,3.42,0.12,878.47,31.08
4816263,-0.05,-0.08,1.1,1.04,3.42,0.31,878.43,31.08
4816302,-0.07,-0.07,1.09,1.28,3.11,0.37,878.44,31.09
4816340,-0.06,-0.07,1.11,1.22,2.99,0.43,878.48,31.08
4816378,-0.05,-0.07,1.09,1.16,3.05,0.31,878.53,31.07
4816416,-0.05,-0.07,1.1,1.28,2.81,0.55,878.51,31.08
4816454,-0.07,-0.07,1.09,1.53,3.42,0.61,878.49,31.08
4816504,-0.06,-0.07,1.09,1.77,3.17,0.67,878.45,31.05
4816542,-0.06,-0.07,1.05,1.83,3.11,0.61,878.52,31.06
4816580,-0.06,-0.07,1.04,1.83,2.99,0.67,878.54,31.06
4816618,-0.06,-0.07,1.05,1.83,2.93,0.55,878.56,31.06
4816656,-0.05,-0.07,1.02,1.77,2.87,0.79,878.55,31.06
4816695,-0.05,-0.07,1.04,1.83,2.69,0.73,878.52,31.06
4816733,-0.05,-0.07,1.01,1.83,3.23,0.67,878.6,31.06
4816771,-0.04,-0.07,1.02,1.65,3.05,0.73,878.61,31.07
4816809,-0.05,-0.07,1.01,1.71,2.99,0.61,878.57,31.05
4816847,-0.05,-0.08,1.01,1.83,2.87,0.67,878.6,31.08
4816897,-0.04,-0.08,1.0,1.89,2.99,0.61,878.58,31.06
4816935,-0.04,-0.07,1.04,1.95,2.87,0.79,878.65,31.07
4816973,-0.04,-0.08,0.99,1.83,3.72,0.67,878.58,31.06
4817011,-0.04,-0.07,1.04,1.71,3.05,0.55,878.65,31.06
4817050,-0.03,-0.08,1.0,2.01,3.17,0.43,878.63,31.06
4817088,-0.04,-0.07,1.02,2.01,3.05,0.31,878.66,31.06
4817126,-0.04,-0.07,0.99,2.08,3.72,0.43,878.69,31.07
4817164,-0.03,-0.08,0.99,2.2,3.42,0.18,878.69,31.06
4817202,-0.04,-0.08,1.01,2.26,3.42,0.12,878.67,31.06
4817240,-0.04,-0.08,1.0,2.26,3.48,0.18,878.71,31.08
4817290,-0.03,-0.07,1.0,2.2,3.6,-0.12,878.68,31.06
4817328,-0.05,-0.08,0.99,2.08,3.42,-0.12,878.7,31.08
4817367,-0.05,-0.08,0.98,2.2,3.42,-0.12,878.71,31.08
4817405,-0.04,-0.08,1.0,2.01,3.91,-0.24,878.74,31.08
4817443,-0.04,-0.08,0.99,1.89,4.03,-0.31,878.72,31.07
4817481,-0.05,-0.08,0.97,1.77,3.72,-0.18,878.68,31.08
4817519,-0.05,-0.08,0.99,1.77,4.27,-0.24,878.69,31.08
4817557,-0.04,-0.08,1.01,1.65,3.97,-0.37,878.74,31.08
4817595,-0.03,-0.08,1.02,1.77,4.15,-0.31,878.74,31.08
4817671,-0.04,-0.08,1.04,1.65,4.09,-0.31,878.76,31.04
4817709,-0.03,-0.07,1.07,1.71,3.78,-0.31,878.74,31.06
4817748,-0.05,-0.08,1.05,1.59,4.03,-0.24,878.74,31.06
4817912,-0.04,-0.07,1.04,1.28,4.09,-0.49,878.79,30.99
4817950,-0.05,-0.07,1.07,1.4,3.42,-0.43,878.84,31.01
4817988,-0.06,-0.07,1.07,1.4,3.85,-0.55,878.81,31.02
4818026,-0.05,-0.07,1.05,1.28,3.36,-0.49,878.77,31.01
4818064,-0.04,-0.07,1.07,1.28,3.72,-0.49,878.77,31.02
4818102,-0.04,-0.07,1.04,1.34,3.48,-0.61,878.83,31.02
4818140,-0.06,-0.08,1.07,1.4,3.23,-0.49,878.81,31.03
4818190,-0.06,-0.08,1.05,1.53,4.09,-0.49,878.86,31.03
4818228,-0.05,-0.08,1.03,1.65,3.42,-0.43,878.81,31.04
4818266,-0.05,-0.08,1.01,1.65,2.75,-0.37,878.82,31.04
4818305,-0.06,-0.08,0.98,1.65,3.05,-0.37,878.79,31.03
4818343,-0.04,-0.08,0.97,1.71,2.87,-0.43,878.84,31.04
4818381,-0.05,-0.07,0.97,1.71,2.44,-0.37,878.83,31.04
4818419,-0.05,-0.08,0.94,1.71,2.2,-0.24,878.86,31.05
4818457,-0.07,-0.07,0.94,1.46,2.56,-0.24,878.87,31.06
4818495,-0.06,-0.08,0.93,1.4,2.87,-0.43,878.86,31.06
4818545,-0.05,-0.07,0.94,1.59,2.87,-0.31,878.83,31.04
4818583,-0.06,-0.07,0.94,1.4,3.17,-0.31,878.85,31.05
4818621,-0.04,-0.08,0.94,1.22,4.21,-0.24,878.85,31.04
4818660,-0.04,-0.07,0.95,1.16,3.78,-0.31,878.85,31.05
4818698,-0.05,-0.08,0.97,1.1,4.46,-0.18,878.82,31.05
4818736,-0.06,-0.08,0.96,1.16,4.46,-0.31,878.91,31.05
4818774,-0.04,-0.07,0.97,1.04,4.94,-0.18,878.9,31.05
4818812,-0.03,-0.07,0.99,1.34,3.91,-0.18,878.91,31.05
4818850,-0.04,-0.07,1.01,1.22,3.6,-0.24,878.94,31.05
4818900,-0.04,-0.07,0.98,1.16,3.6,-0.06,878.98,31.04
4818938,-0.04,-0.07,1.03,1.22,2.99,-0.18,878.92,31.06
4818976,-0.04,-0.08,1.02,1.46,3.17,-0.06,878.95,31.06
4819015,-0.05,-0.07,1.02,1.28,2.38,-0.12,878.94,31.06
4819053,-0.04,-0.07,1.03,1.34,3.11,-0.06,878.98,31.06
4819091,-0.03,-0.08,1.04,1.34,2.75,-0.12,878.98,31.06
4819129,-0.05,-0.08,1.04,1.22,2.75,-0.18,878.98,31.05
4819167,-0.05,-0.08,1.03,1.4,2.75,-0.24,878.99,31.06
4819206,-0.04,-0.08,1.04,1.28,2.99,-0.12,878.98,31.06
4819244,-0.03,-0.07,1.03,1.22,3.17,-0.37,878.99,31.07
4819294,-0.05,-0.07,1.05,1.4,3.36,-0.31,878.97,31.06
4819332,-0.02,-0.08,1.05,1.34,3.3,-0.55,879.01,31.07
4819370,-0.04,-0.07,1.07,1.28,3.36,-0.37,878.99,31.06
4819408,-0.04,-0.07,1.08,1.4,3.48,-0.49,878.94,31.07
4819446,-0.04,-0.08,1.09,1.28,3.48,-0.61,878.98,31.05
4819484,-0.04,-0.07,1.08,1.34,3.3,-0.55,878.96,31.07
4819522,-0.03,-0.07,1.1,1.16,3.11,-0.49,879.0,31.07
4819561,-0.04,-0.08,1.07,1.34,3.48,-0.61,879.04,31.06
4819599,-0.02,-0.07,1.1,1.28,3.05,-0.55,879.02,31.06
4819648,-0.04,-0.07,1.05,1.4,3.36,-0.79,879.03,31.05
4819687,-0.04,-0.06,1.08,1.46,3.05,-0.79,879.0,31.05
4819725,-0.03,-0.07,1.05,1.65,3.72,-0.73,879.02,31.06
4819763,-0.04,-0.07,1.05,1.46,3.48,-0.98,879.05,31.05
4819801,-0.04,-0.07,1.05,1.53,3.23,-0.85,879.02,31.06
4819839,-0.04,-0.07,1.02,1.71,3.36,-0.98,879.01,31.06
4819878,-0.03,-0.07,1.02,1.59,3.66,-0.98,879.02,31.05
4819916,-0.04,-0.07,1.01,1.77,3.6,-0.98,879.03,31.06
4819954,-0.04,-0.08,0.99,1.77,3.85,-0.85,879.11,31.07
4819992,-0.05,-0.08,0.98,1.89,3.97,-0.92,879.04,31.06
4820042,-0.05,-0.07,1.0,1.95,3.66,-0.85,879.1,31.06
4820080,-0.04,-0.07,0.98,2.01,3.97,-0.85,879.05,31.06
4820118,-0.05,-0.07,0.98,1.77,3.48,-0.73,879.03,31.05
4820156,-0.04,-0.08,0.99,2.08,3.78,-0.92,879.05,31.06
4820194,-0.04,-0.08,0.97,1.83,3.54,-0.73,879.09,31.07
4820232,-0.05,-0.07,0.98,1.77,3.66,-0.79,879.09,31.06
4820271,-0.05,-0.08,0.97,1.83,3.42,-0.79,879.03,31.06
4820309,-0.05,-0.07,0.98,1.65,3.11,-0.67,879.06,31.07
4820347,-0.05,-0.08,0.96,1.83,3.36,-0.73,879.13,31.07
4820397,-0.04,-0.07,0.96,1.89,3.48,-0.61,879.14,31.06
4820435,-0.05,-0.07,0.98,2.01,3.05,-0.61,879.05,31.05
4820473,-0.06,-0.08,0.97,2.01,2.93,-0.55,879.06,31.06
4820511,-0.06,-0.07,0.97,2.01,3.11,-0.55,879.1,31.06
4820549,-0.06,-0.08,0.97,2.08,3.05,-0.43,879.13,31.07
4820588,-0.06,-0.07,0.95,1.89,3.23,-0.43,879.07,31.06
4820626,-0.06,-0.08,0.95,1.89,3.11,-0.49,879.12,31.07
4820664,-0.05,-0.07,0.95,2.01,3.48,-0.43,879.07,31.05
4820702,-0.05,-0.07,0.98,2.08,3.23,-0.37,879.1,31.06
4820740,-0.05,-0.07,0.98,2.38,3.17,-0.31,879.15,31.06
4820816,-0.05,-0.07,1.0,2.62,2.87,-0.18,879.13,31.03
4820854,-0.05,-0.08,1.01,2.5,2.75,-0.31,879.07,31.04
4820892,-0.05,-0.08,0.99,2.38,2.87,-0.18,879.13,31.03
4820982,-0.06,-0.08,0.96,2.56,2.75,-0.12,879.12,31.0
4821020,-0.07,-0.07,0.98,2.56,2.38,-0.18,879.17,31.01
4821058,-0.05,-0.07,0.94,2.62,2.81,-0.12,879.08,31.01
4821096,-0.06,-0.07,0.96,2.56,2.87,0.0,879.1,31.01
4821134,-0.05,-0.08,0.95,2.62,2.69,-0.18,879.1,31.01
4821172,-0.07,-0.07,0.93,2.32,2.5,0.0,879.13,31.02
4821222,-0.06,-0.07,0.91,2.44,3.23,0.06,879.09,31.02
4821260,-0.05,-0.07,0.93,2.44,2.56,0.12,879.11,31.04
4821298,-0.06,-0.07,0.95,2.2,2.38,0.06,879.12,31.01
4821336,-0.07,-0.07,0.94,2.32,1.4,0.31,879.14,31.04
4821375,-0.06,-0.07,0.96,2.08,1.53,0.24,879.1,31.03
4821413,-0.06,-0.07,0.97,1.83,0.67,0.49,879.08,31.03
4821451,-0.06,-0.06,1.0,1.71,0.49,0.55,879.14,31.04
4821489,-0.05,-0.08,0.96,1.65,0.61,0.55,879.13,31.04
4821527,-0.06,-0.06,0.97,1.46,0.12,0.67,879.11,31.03
4821565,-0.07,-0.06,0.97,1.59,0.67,0.85,879.13,31.03
4821615,-0.06,-0.07,0.92,1.22,0.24,0.73,879.18,31.02
4821653,-0.06,-0.06,0.93,1.53,0.98,0.79,879.15,31.02
4821691,-0.06,-0.07,0.91,1.65,0.67,0.85,879.2,31.03
4821729,-0.06,-0.06,0.9,1.59,1.22,1.1,879.21,31.05
4821767,-0.07,-0.07,0.89,1.83,1.83,1.04,879.23,31.05
4821806,-0.05,-0.07,0.9,1.53,1.53,1.22,879.25,31.06
4821844,-0.06,-0.06,0.91,1.59,1.53,1.04,879.22,31.05
4821882,-0.07,-0.07,0.9,1.65,1.77,1.34,879.19,31.04
4821920,-0.05,-0.07,0.93,1.34,1.28,1.28,879.16,31.06
4821958,-0.05,-0.07,0.93,1.46,1.34,1.28,879.26,31.06
4822008,-0.05,-0.07,0.95,1.59,1.59,1.46,879.21,31.03
4822046,-0.06,-0.07,0.92,1.59,1.77,1.53,879.24,31.05
4822084,-0.06,-0.06,0.95,1.77,1.53,1.4,879.3,31.04
4822122,-0.06,-0.07,0.9,1.77,2.38,1.53,879.28,31.06
4822160,-0.06,-0.06,0.94,2.2,2.32,1.59,879.24,31.04
4822199,-0.06,-0.07,0.92,2.69,3.72,1.59,879.26,31.05
4822237,-0.06,-0.07,0.95,2.5,3.72,1.59,879.28,31.04
4822275,-0.06,-0.06,0.98,2.81,4.52,1.4,879.3,31.04
4822313,-0.06,-0.07,0.97,2.93,5.13,1.65,879.27,31.05
4822363,-0.07,-0.06,0.99,3.17,5.19,1.71,879.3,31.04
4822401,-0.06,-0.07,0.97,3.17,6.16,1.71,879.29,31.05
4822439,-0.05,-0.06,1.0,2.99,5.31,1.77,879.29,31.07
4822477,-0.06,-0.06,1.02,3.23,5.62,2.08,879.36,31.06
4822515,-0.06,-0.07,1.0,2.99,6.53,2.08,879.31,31.05
4822554,-0.04,-0.06,1.05,3.11,5.8,2.2,879.24,31.05
4822592,-0.05,-0.06,1.04,3.3,5.55,2.32,879.36,31.05
4822630,-0.04,-0.07,1.02,3.17,6.1,2.44,879.31,31.04
4822668,-0.05,-0.06,1.02,3.42,6.1,2.38,879.43,31.03
4822706,-0.02,-0.06,1.04,3.23,5.19,2.38,879.38,31.04
4822756,-0.03,-0.07,1.01,2.93,4.33,2.32,879.41,31.03
4822794,-0.03,-0.07,1.03,2.99,4.94,2.32,879.39,31.04
4822832,-0.02,-0.08,0.97,2.93,4.46,2.38,879.39,31.03
4822870,-0.05,-0.06,0.96,3.11,3.17,2.32,879.45,31.03
4822909,-0.05,-0.07,0.89,3.05,3.17,2.44,879.39,31.04
4822947,-0.01,-0.07,0.91,2.69,2.93,2.32,879.38,31.03
4822985,-0.03,-0.07,0.89,2.69,3.23,2.14,879.4,31.03
4823023,-0.04,-0.07,0.9,2.56,1.89,2.38,879.4,31.03
4823061,-0.02,-0.08,0.9,2.5,2.99,2.26,879.38,31.03
4823099,-0.03,-0.07,0.89,2.2,2.75,2.01,879.38,31.02
4823149,-0.04,-0.06,0.91,2.32,2.75,2.01,879.48,31.02
4823187,-0.04,-0.08,0.89,1.95,2.32,1.83,879.51,31.05
4823226,-0.03,-0.07,0.94,1.89,2.75,1.95,879.48,31.04
4823264,-0.05,-0.07,0.93,1.83,2.87,2.14,879.46,31.04
4823302,-0.05,-0.06,0.95,1.89,2.93,2.01,879.52,31.04
4823340,-0.05,-0.07,0.96,1.83,3.05,1.89,879.49,31.04
4823378,-0.04,-0.06,0.97,1.89,2.69,1.95,879.51,31.04
4823416,-0.03,-0.07,0.98,1.89,2.69,2.01,879.51,31.05
4823455,-0.04,-0.07,0.96,2.01,2.14,1.95,879.52,31.05
4823504,-0.04,-0.06,0.96,2.08,2.38,2.2,879.51,31.03
4823543,-0.03,-0.06,0.98,2.01,2.01,2.08,879.49,31.04
4823581,-0.05,-0.06,0.98,2.14,2.26,1.77,879.52,31.04
4823619,-0.04,-0.06,0.98,2.26,2.08,2.01,879.51,31.02
4823657,-0.02,-0.06,1.0,2.5,2.2,1.77,879.5,31.04
4823695,-0.02,-0.06,0.99,2.44,2.62,1.71,879.58,31.05
4823733,-0.04,-0.06,0.98,2.56,2.87,1.59,879.57,31.03
4823772,-0.04,-0.07,1.0,2.69,2.75,1.71,879.61,31.06
4823810,-0.03,-0.07,0.96,2.81,3.11,1.59,879.55,31.04
4823848,-0.05,-0.06,0.98,2.75,3.23,1.46,879.58,31.05
4823924,-0.02,-0.07,0.94,2.69,4.39,1.46,879.6,31.0
4823962,-0.01,-0.07,0.92,2.81,5.31,1.22,879.61,31.02
4824000,-0.03,-0.07,0.91,2.99,4.52,1.28,879.64,31.03
4824090,-0.02,-0.08,0.89,2.99,4.03,0.98,879.66,30.99
4824128,-0.02,-0.06,0.9,2.87,3.66,1.04,879.62,31.01
4824166,-0.01,-0.07,0.92,2.62,3.6,0.85,879.64,31.01
4824204,-0.01,-0.07,0.92,2.62,2.93,0.85,879.66,31.01
4824242,-0.02,-0.06,0.93,2.5,2.14,0.73,879.61,31.03
4824280,-0.02,-0.07,0.93,2.44,1.83,0.73,879.61,31.01
4824319,-0.02,-0.07,0.91,2.5,1.04,0.61,879.68,31.01
4824369,-0.04,-0.07,0.92,2.32,-0.43,0.43,879.59,31.01
4824407,-0.03,-0.07,0.93,2.14,-0.73,0.37,879.65,31.0
4824445,-0.03,-0.08,0.91,2.14,-0.55,0.49,879.68,31.03
4824483,-0.03,-0.07,0.92,2.08,-0.85,0.24,879.6,31.01
4824521,-0.04,-0.07,0.92,2.2,-0.67,0.31,879.68,31.01
4824559,-0.05,-0.07,0.93,1.89,-0.73,0.24,879.65,31.02
4824597,-0.04,-0.06,0.97,1.95,-0.24,0.24,879.71,31.03
4824636,-0.04,-0.07,0.95,2.08,-0.31,0.06,879.69,31.04
4824674,-0.04,-0.06,0.99,1.95,-0.06,0.12,879.73,31.03
4824724,-0.03,-0.07,0.99,2.14,0.49,0.06,879.71,31.01
4824762,-0.03,-0.06,1.0,2.14,0.67,0.06,879.74,31.04
4824800,-0.04,-0.07,0.96,2.01,0.92,0.12,879.8,31.04
4824838,-0.04,-0.07,0.97,2.2,1.04,0.0,879.71,31.03
4824876,-0.03,-0.07,0.98,2.08,1.16,0.0,879.78,31.05
4824914,-0.04,-0.06,0.98,2.01,1.59,0.12,879.79,31.05
4824952,-0.04,-0.06,1.0,2.01,1.53,0.12,879.8,31.04
4824990,-0.04,-0.06,1.01,2.14,2.08,0.06,879.76,31.03
4825029,-0.05,-0.07,1.05,2.26,2.01,0.0,879.78,31.03
4825067,-0.05,-0.07,1.03,2.38,2.87,0.06,879.85,31.03
4825117,-0.04,-0.06,1.05,2.56,3.23,-0.06,879.83,31.03
4825155,-0.04,-0.06,1.01,2.87,3.91,-0.12,879.82,31.03
4825193,-0.03,-0.07,1.0,2.75,4.15,0.0,879.86,31.04
4825231,-0.03,-0.07,0.96,3.23,5.07,-0.18,879.91,31.04
4825269,-0.05,-0.07,0.92,3.3,4.94,0.0,879.91,31.03
4825307,-0.04,-0.06,0.93,3.48,4.58,-0.24,879.92,31.04
4825346,-0.03,-0.07,0.9,3.6,5.0,-0.12,879.95,31.04
4825384,-0.03,-0.07,0.91,3.42,4.76,-0.12,879.86,31.04
4825422,-0.03,-0.08,0.9,3.6,5.07,-0.12,879.97,31.05
4825472,-0.04,-0.07,0.89,3.66,5.0,0.0,879.99,31.03
4825510,-0.04,-0.08,0.88,3.6,5.31,-0.18,879.98,31.05
4825548,-0.04,-0.07,0.86,3.72,5.19,-0.18,879.97,31.04
4825586,-0.04,-0.07,0.86,3.42,5.43,0.0,879.92,31.05
4825624,-0.03,-0.08,0.86,3.48,5.62,-0.12,879.99,31.04
4825663,-0.04,-0.08,0.87,3.42,5.74,-0.12,879.89,31.03
4825701,-0.04,-0.07,0.89,3.23,5.55,-0.12,879.98,31.05
4825739,-0.05,-0.07,0.9,3.3,5.68,-0.12,879.95,31.03
4825777,-0.05,-0.07,0.91,2.93,6.23,-0.06,879.97,31.04
4825815,-0.04,-0.07,0.9,3.23,5.49,0.0,880.01,31.04
4825865,-0.06,-0.06,0.9,2.81,5.25,-0.06,879.97,31.03
4825903,-0.05,-0.07,0.92,2.81,5.68,0.24,880.01,31.04
4825941,-0.04,-0.07,0.94,2.87,5.49,0.18,880.04,31.04
4825979,-0.05,-0.07,0.95,2.99,5.13,0.18,880.1,31.04
4826017,-0.06,-0.07,0.93,3.11,5.62,0.37,880.04,31.03
4826056,-0.04,-0.07,0.95,3.05,5.86,0.37,880.08,31.04
4826094,-0.04,-0.06,0.95,3.05,5.25,0.37,880.06,31.03
4826132,-0.05,-0.07,0.92,3.11,5.49,0.49,880.13,31.04
4826170,-0.05,-0.07,0.91,3.17,5.92,0.31,880.08,31.04
4826208,-0.04,-0.07,0.92,3.05,5.55,0.55,880.09,31.05
4826258,-0.04,-0.07,0.92,2.93,5.31,0.49,880.08,31.04
4826296,-0.04,-0.07,0.95,2.75,5.55,0.49,880.17,31.04
4826334,-0.03,-0.08,0.93,2.81,5.31,0.61,880.16,31.05
4826372,-0.03,-0.07,0.94,2.56,4.76,0.49,880.15,31.05
4826411,-0.04,-0.07,0.93,2.2,4.58,0.49,880.14,31.02
4826449,-0.04,-0.07,0.92,1.95,4.15,0.67,880.2,31.05
4826487,-0.04,-0.07,0.94,1.65,4.15,0.61,880.25,31.06
4826525,-0.04,-0.07,0.92,1.28,3.91,0.43,880.19,31.05
4826563,-0.03,-0.07,0.96,1.04,3.54,0.61,880.18,31.04
4826613,-0.03,-0.07,0.94,0.79,3.78,0.55,880.22,31.03
4826651,-0.04,-0.07,0.99,0.49,3.48,0.55,880.22,31.03
4826689,-0.04,-0.07,0.99,0.31,3.91,0.61,880.21,31.04
4826727,-0.04,-0.06,1.02,0.24,3.66,0.61,880.28,31.06
4826766,-0.03,-0.07,1.01,0.18,3.85,0.55,880.26,31.04
4826804,-0.03,-0.06,1.05,0.12,3.42,0.61,880.25,31.05
4826842,-0.04,-0.07,1.05,0.24,4.09,0.55,880.28,31.05
4826880,-0.04,-0.06,1.06,0.24,3.66,0.55,880.29,31.05
4826918,-0.03,-0.06,1.09,0.37,3.54,0.55,880.35,31.05
4826956,-0.04,-0.07,1.07,0.43,3.72,0.49,880.29,31.04
4827032,-0.04,-0.07,1.06,0.79,3.66,0.49,880.3,31.02
4827070,-0.04,-0.07,1.06,1.04,3.85,0.43,880.38,31.03
4827108,-0.03,-0.06,1.05,1.28,3.78,0.43,880.32,31.04
4827198,-0.04,-0.07,1.02,1.59,4.33,0.31,880.38,31.01
4827236,-0.04,-0.09,1.05,1.59,4.09,0.37,880.4,31.01
4827274,-0.03,-0.07,1.03,1.83,3.78,0.31,880.48,31.02
4827312,-0.04,-0.07,1.01,1.83,3.72,0.37,880.43,31.0
4827350,-0.04,-0.06,1.0,1.65,3.97,0.37,880.5,31.02
4827389,-0.03,-0.07,0.99,1.89,3.66,0.31,880.42,31.02
4827427,-0.03,-0.07,0.99,1.77,3.11,0.49,880.44,31.03
4827476,-0.04,-0.06,1.0,1.71,2.75,0.43,880.48,31.02
4827515,-0.04,-0.06,1.02,1.65,2.32,0.49,880.52,31.03
4827553,-0.03,-0.08,1.02,1.59,2.01,0.61,880.54,31.03
4827591,-0.03,-0.07,1.04,1.34,0.79,0.37,880.45,31.03
4827629,-0.03,-0.07,1.06,1.59,0.67,0.49,880.5,31.01
4827667,-0.03,-0.07,1.03,1.4,0.12,0.43,880.52,31.01
4827705,-0.03,-0.06,1.07,1.53,-0.18,0.37,880.52,31.03
4827743,-0.04,-0.07,1.03,1.22,0.24,0.12,880.55,31.02
4827782,-0.04,-0.07,1.04,1.04,-0.12,0.18,880.53,31.02
4827831,-0.05,-0.06,1.04,1.22,-0.06,0.06,880.54,31.02
4827869,-0.03,-0.06,1.04,1.1,-0.18,0.24,880.59,31.03
4827908,-0.03,-0.06,1.07,1.22,0.06,0.12,880.54,31.02
4827946,-0.03,-0.07,1.04,1.53,0.37,0.0,880.59,31.04
4827984,-0.05,-0.07,1.05,1.59,0.31,0.0,880.67,31.05
4828022,-0.05,-0.07,1.02,1.65,0.79,0.0,880.67,31.04
4828060,-0.05,-0.07,1.01,1.71,1.1,0.0,880.62,31.04
4828098,-0.04,-0.07,1.01,2.08,1.34,0.0,880.73,31.05
4828136,-0.04,-0.07,1.0,2.2,1.46,-0.06,880.66,31.04
4828174,-0.04,-0.06,0.98,2.14,2.2,-0.24,880.66,31.03
4828224,-0.03,-0.07,0.98,2.14,2.56,-0.24,880.68,31.03
4828262,-0.04,-0.07,0.95,2.26,2.69,-0.12,880.7,31.03
4828300,-0.05,-0.07,0.94,2.44,2.44,-0.18,880.72,31.05
4828338,-0.04,-0.07,0.94,2.38,2.56,-0.12,880.71,31.03
4828377,-0.03,-0.07,0.93,2.44,2.99,-0.18,880.72,31.03
4828415,-0.05,-0.07,0.93,2.38,2.75,-0.31,880.74,31.04
4828453,-0.04,-0.07,0.92,2.5,2.56,-0.12,880.72,31.03
4828491,-0.04,-0.07,0.95,2.38,2.5,-0.18,880.76,31.04
4828529,-0.05,-0.07,0.92,2.38,2.69,-0.18,880.75,31.04
4828579,-0.05,-0.07,0.93,2.32,2.26,-0.12,880.69,31.01
4828617,-0.06,-0.08,0.88,2.2,2.56,-0.06,880.77,31.02
4828655,-0.05,-0.07,0.89,1.77,2.14,0.06,880.74,31.02
4828694,-0.05,-0.07,0.91,1.71,2.62,-0.06,880.73,31.02
4828732,-0.05,-0.07,0.91,1.4,2.62,-0.12,880.8,31.03
4828770,-0.06,-0.06,0.96,1.59,2.81,-0.12,880.81,31.04
4828808,-0.05,-0.07,0.97,1.59,3.78,0.0,880.83,31.04
4828846,-0.05,-0.07,0.99,1.28,3.48,0.06,880.79,31.04
4828884,-0.05,-0.06,1.01,1.28,3.72,0.12,880.83,31.04
4828923,-0.05,-0.06,1.01,1.28,4.15,0.31,880.81,31.05
4828972,-0.04,-0.06,1.07,1.22,2.93,0.18,880.84,31.03
4829011,-0.04,-0.07,1.06,1.46,2.99,0.18,880.86,31.04
4829049,-0.04,-0.07,1.07,1.4,2.99,0.49,880.89,31.04
4829087,-0.03,-0.07,1.11,1.59,2.62,0.37,880.93,31.05
4829125,-0.04,-0.08,1.03,1.95,2.69,0.37,880.9,31.05
4829163,-0.05,-0.06,1.06,2.08,2.32,0.55,880.96,31.07
4829201,-0.03,-0.07,1.01,2.38,2.2,0.55,880.92,31.06
4829239,-0.04,-0.07,0.99,2.2,1.71,0.49,880.9,31.04
4829278,-0.05,-0.06,1.01,1.95,1.83,0.49,880.94,31.05
4829328,-0.04,-0.07,1.01,1.95,1.16,0.43,880.95,31.03
4829366,-0.05,-0.07,1.0,2.08,1.34,0.49,881.02,31.03
4829404,-0.06,-0.06,0.96,1.95,0.61,0.61,880.95,31.04
4829442,-0.06,-0.07,0.98,1.95,1.28,0.37,881.01,31.05
4829480,-0.05,-0.08,0.92,1.83,1.34,0.43,880.99,31.05
4829518,-0.06,-0.07,0.94,1.65,1.34,0.55,881.01,31.05
4829556,-0.06,-0.07,0.94,1.77,1.1,0.79,881.03,31.06
4829595,-0.04,-0.07,0.97,1.34,0.43,0.73,881.01,31.06
4829633,-0.05,-0.06,1.0,1.04,0.49,0.85,881.01,31.06
4829671,-0.07,-0.07,1.0,0.92,0.0,1.16,881.01,31.06
4829720,-0.05,-0.07,1.01,0.61,-0.31,1.04,881.07,31.06
4829759,-0.06,-0.05,1.08,0.61,-0.79,1.22,881.03,31.05
4829797,-0.06,-0.07,1.07,0.43,0.37,1.28,881.1,31.06
4829835,-0.05,-0.07,1.07,0.79,1.28,1.16,881.06,31.06
4829873,-0.06,-0.06,1.07,1.16,1.46,1.04,881.09,31.06
4829911,-0.07,-0.07,1.04,1.16,1.71,1.34,881.14,31.06
4829949,-0.06,-0.05,1.03,1.34,2.32,1.28,881.15,31.06
4829987,-0.06,-0.07,1.02,1.53,2.99,1.34,881.11,31.07
4830025,-0.05,-0.08,1.01,1.59,3.05,1.46,881.2,31.07
4830064,-0.06,-0.08,1.0,1.83,3.72,1.59,881.12,31.05
4830139,-0.06,-0.07,0.94,1.89,4.52,1.65,881.11,31.03
4830178,-0.06,-0.06,0.95,1.77,4.15,1.89,881.21,31.03
4830216,-0.06,-0.07,0.96,1.83,4.82,1.95,881.19,31.04
4830305,-0.05,-0.06,1.0,1.95,5.07,1.89,881.2,31.01
4830343,-0.06,-0.07,1.0,2.14,5.0,1.89,881.19,31.02
4830382,-0.07,-0.07,1.01,1.95,5.55,1.95,881.23,31.02
4830420,-0.07,-0.07,1.01,2.01,5.13,2.32,881.25,31.02
4830458,-0.07,-0.07,0.99,1.77,5.19,2.32,881.22,31.03
4830496,-0.07,-0.07,0.98,1.65,4.94,2.38,881.22,31.03
4830546,-0.07,-0.07,1.02,1.89,4.46,2.62,881.2,31.02
4830584,-0.07,-0.09,0.96,1.83,5.43,2.81,881.26,31.03
4830622,-0.06,-0.06,1.01,1.46,4.52,2.81,881.23,31.03
4830660,-0.05,-0.07,1.01,1.53,5.0,2.81,881.23,31.04
4830698,-0.08,-0.07,0.97,1.46,3.97,2.99,881.26,31.04
4830737,-0.05,-0.07,1.0,1.53,4.21,3.23,881.26,31.03
4830775,-0.05,-0.07,1.02,1.4,4.27,3.17,881.27,31.03
4830813,-0.06,-0.07,1.07,1.53,4.39,3.36,881.26,31.03
4830851,-0.06,-0.07,1.08,1.53,3.78,3.42,881.24,31.03
4830889,-0.07,-0.07,1.13,1.77,4.39,3.36,881.33,31.04
4830939,-0.07,-0.08,1.11,1.71,4.76,3.6,881.32,31.03
4830977,-0.07,-0.07,1.15,1.65,4.82,3.54,881.35,31.04
4831015,-0.06,-0.06,1.15,1.89,5.55,3.54,881.35,31.04
4831054,-0.06,-0.06,1.13,2.08,6.16,3.48,881.36,31.03
4831092,-0.04,-0.07,1.12,2.26,5.86,3.72,881.37,31.03
4831130,-0.06,-0.07,1.09,2.2,5.98,3.72,881.39,31.04
4831168,-0.06,-0.08,1.05,2.2,6.23,3.66,881.32,31.03
4831206,-0.03,-0.08,1.12,2.32,4.94,3.78,881.37,31.02
4831244,-0.02,-0.06,1.08,2.01,3.72,3.78,881.4,31.04
4831283,-0.05,-0.07,1.01,1.34,3.42,3.72,881.41,31.06
4831333,-0.01,-0.08,1.04,0.92,3.54,3.91,881.37,31.03
4831371,-0.04,-0.09,1.02,0.24,2.44,3.78,881.42,31.05
4831409,-0.04,-0.08,1.04,-0.12,1.34,3.6,881.45,31.03
4831447,-0.03,-0.08,1.03,0.31,3.3,3.42,881.42,31.04
4831485,-0.03,-0.08,1.0,0.43,2.81,3.6,881.43,31.04
4831523,-0.02,-0.08,0.97,0.79,3.23,3.54,881.54,31.05
4831561,-0.05,-0.08,0.9,0.92,3.36,3.17,881.48,31.04
4831600,-0.02,-0.07,0.96,0.92,3.23,3.17,881.5,31.03
4831638,-0.03,-0.08,0.91,1.1,4.33,3.05,881.55,31.05
4831688,-0.03,-0.08,0.89,0.98,5.68,2.87,881.49,31.01
4831726,-0.04,-0.07,0.89,0.98,6.59,2.69,881.55,31.03
4831764,-0.04,-0.07,0.9,0.92,7.45,2.75,881.57,31.04
4831802,-0.04,-0.08,0.92,0.85,7.93,2.75,881.55,31.03
4831840,-0.03,-0.09,0.91,1.1,9.09,2.56,881.58,31.04
4831878,-0.02,-0.08,0.97,1.28,9.83,2.5,881.5,31.04
4831917,-0.04,-0.09,0.94,1.16,10.07,2.62,881.54,31.05
4831955,-0.02,-0.07,1.01,1.1,9.95,2.32,881.55,31.04
4831993,-0.05,-0.08,1.0,1.1,10.44,2.38,881.58,31.02
4832031,-0.05,-0.07,1.05,1.16,9.46,2.69,881.59,31.04
4832081,-0.02,-0.07,1.06,1.28,10.01,2.14,881.59,31.03
4832119,-0.04,-0.07,1.09,1.53,9.22,2.14,881.58,31.03
4832157,-0.04,-0.07,1.06,1.83,8.79,2.32,881.61,31.03
4832195,-0.05,-0.07,1.04,1.95,8.0,2.26,881.67,31.04
4832233,-0.05,-0.07,1.01,1.77,8.54,2.08,881.58,31.04
4832271,-0.04,-0.07,0.99,1.95,7.39,2.08,881.6,31.02
4832310,-0.05,-0.07,1.0,2.08,6.96,2.2,881.6,31.04
4832348,-0.03,-0.08,0.98,1.89,6.77,2.2,881.62,31.03
4832386,-0.03,-0.07,1.0,1.65,5.55,2.14,881.64,31.04
4832424,-0.05,-0.07,0.98,1.89,4.88,2.01,881.63,31.03
4832474,-0.06,-0.07,0.95,1.65,4.09,2.14,881.66,31.02
4832512,-0.05,-0.08,0.93,1.53,4.03,2.14,881.69,31.04
4832550,-0.05,-0.08,0.9,1.46,3.54,2.08,881.66,31.03
4832588,-0.05,-0.07,0.92,1.34,3.23,2.14,881.66,31.02
4832626,-0.05,-0.08,0.87,1.34,3.91,1.95,881.69,31.03
4832664,-0.05,-0.07,0.91,1.28,2.62,2.2,881.69,31.04
4832702,-0.05,-0.08,0.92,1.34,2.56,2.38,881.68,31.04
4832741,-0.05,-0.08,0.93,1.34,1.83,2.26,881.68,31.05
4832779,-0.05,-0.06,0.97,1.16,1.16,2.2,881.72,31.03
4832829,-0.01,-0.08,0.95,1.04,0.43,2.2,881.7,31.03
4832867,-0.03,-0.06,1.0,0.85,0.24,2.14,881.73,31.05
4832905,-0.03,-0.08,0.98,0.85,1.28,2.2,881.78,31.04
4832943,-0.03,-0.08,1.0,0.79,0.98,2.08,881.76,31.05
4832981,-0.04,-0.07,1.03,0.67,0.73,2.2,881.74,31.03
4833019,-0.03,-0.07,1.02,0.61,0.67,1.83,881.82,31.06
4833058,-0.03,-0.07,1.06,0.49,0.98,1.65,881.78,31.04
4833096,-0.01,-0.07,1.06,0.79,1.22,1.83,881.83,31.05
4833134,-0.03,-0.08,1.07,0.55,1.04,1.83,881.75,31.03
4833172,-0.04,-0.07,1.08,0.49,1.89,1.59,881.83,31.05
4833248,-0.04,-0.07,1.05,1.1,2.5,1.53,881.92,31.03
4833286,-0.03,-0.07,1.05,1.34,2.14,1.34,881.85,31.04
4833324,-0.04,-0.07,1.03,1.28,2.81,1.46,881.9,31.06
4833413,-0.03,-0.06,1.05,1.83,3.54,1.28,881.86,31.02
4833452,-0.05,-0.07,1.03,2.14,4.64,1.1,881.86,31.03
4833490,-0.02,-0.08,1.01,2.26,4.46,1.1,881.94,31.04
4833528,-0.03,-0.07,1.0,2.44,4.09,1.1,881.88,31.06
4833566,-0.03,-0.07,0.97,2.14,4.27,1.04,881.94,31.05
4833604,-0.03,-0.07,1.0,2.14,3.91,1.1,881.91,31.07
4833642,-0.02,-0.07,1.0,2.08,3.91,0.92,881.87,31.05
4833692,-0.04,-0.07,1.0,2.2,3.11,0.98,881.95,31.05
4833730,-0.02,-0.07,0.99,1.83,3.66,0.92,881.94,31.06
4833768,-0.02,-0.07,0.99,1.95,3.48,0.85,881.94,31.06
4833806,-0.03,-0.07,1.0,2.01,3.23,0.92,881.86,31.06
4833844,-0.02,-0.07,1.0,2.08,2.56,0.61,881.96,31.05
4833883,-0.03,-0.07,0.99,1.89,2.75,0.73,881.97,31.08
4833921,-0.03,-0.08,0.99,1.83,2.32,0.79,881.89,31.06
4833959,-0.03,-0.08,0.99,2.01,2.44,0.49,882.02,31.07
4833997,-0.04,-0.08,0.95,2.08,2.81,0.49,882.02,31.08
4834047,-0.03,-0.07,0.99,2.01,3.23,0.55,882.01,31.05
4834085,-0.03,-0.07,0.97,1.89,3.36,0.37,882.0,31.06
4834123,-0.04,-0.07,0.96,1.89,3.36,0.24,882.0,31.06
4834161,-0.03,-0.07,0.98,1.65,3.48,0.24,881.97,31.06
4834199,-0.03,-0.07,1.0,1.77,3.54,0.18,881.96,31.04
4834238,-0.02,-0.08,1.0,1.77,3.66,0.18,882.01,31.06
4834276,-0.04,-0.07,0.99,1.77,3.66,0.06,882.08,31.07
4834314,-0.02,-0.07,1.0,2.01,3.66,0.12,882.05,31.05
4834352,-0.02,-0.07,0.95,1.95,3.54,0.12,882.07,31.07
4834390,-0.04,-0.07,0.95,1.77,3.11,0.0,882.03,31.06
4834440,-0.03,-0.07,0.94,1.95,3.48,0.06,882.08,31.03
4834478,-0.04,-0.07,0.97,1.71,3.11,-0.06,882.01,31.06
4834516,-0.02,-0.06,0.93,1.71,3.11,0.12,882.09,31.06
4834554,-0.04,-0.06,0.95,1.34,2.62,0.0,882.08,31.06
4834592,-0.03,-0.08,0.97,1.89,3.66,-0.12,882.05,31.06
4834631,-0.02,-0.08,0.98,1.89,3.6,-0.18,882.07,31.05
4834669,-0.02,-0.07,0.93,1.83,4.21,-0.06,882.13,31.06
4834707,-0.04,-0.07,0.94,1.83,3.6,-0.24,882.13,31.07
4834745,-0.04,-0.07,0.96,1.77,3.91,-0.31,882.15,31.06
4834795,-0.02,-0.08,0.95,1.59,3.97,-0.37,882.19,31.05
4834833,-0.03,-0.06,0.98,1.53,4.46,-0.37,882.12,31.06
4834871,-0.03,-0.08,0.93,1.53,5.25,-0.49,882.13,31.06
4834909,-0.04,-0.06,0.98,1.71,4.82,-0.61,882.21,31.07
4834947,-0.03,-0.07,0.98,1.71,4.64,-0.49,882.1,31.05
4834985,-0.03,-0.08,0.98,1.89,4.64,-0.67,882.1,31.04
4835024,-0.04,-0.06,1.02,1.89,4.76,-0.61,882.18,31.05
4835062,-0.04,-0.07,1.01,1.95,4.58,-0.61,882.19,31.06
4835100,-0.03,-0.07,1.02,1.89,4.27,-0.55,882.11,31.05
4835138,-0.06,-0.07,0.98,2.08,5.0,-0.61,882.19,31.06
4835188,-0.04,-0.07,0.99,1.95,4.64,-0.49,882.17,31.05
4835226,-0.05,-0.06,0.98,1.95,4.58,-0.79,882.18,31.04
4835264,-0.04,-0.06,0.98,1.89,3.72,-0.61,882.21,31.05
4835302,-0.05,-0.07,0.95,1.83,4.58,-0.49,882.15,31.05
4835340,-0.06,-0.07,0.96,2.01,4.09,-0.49,882.19,31.04
4835379,-0.05,-0.07,0.97,2.2,4.15,-0.49,882.23,31.05
4835417,-0.07,-0.07,0.95,2.38,3.05,-0.55,882.28,31.07
4835455,-0.07,-0.06,0.97,2.32,3.48,-0.37,882.16,31.05
4835493,-0.05,-0.06,0.97,2.08,3.78,-0.31,882.2,31.06
4835543,-0.05,-0.06,1.02,2.2,3.66,-0.24,882.19,31.04
4835581,-0.07,-0.06,1.01,1.95,3.97,-0.18,882.2,31.06
4835619,-0.06,-0.05,1.09,1.83,4.33,-0.31,882.24,31.06
4835657,-0.05,-0.06,1.09,1.89,5.07,-0.24,882.23,31.06
4835695,-0.06,-0.05,1.13,2.01,4.46,-0.18,882.29,31.07
4835734,-0.06,-0.05,1.14,2.2,5.25,-0.18,882.26,31.06
4835772,-0.05,-0.05,1.15,2.38,5.43,-0.12,882.22,31.05
4835810,-0.04,-0.04,1.18,2.26,5.8,-0.06,882.27,31.06
4835848,-0.05,-0.05,1.15,2.32,6.1,-0.18,882.27,31.06
4835886,-0.05,-0.05,1.19,2.44,5.92,-0.24,882.23,31.06
4835936,-0.05,-0.06,1.14,2.5,6.04,0.06,882.26,31.05
4835974,-0.05,-0.05,1.15,2.69,4.94,0.18,882.26,31.05
4836013,-0.05,-0.06,1.07,2.81,4.7,0.24,882.29,31.08
4836051,-0.06,-0.06,1.09,2.81,3.23,0.31,882.31,31.07
4836089,-0.04,-0.07,1.02,2.69,2.99,0.49,882.28,31.06
4836127,-0.05,-0.07,0.97,2.56,1.95,0.49,882.33,31.06
4836165,-0.05,-0.06,0.94,2.38,1.65,0.67,882.33,31.07
4836203,-0.04,-0.07,0.91,2.08,0.43,0.55,882.39,31.07
4836241,-0.05,-0.07,0.91,1.53,0.24,0.61,882.33,31.06
4836279,-0.05,-0.07,0.91,1.46,0.37,0.55,882.29,31.06
4836355,-0.05,-0.08,0.92,1.16,0.73,0.49,882.31,31.02
4836393,-0.07,-0.07,0.87,0.98,1.53,0.49,882.35,31.04
4836432,-0.06,-0.07,0.87,1.16,1.77,0.55,882.37,31.03
4836521,-0.04,-0.06,0.9,0.67,2.62,0.55,882.41,31.0
4836559,-0.06,-0.07,0.93,1.1,4.27,0.79,882.36,31.02
4836597,-0.06,-0.08,0.91,1.16,4.21,0.67,882.4,31.02
4836636,-0.06,-0.07,0.96,0.92,3.85,0.79,882.41,31.02
4836674,-0.05,-0.07,0.94,0.98,4.46,0.67,882.37,31.03
4836712,-0.04,-0.06,0.94,0.98,3.91,1.04,882.42,31.03
4836762,-0.03,-0.07,0.98,1.1,3.54,0.85,882.37,31.01
4836800,-0.07,-0.08,0.98,0.92,2.93,1.16,882.42,31.03
4836838,-0.07,-0.08,0.99,1.04,2.75,1.04,882.43,31.03
4836876,-0.06,-0.07,1.0,1.22,2.81,0.98,882.43,31.02
4836914,-0.04,-0.07,1.0,1.28,2.75,1.28,882.48,31.04
4836952,-0.04,-0.07,1.01,1.22,2.62,1.1,882.46,31.05
4836991,-0.04,-0.08,1.01,1.22,2.62,1.1,882.48,31.03
4837029,-0.04,-0.08,1.01,1.16,2.62,1.16,882.48,31.03
4837067,-0.05,-0.07,1.02,1.46,2.14,1.22,882.46,31.03
4837105,-0.06,-0.06,1.03,1.28,1.77,1.04,882.44,31.03
4837155,-0.05,-0.06,1.05,1.28,1.83,0.79,882.46,31.03
4837193,-0.04,-0.07,1.07,1.4,2.62,0.92,882.49,31.04
4837231,-0.04,-0.07,1.06,1.4,3.23,0.85,882.52,31.04
4837269,-0.04,-0.06,1.08,1.53,3.36,0.85,882.5,31.05
4837307,-0.04,-0.07,1.08,1.65,4.33,0.73,882.44,31.04
4837345,-0.06,-0.07,1.05,1.89,5.19,0.85,882.56,31.04
4837384,-0.05,-0.07,1.02,2.2,5.62,0.55,882.55,31.05
4837422,-0.04,-0.07,1.0,2.2,7.39,0.61,882.53,31.03
4837460,-0.05,-0.07,0.94,2.62,7.75,0.55,882.51,31.05
4837498,-0.05,-0.07,0.95,2.69,8.97,0.73,882.58,31.04
4837548,-0.04,-0.08,0.94,2.87,8.61,0.73,882.57,31.02
4837586,-0.05,-0.07,0.92,2.81,8.79,0.67,882.53,31.05
4837624,-0.04,-0.08,0.91,2.44,8.61,0.55,882.55,31.04
4837662,-0.03,-0.07,0.95,2.56,8.73,0.43,882.56,31.04
4837700,-0.03,-0.08,0.9,2.26,8.61,0.55,882.54,31.03
4837739,-0.04,-0.08,0.92,2.14,8.3,0.55,882.6,31.03
4837777,-0.05,-0.08,0.88,2.26,8.85,0.61,882.61,31.04
4837815,-0.04,-0.07,0.9,2.01,8.18,0.61,882.58,31.04
4837853,-0.03,-0.07,0.9,1.83,8.12,0.73,882.58,31.04
4837903,-0.04,-0.07,0.9,1.71,7.08,0.61,882.56,31.03
4837941,-0.04,-0.07,0.93,1.4,7.39,0.79,882.54,31.03
4837979,-0.03,-0.08,0.94,1.46,6.84,0.98,882.59,31.02
4838018,-0.05,-0.08,0.95,1.1,6.35,0.85,882.65,31.04
4838056,-0.04,-0.07,0.98,1.28,6.1,0.92,882.61,31.04
4838094,-0.05,-0.08,0.97,1.22,6.29,0.85,882.65,31.03
4838132,-0.05,-0.07,0.98,1.34,5.86,0.92,882.67,31.03
4838170,-0.05,-0.06,0.98,1.1,5.62,1.16,882.67,31.04
4838208,-0.03,-0.07,1.0,1.04,5.62,1.22,882.69,31.04
4838246,-0.04,-0.07,1.02,1.1,5.74,0.92,882.73,31.05
4838296,-0.04,-0.07,1.08,1.22,5.86,1.04,882.65,31.02
4838334,-0.03,-0.07,1.07,1.04,5.19,1.04,882.66,31.03
4838373,-0.05,-0.05,1.15,1.34,5.25,1.04,882.68,31.03
4838411,-0.02,-0.07,1.15,1.59,5.37,1.04,882.68,31.03
4838449,-0.03,-0.06,1.17,1.53,4.21,1.04,882.67,31.03
4838487,-0.03,-0.06,1.15,1.53,4.15,1.1,882.72,31.03
4838525,-0.04,-0.06,1.12,1.28,4.27,1.04,882.72,31.04
4838563,-0.03,-0.06,1.17,1.53,3.72,1.04,882.71,31.03
4838602,-0.03,-0.07,1.13,1.83,4.27,0.79,882.76,31.03
4838640,-0.03,-0.07,1.12,1.95,4.58,0.92,882.74,31.04
4838690,-0.03,-0.06,1.07,2.2,4.76,0.73,882.82,31.03
4838728,-0.03,-0.07,1.05,2.32,4.7,0.49,882.77,31.05
4838766,-0.03,-0.07,1.0,2.5,5.07,0.37,882.7,31.04
4838804,-0.02,-0.07,1.0,2.26,4.27,0.31,882.77,31.04
4838842,-0.02,-0.08,0.98,2.01,4.33,0.31,882.72,31.04
4838880,-0.02,-0.07,0.97,2.01,4.21,0.24,882.79,31.05
4838918,-0.02,-0.07,0.98,1.71,4.03,0.18,882.8,31.06
4838956,-0.03,-0.08,0.98,1.71,4.33,0.0,882.76,31.05
4838994,-0.02,-0.07,1.0,1.28,4.21,0.0,882.79,31.05
4839044,-0.02,-0.07,1.01,1.46,4.52,-0.24,882.77,31.02
4839082,-0.02,-0.07,1.02,1.28,4.46,-0.31,882.78,31.03
4839120,-0.03,-0.07,1.01,1.28,4.94,-0.31,882.81,31.05
4839159,-0.03,-0.07,0.99,1.28,4.64,-0.49,882.82,31.04
4839197,-0.02,-0.07,0.99,1.46,4.33,-0.55,882.82,31.04
4839235,-0.03,-0.07,0.98,1.53,4.21,-0.61,882.77,31.04
4839273,-0.03,-0.07,0.99,1.59,4.03,-0.49,882.89,31.05
4839311,-0.03,-0.08,0.98,1.34,4.33,-0.67,882.85,31.05
4839349,-0.03,-0.07,0.99,1.4,4.15,-0.67,882.85,31.04
4839388,-0.03,-0.07,1.01,1.16,4.15,-0.67,882.89,31.05
4839465,-0.04,-0.07,1.02,1.28,4.33,-0.67,882.87,31.01
4839503,-0.03,-0.06,1.06,1.28,3.97,-0.79,882.82,31.02
4839541,-0.04,-0.07,1.04,1.16,3.66,-0.85,882.83,31.02
4839631,-0.02,-0.06,1.07,1.28,3.6,-0.73,882.85,31.0
4839669,-0.03,-0.07,1.08,1.28,3.17,-0.85,882.85,31.02
4839707,-0.03,-0.07,1.08,1.4,3.23,-0.85,882.84,31.02
4839745,-0.03,-0.06,1.04,1.4,3.6,-1.1,882.93,31.03
4839783,-0.03,-0.06,1.05,1.53,3.23,-0.98,882.85,31.03
4839822,-0.02,-0.07,1.04,1.71,2.87,-0.92,882.92,31.02
4839871,-0.04,-0.07,1.01,2.01,3.54,-1.16,882.88,31.02
4839910,-0.04,-0.07,1.0,2.14,4.03,-1.16,882.87,31.01
4839948,-0.04,-0.07,0.98,2.01,3.91,-1.28,882.91,31.03
4839986,-0.04,-0.06,0.98,2.01,4.15,-1.46,882.89,31.03
4840024,-0.03,-0.06,1.0,2.08,4.09,-1.46,882.99,31.04
4840062,-0.03,-0.07,1.02,1.89,4.33,-1.4,882.95,31.04
4840100,-0.04,-0.06,1.01,1.83,4.21,-1.46,882.89,31.04
4840138,-0.03,-0.06,1.03,2.01,4.46,-1.34,882.89,31.04
4840176,-0.03,-0.06,1.03,1.89,4.27,-1.46,882.88,31.03
4840215,-0.03,-0.06,1.01,1.77,4.03,-1.46,882.89,31.04
4840264,-0.04,-0.06,1.0,1.95,3.91,-1.59,882.95,31.02
4840303,-0.05,-0.06,0.98,1.95,3.54,-1.4,882.94,31.04
4840341,-0.03,-0.07,1.0,2.01,3.66,-1.59,882.96,31.04
4840379,-0.04,-0.07,0.96,1.89,3.6,-1.59,882.98,31.04
4840417,-0.06,-0.07,0.96,2.08,3.97,-1.65,882.95,31.04
4840455,-0.04,-0.07,0.94,1.95,4.33,-1.71,882.95,31.03
4840493,-0.04,-0.06,0.95,2.01,4.64,-1.53,882.92,31.05
4840532,-0.04,-0.06,0.94,2.01,4.7,-1.4,882.9,31.03
4840570,-0.05,-0.06,0.96,2.2,4.7,-1.46,882.98,31.05
4840619,-0.04,-0.06,0.97,2.08,5.25,-1.53,882.94,31.03
4840658,-0.04,-0.06,0.96,2.14,5.07,-1.4,882.93,31.04
4840696,-0.06,-0.06,0.95,2.38,5.07,-1.28,882.93,31.04
4840734,-0.06,-0.06,0.94,2.32,4.88,-1.1,883.03,31.05
4840772,-0.04,-0.06,0.95,2.08,5.0,-1.04,882.98,31.04
4840810,-0.03,-0.06,0.94,2.01,5.31,-0.98,882.98,31.04
4840848,-0.05,-0.06,0.93,2.2,5.07,-0.92,882.97,31.05
4840886,-0.04,-0.06,0.95,2.08,4.7,-0.73,882.96,31.05
4840925,-0.04,-0.06,0.97,2.08,4.15,-0.67,882.96,31.05
4840963,-0.04,-0.07,0.96,1.95,4.52,-0.67,882.99,31.05
4841013,-0.05,-0.07,0.95,2.01,5.0,-0.79,882.98,31.03
4841051,-0.03,-0.07,0.95,2.14,5.13,-0.79,882.99,31.04
4841089,-0.04,-0.06,0.93,2.32,5.49,-0.98,882.97,31.03
4841127,-0.05,-0.09,0.92,2.32,5.74,-0.85,883.02,31.04
4841165,-0.04,-0.06,0.92,2.38,6.35,-0.92,882.93,31.04
4841203,-0.04,-0.06,0.94,2.26,6.65,-0.79,882.99,31.05
4841242,-0.04,-0.06,0.95,2.32,6.59,-0.92,882.96,31.03
4841280,-0.06,-0.07,0.95,2.38,6.9,-0.73,882.97,31.04
4841318,-0.05,-0.07,0.95,2.5,6.96,-0.92,883.03,31.04
4841368,-0.04,-0.06,0.96,2.56,7.26,-0.73,882.95,31.02
4841406,-0.05,-0.06,0.95,2.69,6.9,-0.61,883.06,31.04
4841444,-0.04,-0.06,0.95,2.44,7.14,-0.55,883.01,31.03
4841482,-0.05,-0.06,0.95,2.62,6.96,-0.49,882.98,31.04
4841520,-0.04,-0.06,0.97,2.62,6.23,-0.37,882.99,31.04
4841558,-0.03,-0.06,0.96,2.5,6.16,-0.24,883.01,31.05
4841597,-0.05,-0.06,0.97,2.38,5.37,-0.18,883.01,31.05
4841635,-0.05,-0.07,0.96,2.44,5.49,-0.31,883.05,31.04
4841673,-0.03,-0.07,0.97,2.32,4.88,-0.31,883.05,31.04
4841711,-0.04,-0.07,0.95,2.38,5.37,-0.31,883.07,31.05
4841761,-0.04,-0.06,0.92,2.08,5.0,-0.31,883.05,31.04
4841799,-0.04,-0.06,0.96,2.44,5.31,-0.43,883.05,31.03
4841837,-0.06,-0.07,0.95,2.56,4.46,-0.43,883.09,31.04
4841875,-0.05,-0.06,0.95,2.56,4.76,-0.37,883.1,31.05
4841913,-0.04,-0.06,0.94,2.5,5.55,-0.43,883.1,31.05
4841951,-0.05,-0.07,0.95,2.38,5.19,-0.24,883.07,31.04
4841989,-0.05,-0.07,0.96,2.56,5.43,-0.31,883.09,31.04
4842028,-0.04,-0.06,0.95,2.62,5.43,-0.24,883.08,31.05
4842066,-0.04,-0.06,0.97,2.62,5.31,-0.18,883.11,31.04
4842115,-0.03,-0.07,0.96,2.32,5.68,-0.18,883.11,31.03
4842154,-0.04,-0.07,0.96,2.38,6.16,-0.18,883.12,31.03
4842192,-0.03,-0.07,0.97,2.38,6.1,-0.18,883.15,31.05
4842230,-0.04,-0.07,0.99,2.38,6.29,-0.12,883.17,31.05
4842268,-0.02,-0.07,0.96,2.38,5.8,-0.06,883.17,31.05
4842306,-0.04,-0.07,0.96,2.44,6.35,-0.12,883.14,31.06
4842344,-0.03,-0.07,0.95,2.2,6.29,-0.12,883.16,31.06
4842383,-0.03,-0.07,0.94,2.32,5.55,-0.12,883.23,31.07
4842421,-0.03,-0.07,0.91,2.01,5.92,-0.12,883.11,31.05
4842459,-0.03,-0.07,0.93,2.2,5.31,-0.31,883.11,31.06
4842535,-0.03,-0.07,0.95,1.77,4.09,-0.12,883.13,31.02
4842573,-0.02,-0.08,0.97,1.59,3.36,-0.12,883.12,31.03
4842611,-0.0,-0.07,0.99,1.46,2.38,-0.31,883.11,31.05
4842701,0.0,-0.08,0.98,1.22,-0.18,-0.61,883.11,30.99
4842739,-0.01,-0.07,0.95,0.79,-1.4,-0.92,883.08,31.01
4842777,-0.02,-0.07,0.96,0.85,-1.65,-0.92,883.08,31.01
4842815,-0.01,-0.08,0.95,0.55,-2.08,-1.04,883.1,31.0
4842853,-0.02,-0.07,0.97,0.67,-2.26,-1.4,883.09,31.01
4842892,-0.03,-0.07,0.98,0.49,-2.75,-1.59,883.09,31.02
4842941,-0.02,-0.07,0.99,0.49,-2.38,-1.89,883.11,31.01
4842979,-0.02,-0.07,1.0,0.61,-2.08,-2.14,883.2,31.04
4843018,-0.03,-0.06,1.03,0.67,-1.4,-2.44,883.24,31.02
4843056,-0.04,-0.07,1.0,0.73,-0.73,-2.44,883.26,31.02
4843094,-0.04,-0.06,1.02,0.73,-0.31,-2.75,883.29,31.03
4843132,-0.03,-0.06,1.01,0.85,1.34,-2.93,883.29,31.04
4843170,-0.03,-0.06,1.0,1.1,1.95,-3.17,883.29,31.02
4843208,-0.04,-0.06,1.03,1.1,2.62,-3.23,883.3,31.02
4843246,-0.05,-0.07,1.0,1.16,3.91,-3.3,883.25,31.01
4843296,-0.05,-0.06,1.02,1.4,4.7,-3.36,883.35,31.02
4843334,-0.05,-0.06,1.01,1.53,5.25,-3.42,883.31,31.02
4843372,-0.04,-0.05,1.02,1.77,5.8,-3.42,883.39,31.05
4843411,-0.04,-0.06,1.02,2.01,6.96,-3.3,883.34,31.03
4843449,-0.04,-0.05,1.02,2.14,7.32,-3.3,883.31,31.05
4843487,-0.05,-0.06,1.03,2.56,8.42,-3.11,883.29,31.04
4843525,-0.05,-0.06,1.0,2.5,9.09,-3.17,883.35,31.04
4843563,-0.05,-0.06,1.0,2.75,10.44,-3.05,883.31,31.05
4843601,-0.04,-0.06,0.98,3.11,10.8,-2.93,883.32,31.04
4843639,-0.05,-0.06,0.98,3.11,11.17,-2.75,883.37,31.05
4843689,-0.04,-0.06,0.95,3.42,12.08,-2.44,883.35,31.04
4843727,-0.03,-0.06,0.98,3.36,11.78,-2.38,883.38,31.04
4843766,-0.04,-0.06,0.95,3.54,12.21,-2.2,883.38,31.05
4843804,-0.03,-0.07,0.94,3.54,12.21,-2.14,883.36,31.06
4843842,-0.03,-0.06,0.95,3.6,12.21,-2.01,883.4,31.04
4843880,-0.02,-0.06,0.94,3.6,12.57,-1.89,883.39,31.05
4843918,-0.03,-0.06,0.95,3.48,12.7,-1.83,883.38,31.05
4843956,-0.03,-0.06,0.96,3.42,13.12,-1.77,883.39,31.04
4843995,-0.04,-0.06,0.97,3.11,13.18,-1.65,883.31,31.05
4844044,-0.03,-0.06,0.98,2.87,13.85,-1.59,883.37,31.05
4844082,-0.04,-0.06,0.97,2.5,13.92,-1.65,883.37,31.04
4844121,-0.03,-0.06,0.99,2.32,14.04,-1.46,883.44,31.05
4844159,-0.02,-0.06,0.99,2.08,13.98,-1.34,883.42,31.03
4844197,-0.04,-0.05,1.01,1.95,13.79,-1.28,883.49,31.06
4844235,-0.03,-0.06,1.0,1.77,13.55,-1.16,883.45,31.05
4844273,-0.03,-0.06,1.03,1.71,12.7,-1.16,883.44,31.04
4844311,-0.02,-0.05,1.01,1.34,12.82,-1.04,883.4,31.05
4844349,-0.02,-0.05,1.03,1.16,11.96,-1.04,883.46,31.05
4844399,-0.03,-0.06,1.04,1.1,11.9,-0.79,883.39,31.03
4844437,-0.03,-0.05,1.07,0.79,11.17,-0.67,883.49,31.04
4844475,-0.03,-0.05,1.08,0.79,11.72,-0.85,883.43,31.04
4844514,-0.02,-0.05,1.09,0.61,11.29,-0.79,883.49,31.03
4844552,-0.03,-0.05,1.11,0.61,11.29,-0.61,883.47,31.05
4844590,-0.01,-0.05,1.09,0.55,12.21,-0.61,883.48,31.03
4844628,-0.02,-0.04,1.11,0.61,12.51,-0.55,883.5,31.04
4844666,-0.01,-0.06,1.09,0.61,13.37,-0.49,883.45,31.04
4844704,-0.02,-0.06,1.08,0.61,13.73,-0.55,883.46,31.05
4844743,-0.03,-0.06,1.1,0.55,14.34,-0.49,883.47,31.04
4844793,-0.01,-0.05,1.12,0.55,14.77,-0.43,883.54,31.02
4844831,-0.01,-0.05,1.1,0.55,14.89,-0.37,883.46,31.03
4844869,-0.01,-0.06,1.11,0.49,15.14,-0.31,883.51,31.03
4844907,0.01,-0.06,1.13,0.31,14.53,-0.31,883.57,31.05
4844945,0.01,-0.05,1.12,0.0,14.34,-0.31,883.57,31.04
4844983,0.01,-0.05,1.12,-0.12,13.37,-0.18,883.53,31.05
4845021,0.01,-0.05,1.13,-0.24,13.0,-0.43,883.57,31.05
4845059,0.01,-0.06,1.15,-0.24,12.02,-0.49,883.55,31.05
4845098,0.02,-0.06,1.15,-0.61,11.29,-0.49,883.53,31.05
4845148,0.01,-0.05,1.15,-0.92,9.89,-0.61,883.56,31.04
4845186,0.01,-0.06,1.14,-1.1,9.34,-0.79,883.53,31.04
4845224,0.02,-0.06,1.14,-1.4,8.73,-0.92,883.57,31.05
4845262,0.03,-0.06,1.13,-1.65,8.48,-1.22,883.56,31.05
4845300,0.02,-0.06,1.09,-2.01,8.06,-1.53,883.65,31.07
4845338,0.02,-0.05,1.13,-2.32,7.63,-1.71,883.57,31.05
4845376,0.02,-0.06,1.13,-2.2,7.63,-2.01,883.59,31.05
4845415,0.03,-0.06,1.16,-2.44,6.84,-2.32,883.64,31.07
4845453,0.02,-0.07,1.14,-2.56,6.77,-2.5,883.6,31.05
4845529,0.02,-0.05,1.17,-2.44,5.62,-2.93,883.61,31.02
4845567,0.02,-0.06,1.15,-2.69,5.62,-3.17,883.58,31.03
4845605,0.02,-0.06,1.16,-2.69,5.37,-3.54,883.68,31.04
4845696,0.02,-0.05,1.18,-2.56,5.19,-4.27,883.68,31.0
4845734,0.02,-0.06,1.16,-2.44,4.7,-4.64,883.59,31.02
4845772,0.02,-0.05,1.17,-2.32,5.19,-5.07,883.63,31.03
4845810,0.02,-0.05,1.16,-2.26,5.49,-5.25,883.65,31.04
4845848,0.02,-0.05,1.16,-2.26,5.37,-5.68,883.64,31.03
4845887,0.02,-0.05,1.18,-2.14,5.8,-5.98,883.64,31.04
4845925,0.02,-0.05,1.18,-2.5,5.98,-6.53,883.66,31.03
4845975,0.01,-0.04,1.21,-2.44,6.1,-6.65,883.69,31.04
4846013,0.02,-0.04,1.22,-2.5,6.47,-6.96,883.64,31.04
4846051,0.01,-0.04,1.22,-2.5,6.59,-7.02,883.65,31.05
4846089,0.01,-0.03,1.24,-2.44,6.29,-7.26,883.56,31.04
4846128,0.0,-0.04,1.23,-2.38,6.9,-7.45,883.62,31.04
4846166,0.01,-0.04,1.21,-2.38,7.02,-7.87,883.72,31.06
4846204,0.01,-0.03,1.26,-2.26,6.84,-7.87,883.68,31.05
4846242,-0.0,-0.04,1.23,-2.08,7.02,-8.06,883.71,31.06
4846280,-0.01,-0.03,1.24,-2.08,7.08,-8.3,883.68,31.06
4846330,-0.0,-0.03,1.25,-2.01,7.87,-8.48,883.64,31.05
4846368,0.0,-0.01,1.3,-2.26,7.14,-8.61,883.64,31.06
4846407,-0.01,-0.02,1.32,-2.14,8.18,-8.67,883.66,31.06
4846445,-0.01,-0.02,1.34,-2.2,8.3,-8.73,883.69,31.06
4846483,-0.0,-0.02,1.35,-2.26,8.61,-8.85,883.64,31.06
4846521,-0.02,-0.01,1.34,-2.26,8.48,-8.91,883.71,31.06
4846559,-0.02,-0.01,1.33,-2.14,8.42,-8.85,883.7,31.06
4846598,-0.02,-0.01,1.33,-2.08,9.03,-9.03,883.68,31.06
4846636,-0.0,-0.02,1.33,-2.2,8.85,-9.28,883.74,31.07
4846674,-0.02,-0.03,1.33,-2.14,9.4,-9.22,883.68,31.05
4846724,-0.02,-0.01,1.32,-2.01,9.4,-9.16,883.77,31.06
4846762,-0.02,-0.01,1.31,-1.95,9.52,-9.16,883.71,31.06
4846800,-0.02,-0.02,1.29,-1.95,8.97,-8.97,883.71,31.07
4846838,-0.03,-0.02,1.26,-1.83,8.61,-8.97,883.68,31.06
4846877,-0.02,-0.03,1.26,-2.01,7.81,-8.97,883.65,31.06
4846915,-0.02,-0.03,1.21,-2.14,6.71,-8.97,883.66,31.07
4846953,-0.03,-0.03,1.2,-2.32,6.23,-9.09,883.69,31.06
4846991,-0.03,-0.04,1.18,-2.44,5.31,-8.73,883.67,31.07
4847029,-0.03,-0.04,1.17,-2.81,4.82,-8.79,883.68,31.08
4847079,-0.04,-0.03,1.14,-2.87,3.85,-8.73,883.68,31.06
4847117,-0.04,-0.03,1.18,-2.93,3.42,-8.67,883.66,31.07
4847155,-0.02,-0.04,1.17,-2.93,3.23,-8.91,883.61,31.06
4847194,-0.04,-0.03,1.2,-3.23,2.93,-8.67,883.68,31.06
4847232,-0.05,-0.03,1.19,-2.99,3.42,-8.79,883.67,31.08
4847270,-0.04,-0.03,1.18,-3.17,2.69,-8.73,883.66,31.07
4847308,-0.04,-0.02,1.19,-3.05,2.81,-8.91,883.68,31.05
4847346,-0.05,-0.03,1.17,-3.11,3.36,-8.73,883.65,31.06
4847384,-0.03,-0.03,1.17,-3.11,3.36,-8.61,883.68,31.07
4847434,-0.04,-0.02,1.19,-3.11,3.66,-8.73,883.67,31.06
4847472,-0.04,-0.03,1.2,-3.3,3.6,-8.61,883.7,31.06
4847511,-0.05,-0.03,1.21,-3.11,3.42,-8.61,883.64,31.07
4847549,-0.06,-0.03,1.21,-2.87,4.09,-8.79,883.72,31.07
4847587,-0.04,-0.03,1.19,-3.23,3.66,-8.73,883.69,31.07
4847625,-0.05,-0.01,1.21,-3.17,3.48,-8.54,883.66,31.07
4847663,-0.06,-0.03,1.18,-2.93,4.15,-8.48,883.67,31.05
4847701,-0.05,-0.03,1.18,-2.99,3.91,-8.42,883.62,31.06
4847740,-0.05,-0.02,1.2,-2.62,2.62,-8.3,883.64,31.06
4847778,-0.06,-0.03,1.16,-2.56,2.75,-8.24,883.67,31.07
4847828,-0.07,-0.02,1.16,-2.69,2.2,-7.93,883.64,31.06
4847866,-0.06,-0.04,1.13,-2.62,2.26,-7.75,883.59,31.06
4847904,-0.07,-0.03,1.16,-2.32,0.98,-7.69,883.63,31.06
4847942,-0.09,-0.03,1.12,-2.38,0.92,-7.39,883.64,31.06
4847980,-0.08,-0.03,1.09,-2.44,0.85,-7.08,883.58,31.06
4848019,-0.09,-0.04,1.07,-2.5,1.65,-7.14,883.62,31.06
4848057,-0.07,-0.04,1.03,-2.44,0.85,-6.96,883.62,31.05
4848095,-0.09,-0.04,1.02,-2.62,0.31,-6.71,883.63,31.06
4848133,-0.08,-0.05,0.98,-2.62,0.73,-6.47,883.55,31.06
4848183,-0.07,-0.04,1.04,-2.44,0.12,-6.23,883.55,31.04
4848221,-0.09,-0.04,1.03,-2.08,0.06,-6.04,883.6,31.06
4848259,-0.09,-0.05,1.0,-2.38,-0.37,-5.86,883.58,31.06
4848298,-0.09,-0.04,1.01,-2.32,0.06,-5.8,883.56,31.05
4848336,-0.09,-0.03,1.02,-2.2,0.12,-5.31,883.57,31.06
4848374,-0.09,-0.04,1.04,-2.26,-0.24,-5.13,883.56,31.05
4848412,-0.1,-0.04,1.02,-2.38,0.18,-5.07,883.6,31.07
4848450,-0.09,-0.03,1.05,-2.32,0.79,-4.94,883.59,31.06
4848488,-0.08,-0.04,1.08,-2.2,1.53,-4.7,883.56,31.06
4848564,-0.1,-0.03,1.1,-2.2,2.26,-4.52,883.61,31.04
4848602,-0.08,-0.04,1.09,-2.01,3.6,-4.46,883.59,31.05
4848640,-0.07,-0.03,1.11,-2.32,3.48,-4.27,883.67,31.06
4848730,-0.08,-0.04,1.12,-2.14,4.46,-3.91,883.59,31.0
4848768,-0.07,-0.03,1.12,-2.08,4.94,-4.09,883.65,31.02
4848806,-0.08,-0.02,1.12,-2.08,4.7,-4.03,883.61,31.03
4848844,-0.08,-0.04,1.12,-1.89,4.39,-3.72,883.63,31.04
4848882,-0.07,-0.04,1.13,-1.83,4.82,-3.66,883.67,31.03
4848920,-0.07,-0.03,1.12,-1.65,4.09,-3.6,883.65,31.05
4848959,-0.08,-0.03,1.13,-1.34,4.33,-3.36,883.56,31.02
4849009,-0.07,-0.03,1.13,-1.22,3.85,-3.42,883.55,31.03
4849047,-0.07,-0.03,1.19,-1.28,3.66,-3.3,883.64,31.03
4849085,-0.08,-0.03,1.13,-1.46,4.03,-3.3,883.61,31.04
4849123,-0.06,-0.02,1.23,-1.65,3.91,-3.11,883.63,31.04
4849161,-0.05,-0.03,1.22,-1.59,4.15,-3.17,883.65,31.04
4849199,-0.09,-0.02,1.19,-1.71,3.11,-2.87,883.62,31.04
4849238,-0.08,-0.02,1.2,-1.77,4.09,-2.75,883.7,31.06
4849276,-0.06,-0.03,1.18,-1.71,3.36,-2.87,883.7,31.05
4849314,-0.07,-0.02,1.2,-1.53,3.36,-2.75,883.71,31.05
4849364,-0.07,-0.03,1.14,-1.46,3.91,-2.44,883.7,31.03
4849402,-0.06,-0.04,1.11,-1.22,4.33,-2.44,883.71,31.04
4849440,-0.06,-0.04,1.03,-1.4,4.94,-2.62,883.75,31.04
4849478,-0.06,-0.03,1.05,-1.16,4.76,-2.5,883.73,31.04
4849517,-0.04,-0.06,1.02,-0.85,5.8,-2.87,883.76,31.04
4849555,-0.04,-0.05,0.99,-0.98,5.31,-2.75,883.81,31.06
4849593,-0.05,-0.04,0.99,-0.98,5.74,-2.5,883.8,31.04
4849631,-0.03,-0.05,0.97,-1.16,5.25,-2.5,883.72,31.04
4849669,-0.04,-0.04,0.98,-1.53,4.39,-2.62,883.75,31.05
4849719,-0.03,-0.06,0.98,-1.83,4.03,-2.56,883.71,31.05
4849757,-0.04,-0.06,0.96,-1.95,3.36,-2.56,883.73,31.05
4849796,-0.04,-0.04,0.99,-2.32,2.56,-2.56,883.8,31.05
4849834,-0.02,-0.05,1.02,-2.26,2.44,-2.69,883.8,31.06
4849872,-0.04,-0.05,0.97,-2.5,1.89,-2.75,883.82,31.07
4849910,-0.04,-0.04,1.01,-2.62,0.79,-2.62,883.8,31.06
4849948,-0.03,-0.05,0.99,-2.26,1.1,-2.69,883.81,31.06
4849987,-0.03,-0.05,1.0,-2.5,0.37,-2.87,883.83,31.08
4850025,-0.02,-0.05,1.02,-2.26,0.73,-3.05,883.8,31.07
4850075,-0.02,-0.04,1.05,-2.44,0.06,-3.17,883.84,31.06
4850113,-0.02,-0.04,1.05,-2.14,-0.06,-3.17,883.83,31.06
4850151,-0.01,-0.04,1.09,-1.89,-0.67,-3.23,883.86,31.06
4850189,-0.02,-0.04,1.09,-1.83,-1.1,-3.23,883.84,31.07
4850227,-0.02,-0.04,1.09,-1.53,-1.22,-3.54,883.87,31.06
4850265,-0.02,-0.04,1.11,-1.34,-1.4,-3.72,883.82,31.08
4850304,-0.01,-0.04,1.08,-1.16,-1.28,-3.66,883.93,31.09
4850342,-0.03,-0.03,1.08,-0.79,-2.08,-3.72,883.92,31.07
4850380,-0.01,-0.04,1.05,-0.55,-1.46,-3.85,883.91,31.09
4850418,-0.01,-0.04,1.04,-0.43,-1.65,-4.03,883.89,31.09
4850468,-0.01,-0.04,1.05,-0.12,-1.46,-4.21,883.88,31.06
4850506,-0.02,-0.05,1.04,0.0,-1.4,-4.33,883.93,31.08
4850545,-0.02,-0.05,1.05,-0.12,-1.1,-4.52,883.9,31.07
4850583,-0.01,-0.04,1.06,-0.06,-1.1,-4.76,883.93,31.08
4850621,-0.02,-0.04,1.04,0.12,-1.16,-4.82,883.96,31.07
4850659,-0.03,-0.04,1.01,0.37,-0.98,-5.07,883.9,31.08
4850697,-0.0,-0.04,1.01,0.37,-1.22,-5.0,883.91,31.06
4850735,-0.01,-0.04,1.0,0.43,-1.1,-5.25,883.97,31.09
4850774,-0.01,-0.04,0.99,0.31,-0.85,-5.25,883.95,31.08
4850823,-0.02,-0.05,1.0,0.18,-0.79,-5.49,883.92,31.06
4850862,-0.02,-0.04,1.03,0.12,-0.79,-5.68,883.93,31.07
4850900,-0.0,-0.04,1.04,0.12,-0.43,-5.8,883.96,31.07
4850938,-0.01,-0.04,1.02,0.24,0.12,-5.98,883.98,31.06
4850976,-0.01,-0.04,1.03,0.24,-0.37,-6.23,883.98,31.07
4851014,-0.01,-0.04,1.0,0.31,-0.24,-6.16,884.01,31.07
4851052,-0.02,-0.04,1.03,0.24,-1.22,-6.59,884.0,31.07
4851091,-0.02,-0.03,1.03,0.18,-1.16,-6.59,883.97,31.08
4851129,-0.03,-0.03,1.02,0.06,-1.34,-6.47,884.01,31.08
4851178,-0.01,-0.03,1.11,0.37,-1.77,-6.71,884.03,31.07
4851217,-0.02,-0.05,1.03,0.12,-1.04,-6.84,884.02,31.08
4851255,-0.04,-0.02,1.07,0.12,-1.89,-6.71,884.02,31.08
4851293,-0.01,-0.04,1.06,0.43,-0.79,-7.02,884.05,31.08
4851331,-0.04,-0.0,1.01,0.37,-1.59,-7.08,884.07,31.08
4851369,-0.04,-0.02,1.03,0.37,-1.65,-6.84,884.04,31.08
4851408,-0.05,-0.04,1.0,0.24,-1.77,-6.71,884.11,31.09
4851446,-0.03,-0.03,1.06,0.0,-1.77,-6.9,884.1,31.08
4851484,-0.04,-0.03,1.04,0.0,-1.46,-6.84,884.11,31.08
4851522,-0.06,-0.03,1.03,0.18,-1.53,-6.96,884.08,31.08
4851598,-0.03,-0.03,1.03,0.06,-0.67,-6.71,884.09,31.06
4851636,-0.05,-0.03,0.98,0.12,-0.24,-6.96,884.14,31.07
4851674,-0.05,-0.04,0.97,0.37,0.98,-7.02,884.08,31.06
4851763,-0.04,-0.03,0.96,0.18,1.16,-6.96,884.1,31.03
4851802,-0.05,-0.04,0.93,0.06,1.89,-7.14,884.15,31.05
4851840,-0.05,-0.04,0.92,0.18,2.2,-7.02,884.19,31.05
4851878,-0.05,-0.03,0.95,0.31,1.65,-6.9,884.14,31.04
4851916,-0.05,-0.04,0.94,0.37,0.98,-6.77,884.12,31.05
4851954,-0.03,-0.04,0.93,0.18,2.08,-6.77,884.13,31.04
4852004,-0.04,-0.03,0.94,0.18,2.32,-6.9,884.19,31.04
4852042,-0.05,-0.04,0.9,0.06,2.81,-6.71,884.17,31.04
4852080,-0.04,-0.03,0.99,0.12,2.44,-6.9,884.13,31.05
4852118,-0.04,-0.04,0.97,0.0,4.03,-6.71,884.17,31.05
4852156,-0.05,-0.03,1.02,0.31,3.36,-6.65,884.18,31.06
4852195,-0.06,-0.02,1.02,0.61,3.78,-6.71,884.2,31.07
4852233,-0.07,-0.02,1.07,1.04,2.99,-6.59,884.2,31.06
4852271,-0.04,-0.02,1.08,1.1,3.17,-6.29,884.2,31.06
4852309,-0.03,-0.02,1.1,1.04,3.54,-6.23,884.18,31.06
4852359,-0.05,-0.01,1.13,1.1,3.78,-5.98,884.25,31.07
4852397,-0.06,-0.0,1.09,0.67,3.78,-5.68,884.2,31.05
4852435,-0.06,-0.01,1.15,0.92,3.48,-5.86,884.23,31.06
4852473,-0.05,-0.03,1.09,0.73,4.52,-5.86,884.21,31.05
4852511,-0.04,-0.01,1.13,0.67,4.33,-5.92,884.29,31.06
4852550,-0.04,-0.01,1.1,0.98,5.0,-5.92,884.22,31.06
4852588,-0.03,-0.01,1.12,1.1,3.97,-5.92,884.31,31.06
4852626,-0.05,-0.02,1.14,1.4,4.64,-5.62,884.31,31.07
4852664,-0.04,-0.03,1.09,1.59,5.25,-5.8,884.31,31.08
4852702,-0.04,-0.01,1.11,1.59,5.19,-5.86,884.32,31.08
4852752,-0.05,-0.01,1.08,2.08,4.39,-5.62,884.34,31.07
4852790,-0.04,-0.02,1.09,2.38,4.27,-5.74,884.27,31.07
4852828,-0.05,-0.03,1.05,2.38,4.64,-5.74,884.33,31.08
4852867,-0.05,-0.02,1.11,2.2,4.52,-5.74,884.3,31.09
4852905,-0.07,-0.01,1.12,2.44,4.7,-5.62,884.29,31.09
4852943,-0.07,-0.01,1.14,2.44,4.15,-5.49,884.2,31.08
4852981,-0.07,-0.01,1.13,2.38,4.21,-5.55,884.29,31.08
4853019,-0.06,-0.01,1.12,2.5,3.36,-5.55,884.23,31.08
4853057,-0.05,-0.01,1.1,2.44,2.81,-5.43,884.28,31.09
4853107,-0.07,-0.01,1.05,2.32,2.01,-5.37,884.27,31.06
4853145,-0.07,-0.02,1.02,2.38,1.95,-5.07,884.26,31.08
4853184,-0.08,-0.03,1.02,2.81,0.92,-4.94,884.24,31.08
4853222,-0.09,-0.03,1.0,2.99,0.43,-4.94,884.32,31.08
4853260,-0.08,-0.03,1.0,2.99,0.0,-5.07,884.26,31.09
4853298,-0.07,-0.03,1.0,3.05,-0.43,-4.82,884.22,31.07
4853336,-0.08,-0.05,0.93,3.23,-0.31,-4.7,884.36,31.1
4853375,-0.08,-0.03,0.92,2.93,-0.92,-4.7,884.26,31.08
4853413,-0.08,-0.03,0.89,2.81,-0.43,-4.58,884.27,31.08
4853451,-0.1,-0.04,0.85,2.62,0.31,-4.58,884.28,31.08
4853501,-0.1,-0.03,0.86,2.26,1.28,-4.39,884.25,31.07
4853539,-0.1,-0.04,0.85,2.38,1.71,-4.46,884.3,31.08
4853577,-0.09,-0.04,0.85,2.56,2.08,-4.33,884.3,31.07
4853615,-0.08,-0.03,0.87,2.81,3.11,-4.21,884.37,31.07
4853653,-0.09,-0.05,0.83,3.17,3.85,-4.27,884.35,31.06
4853692,-0.1,-0.05,0.83,3.36,4.33,-4.15,884.42,31.06
4853730,-0.1,-0.04,0.82,3.36,5.07,-3.85,884.35,31.08
4853768,-0.1,-0.05,0.78,3.23,5.31,-3.85,884.39,31.08
4853806,-0.1,-0.04,0.83,2.99,4.09,-3.72,884.36,31.07
4853856,-0.1,-0.05,0.8,2.44,4.82,-3.36,884.39,31.07
4853894,-0.09,-0.05,0.86,2.01,4.27,-3.11,884.28,31.06
4853932,-0.11,-0.04,0.88,1.77,3.97,-2.87,884.34,31.06
4853970,-0.1,-0.04,0.89,1.46,2.93,-2.44,884.38,31.07
4854009,-0.09,-0.04,0.91,1.04,3.05,-2.08,884.36,31.06
4854047,-0.1,-0.04,0.93,0.98,2.99,-2.08,884.38,31.06
4854085,-0.11,-0.04,0.87,0.79,2.26,-1.77,884.37,31.07
4854123,-0.11,-0.02,0.92,0.73,0.79,-1.59,884.43,31.06
4854161,-0.1,-0.04,0.89,0.49,1.95,-1.34,884.48,31.07
4854199,-0.1,-0.04,0.92,0.18,1.16,-1.22,884.47,31.06
4854249,-0.09,-0.04,0.94,0.18,1.28,-0.79,884.51,31.04
4854287,-0.1,-0.04,0.96,-0.12,-0.24,-0.61,884.46,31.04
4854325,-0.09,-0.03,0.97,-0.43,0.06,-0.67,884.54,31.05
4854364,-0.08,-0.04,0.99,-0.49,-0.18,-0.37,884.52,31.05
4854402,-0.09,-0.04,1.01,-0.43,-0.31,-0.18,884.5,31.04
4854440,-0.09,-0.04,1.02,-0.55,-0.24,-0.18,884.59,31.04
4854478,-0.08,-0.04,1.03,-0.67,-0.12,-0.12,884.58,31.05
4854516,-0.08,-0.04,1.01,-0.49,-0.49,-0.12,884.58,31.05
4854554,-0.09,-0.04,1.01,-0.49,-0.49,-0.12,884.6,31.04
4854630,-0.08,-0.04,1.05,0.0,-0.92,0.06,884.64,31.03
4854668,-0.08,-0.04,1.02,0.24,-0.24,-0.06,884.68,31.04
4854706,-0.09,-0.03,1.02,0.49,-0.79,-0.06,884.71,31.04
4854796,-0.07,-0.04,1.05,0.92,-0.37,0.06,884.74,31.01
4854834,-0.07,-0.03,1.07,1.04,-0.61,0.24,884.76,31.03
4854872,-0.06,-0.03,1.04,0.92,-0.49,0.31,884.74,31.02
4854910,-0.06,-0.03,1.06,0.85,-1.04,0.43,884.8,31.04
4854948,-0.07,-0.04,1.05,0.79,-1.53,0.43,884.81,31.04
4854986,-0.07,-0.04,1.04,0.79,-2.08,0.43,884.83,31.04
4855036,-0.06,-0.04,1.0,0.98,-2.26,0.49,884.84,31.02
4855074,-0.05,-0.04,1.0,0.55,-2.14,0.49,884.85,31.05
4855113,-0.05,-0.04,0.98,0.61,-1.89,0.49,884.92,31.05
4855151,-0.07,-0.05,0.97,0.55,-1.89,0.43,884.87,31.05
4855189,-0.07,-0.05,0.98,0.37,-2.26,0.31,884.94,31.05
4855227,-0.05,-0.05,0.96,0.31,-1.89,0.24,884.91,31.05
4855265,-0.05,-0.05,0.99,0.18,-0.85,0.24,884.94,31.05
4855303,-0.05,-0.05,1.0,0.0,-0.67,0.06,884.99,31.05
4855341,-0.05,-0.04,1.02,-0.06,-0.37,0.18,884.94,31.05
4855379,-0.09,-0.04,1.01,-0.06,-0.49,0.0,884.98,31.06
4855429,-0.06,-0.04,1.02,-0.43,-0.18,0.0,885.02,31.03
4855467,-0.04,-0.04,1.02,-0.49,-0.43,-0.18,885.06,31.05
4855505,-0.05,-0.05,1.04,-0.37,-0.18,-0.12,885.02,31.05
4855543,-0.04,-0.06,1.03,-0.49,-0.61,-0.12,885.09,31.05
4855582,-0.03,-0.04,1.05,-0.37,-0.79,-0.18,885.11,31.04
4855620,-0.05,-0.04,1.03,-0.31,-0.73,-0.18,885.12,31.05
4855658,-0.05,-0.04,1.06,0.12,-0.73,-0.31,885.17,31.05
4855696,-0.04,-0.05,1.05,0.18,-0.31,-0.43,885.2,31.04
4855734,-0.04,-0.05,1.05,0.49,-0.18,-0.55,885.15,31.04
4855784,-0.03,-0.04,1.03,0.49,0.49,-0.67,885.21,31.04
4855822,-0.04,-0.04,1.04,0.85,0.67,-0.73,885.2,31.04
4855860,-0.04,-0.05,1.0,1.16,0.73,-0.85,885.26,31.05
4855898,-0.05,-0.05,1.01,1.28,0.79,-0.85,885.27,31.05
4855937,-0.06,-0.05,0.99,1.22,1.28,-0.85,885.26,31.04
4855975,-0.05,-0.05,1.0,1.4,1.16,-0.85,885.29,31.05
4856013,-0.05,-0.04,1.05,1.46,0.79,-0.98,885.28,31.05
4856051,-0.05,-0.05,1.04,1.77,0.43,-1.04,885.31,31.05
4856089,-0.04,-0.05,1.05,2.08,0.43,-1.1,885.33,31.07
4856127,-0.04,-0.05,1.04,2.01,0.49,-1.22,885.31,31.05
4856177,-0.04,-0.04,1.02,2.2,0.67,-0.98,885.39,31.06
4856215,-0.06,-0.04,1.02,2.32,0.55,-1.04,885.36,31.06
4856254,-0.05,-0.05,1.02,2.32,0.67,-1.28,885.33,31.06
4856292,-0.05,-0.05,1.01,2.14,0.61,-1.22,885.33,31.06
4856330,-0.05,-0.05,1.01,2.01,0.49,-1.16,885.34,31.06
4856368,-0.05,-0.05,1.01,2.26,0.67,-1.1,885.43,31.06
4856406,-0.04,-0.04,1.01,2.2,0.67,-1.22,885.4,31.05
4856444,-0.06,-0.05,0.99,2.38,1.16,-1.16,885.39,31.07
4856483,-0.05,-0.05,0.99,2.2,1.28,-1.04,885.42,31.05
4856532,-0.05,-0.05,0.98,2.26,1.34,-1.22,885.49,31.06
4856571,-0.05,-0.05,0.96,2.08,1.16,-1.22,885.42,31.04
4856609,-0.05,-0.05,0.97,2.14,1.4,-1.16,885.39,31.04
4856647,-0.05,-0.05,0.98,2.2,0.98,-1.16,885.44,31.04
4856685,-0.06,-0.05,0.96,2.26,1.28,-1.1,885.49,31.05
4856723,-0.05,-0.04,0.98,2.01,0.61,-1.1,885.45,31.05
4856761,-0.05,-0.04,0.98,1.59,0.92,-0.98,885.49,31.05
4856799,-0.07,-0.04,1.01,1.53,0.49,-0.79,885.49,31.05
4856838,-0.05,-0.05,1.06,1.77,0.49,-0.85,885.49,31.04
4856876,-0.04,-0.04,1.02,1.83,0.18,-0.85,885.51,31.04
4856926,-0.06,-0.03,1.09,1.65,0.06,-0.61,885.52,31.03
4856964,-0.06,-0.04,1.06,1.71,0.61,-0.61,885.55,31.04
4857002,-0.05,-0.03,1.13,1.46,-0.12,-0.55,885.57,31.04
4857040,-0.06,-0.03,1.12,1.53,0.37,-0.49,885.58,31.04
4857078,-0.05,-0.04,1.12,1.65,-0.12,-0.49,885.54,31.06
4857116,-0.05,-0.04,1.12,1.34,0.49,-0.67,885.57,31.03
4857154,-0.05,-0.04,1.1,1.77,0.31,-0.73,885.62,31.05
4857193,-0.05,-0.04,1.08,1.83,0.61,-0.61,885.6,31.04
4857231,-0.05,-0.04,1.06,1.83,1.46,-0.55,885.68,31.04
4857281,-0.06,-0.04,1.04,1.71,1.4,-0.67,885.63,31.02
4857319,-0.05,-0.04,1.03,1.77,1.28,-0.61,885.64,31.03
4857357,-0.04,-0.04,1.06,1.46,0.85,-0.49,885.68,31.04
4857395,-0.06,-0.05,1.04,1.34,1.65,-0.43,885.69,31.04
4857433,-0.08,-0.04,1.03,1.34,1.53,-0.49,885.7,31.05
4857471,-0.07,-0.04,1.07,1.46,2.14,-0.31,885.7,31.04
4857510,-0.05,-0.05,1.01,1.22,2.2,-0.37,885.67,31.05
4857548,-0.07,-0.03,1.07,0.79,2.38,-0.31,885.69,31.05
4857586,-0.06,-0.05,1.02,0.79,3.48,-0.31,885.73,31.05
4857662,-0.06,-0.04,1.09,0.85,4.03,-0.18,885.7,31.02
4857700,-0.07,-0.04,1.08,0.92,3.66,0.0,885.76,31.04
4857738,-0.07,-0.03,1.16,1.04,4.58,-0.18,885.75,31.03
4857827,-0.06,-0.03,1.19,1.28,3.78,0.24,885.7,31.0
4857865,-0.06,-0.04,1.19,1.1,3.05,0.43,885.71,31.01
4857903,-0.06,-0.03,1.24,1.46,2.62,0.49,885.78,31.01
4857942,-0.06,-0.04,1.19,1.71,2.69,0.67,885.73,31.02
4857980,-0.08,-0.03,1.19,1.71,1.4,0.92,885.79,31.02
4858018,-0.09,-0.03,1.14,1.95,1.59,1.16,885.8,31.03
4858056,-0.08,-0.03,1.12,2.14,2.2,1.22,885.84,31.02
4858106,-0.07,-0.03,1.09,1.34,2.38,1.1,885.8,31.03
4858144,-0.08,-0.04,1.15,1.77,4.03,1.28,885.82,31.01
4858182,-0.06,-0.05,1.07,1.77,5.25,1.34,885.82,31.02
4858220,-0.08,-0.03,1.09,1.95,4.94,1.46,885.83,31.02
4858259,-0.08,-0.05,1.01,1.95,6.53,1.65,885.81,31.02
4858297,-0.07,-0.05,0.98,1.71,5.74,1.77,885.88,31.03
4858335,-0.08,-0.04,0.97,1.95,6.96,1.83,885.96,31.04
4858373,-0.06,-0.08,0.94,1.89,7.08,2.14,885.87,31.03
4858411,-0.05,-0.08,0.94,1.71,7.45,1.89,885.91,31.04
4858449,-0.06,-0.05,0.94,1.53,7.14,2.26,885.98,31.03
4858499,-0.06,-0.06,0.97,1.71,5.43,2.44,885.88,31.02
4858537,-0.07,-0.05,0.99,1.65,4.52,2.69,885.89,31.03
4858575,-0.04,-0.06,1.03,1.34,4.64,2.56,885.87,31.02
4858614,-0.04,-0.06,1.0,0.98,4.09,2.75,885.98,31.01
4858652,-0.06,-0.04,1.07,0.98,4.03,2.81,885.89,31.02
4858690,-0.05,-0.06,1.06,0.98,4.64,2.62,885.95,31.01
4858728,-0.07,-0.06,1.1,1.16,4.09,2.5,885.92,31.02
4858766,-0.05,-0.06,1.12,1.22,5.37,2.56,885.94,31.02
4858805,-0.05,-0.05,1.09,1.16,4.21,2.69,885.95,31.02
4858855,-0.07,-0.04,1.09,1.46,5.25,2.56,885.97,31.01
4858893,-0.04,-0.07,1.07,1.46,6.29,2.62,886.0,31.02
4858931,-0.04,-0.07,1.13,1.77,6.59,2.44,885.96,31.03
4858969,-0.04,-0.07,1.06,1.95,6.71,2.69,886.04,31.03
4859007,-0.03,-0.05,1.07,1.95,6.65,2.44,886.0,31.04
4859045,-0.03,-0.06,1.05,1.89,7.39,2.44,886.0,31.04
4859084,-0.03,-0.07,1.04,1.89,6.29,2.38,886.03,31.03
4859122,-0.02,-0.07,1.04,1.83,6.04,2.38,886.04,31.05
4859160,-0.03,-0.06,1.02,1.53,4.46,2.2,886.04,31.05
4859198,-0.01,-0.06,1.03,1.04,3.85,2.32,885.97,31.04
4859248,-0.02,-0.07,1.03,0.85,3.36,2.08,886.03,31.05
4859286,-0.04,-0.07,1.04,0.73,2.38,1.89,886.01,31.05
4859324,-0.03,-0.07,1.06,0.67,2.01,1.83,885.95,31.05
4859363,-0.01,-0.06,1.05,0.43,1.71,1.71,886.03,31.05
4859401,-0.02,-0.06,1.06,0.24,1.89,1.4,885.99,31.06
4859439,-0.03,-0.07,1.04,-0.12,1.46,1.46,886.05,31.05
4859477,-0.03,-0.06,1.08,-0.12,0.49,1.28,886.04,31.04
4859515,-0.03,-0.06,1.06,-0.31,1.04,1.16,886.03,31.05
4859553,-0.03,-0.05,1.11,-0.31,-0.31,1.1,886.02,31.04
4859592,-0.02,-0.06,1.11,-0.12,0.61,0.79,886.04,31.05
4859641,-0.02,-0.05,1.11,-0.24,-0.12,0.85,886.03,31.03
4859680,-0.04,-0.06,1.08,-0.12,0.31,0.79,886.09,31.05
4859718,-0.04,-0.05,1.09,0.06,-0.55,0.67,886.07,31.05
4859756,-0.04,-0.05,1.13,0.49,-0.06,0.31,886.11,31.05
4859794,-0.04,-0.06,1.08,0.67,0.18,0.43,886.06,31.05
4859832,-0.05,-0.05,1.11,0.98,0.67,0.37,886.07,31.04
4859870,-0.05,-0.06,1.07,0.98,0.31,0.37,886.05,31.04
4859908,-0.03,-0.05,1.05,1.04,0.55,0.18,886.07,31.03
4859947,-0.04,-0.04,1.04,1.22,0.98,0.12,886.0,31.03
4859996,-0.05,-0.06,1.02,1.22,1.34,0.06,886.01,31.03
4860034,-0.05,-0.05,1.04,1.53,2.56,-0.06,886.06,31.05
4860073,-0.06,-0.06,1.02,1.59,1.65,0.06,886.09,31.04
4860111,-0.07,-0.05,1.05,1.65,1.59,0.12,886.04,31.05
4860149,-0.04,-0.06,1.02,1.46,2.26,0.06,886.03,31.04
4860187,-0.04,-0.04,1.06,1.28,2.75,0.12,886.06,31.04
4860225,-0.06,-0.05,1.02,1.4,2.62,0.31,886.07,31.03
4860263,-0.07,-0.05,1.02,1.71,2.69,0.24,886.09,31.05
4860301,-0.06,-0.06,1.03,2.01,2.32,0.43,886.07,31.04
4860340,-0.06,-0.06,0.99,2.26,2.93,0.55,886.11,31.05
4860389,-0.06,-0.05,0.99,2.56,2.5,0.49,886.1,31.04
4860427,-0.05,-0.07,0.98,2.69,2.69,0.55,886.08,31.04
4860466,-0.06,-0.06,1.01,2.81,3.11,0.49,886.08,31.05
4860504,-0.05,-0.07,1.0,2.62,2.93,0.79,886.11,31.05
4860542,-0.06,-0.05,0.99,2.56,2.81,0.73,885.99,31.04
4860580,-0.06,-0.05,0.96,2.62,2.93,0.85,886.06,31.05
4860618,-0.04,-0.07,0.96,2.5,3.17,0.92,886.07,31.06
4860656,-0.03,-0.06,0.98,2.56,2.93,0.79,886.17,31.05
4860694,-0.06,-0.07,0.92,2.99,2.75,0.98,886.07,31.05
4860771,-0.05,-0.07,0.87,3.11,3.23,0.92,886.11,31.01
4860810,-0.06,-0.06,0.87,3.11,3.11,1.1,886.13,31.04
4860848,-0.04,-0.08,0.85,2.87,3.36,1.1,886.1,31.03
4860937,-0.05,-0.07,0.91,2.81,2.93,0.85,886.1,31.01
4860975,-0.05,-0.08,0.89,2.56,3.05,0.85,886.08,31.01
4861013,-0.05,-0.05,0.94,2.44,2.87,0.67,886.14,31.03
4861052,-0.04,-0.06,0.92,2.26,4.03,0.85,886.1,31.03
4861090,-0.06,-0.07,0.9,2.01,3.78,0.73,886.14,31.03
4861128,-0.07,-0.07,0.94,2.01,2.69,0.61,886.06,31.02
4861166,-0.06,-0.06,0.92,2.2,4.52,0.85,886.08,31.04
4861216,-0.03,-0.06,0.9,2.2,4.52,1.1,886.12,31.02
4861254,-0.07,-0.06,0.89,2.56,4.76,0.98,886.17,31.03
4861292,-0.06,-0.07,0.91,2.81,4.7,0.79,886.11,31.03
4861330,-0.03,-0.07,0.92,3.05,4.7,0.98,886.14,31.04
4861368,-0.04,-0.06,0.93,2.87,4.52,0.92,886.12,31.04
4861406,-0.04,-0.07,0.89,2.81,5.0,1.04,886.13,31.04
4861445,-0.06,-0.06,0.95,2.81,4.39,0.92,886.11,31.03
4861483,-0.02,-0.07,0.92,2.69,4.94,0.98,886.12,31.04
4861521,-0.04,-0.07,0.89,2.69,5.25,0.73,886.15,31.04
4861559,-0.05,-0.06,0.88,2.93,5.31,0.73,886.17,31.04
4861609,-0.03,-0.07,0.87,2.99,5.07,0.67,886.15,31.03
4861647,-0.04,-0.07,0.85,2.87,5.19,0.55,886.12,31.03
4861685,-0.04,-0.07,0.83,2.69,6.04,0.67,886.06,31.02
4861723,-0.04,-0.07,0.85,2.69,7.39,0.55,886.17,31.04
4861761,-0.05,-0.07,0.86,2.44,7.08,0.37,886.15,31.04
4861800,-0.05,-0.06,0.86,2.44,6.29,0.49,886.14,31.04
4861838,-0.05,-0.05,0.89,2.26,6.84,0.43,886.17,31.04
4861876,-0.05,-0.06,0.95,2.5,6.53,0.31,886.14,31.03
4861914,-0.03,-0.07,0.94,2.56,6.23,0.31,886.16,31.03
4861964,-0.07,-0.06,0.99,2.38,6.65,0.37,886.21,31.02
4862002,-0.04,-0.06,0.96,2.38,6.96,0.43,886.13,31.03
4862040,-0.05,-0.04,0.98,1.95,5.55,0.43,886.13,31.03
4862078,-0.07,-0.05,0.96,2.14,5.68,0.61,886.16,31.02
4862116,-0.06,-0.05,1.0,2.14,4.76,0.67,886.16,31.03
4862155,-0.06,-0.05,1.0,2.26,5.43,0.79,886.23,31.03
4862193,-0.08,-0.05,0.99,2.32,4.88,0.98,886.2,31.03
4862231,-0.08,-0.06,0.99,2.69,5.31,1.04,886.17,31.04
4862269,-0.06,-0.06,0.95,2.5,5.25,0.98,886.17,31.03
4862307,-0.08,-0.05,0.94,2.75,5.8,1.04,886.19,31.03
4862357,-0.08,-0.06,0.87,2.93,6.53,1.28,886.19,31.02
4862395,-0.08,-0.04,0.9,2.81,5.98,1.28,886.19,31.03
4862433,-0.06,-0.06,0.89,3.3,5.92,1.65,886.19,31.04
4862472,-0.06,-0.06,0.85,3.3,5.98,1.65,886.25,31.04
4862510,-0.04,-0.05,0.85,3.48,5.98,1.77,886.25,31.03
4862548,-0.06,-0.06,0.82,3.54,5.74,1.83,886.26,31.03
4862586,-0.05,-0.05,0.83,3.42,4.52,2.14,886.23,31.02
4862624,-0.06,-0.06,0.8,3.36,5.43,2.08,886.22,31.03
4862662,-0.06,-0.07,0.78,3.17,4.7,2.08,886.25,31.03
4862700,-0.04,-0.06,0.8,2.75,4.27,2.38,886.31,31.04
4862750,-0.06,-0.07,0.75,2.69,4.52,2.26,886.26,31.01
4862788,-0.04,-0.06,0.82,2.69,4.09,2.32,886.29,31.01
4862827,-0.06,-0.07,0.79,2.38,4.39,2.26,886.28,31.01
4862865,-0.05,-0.06,0.77,2.32,3.78,2.38,886.28,31.03
4862903,-0.05,-0.06,0.8,2.26,3.85,2.44,886.3,31.02
4862941,-0.04,-0.07,0.79,2.14,3.23,2.38,886.28,31.01
4862979,-0.05,-0.07,0.84,2.14,2.2,2.5,886.31,31.01
4863017,-0.03,-0.07,0.89,1.95,1.65,2.44,886.25,31.0
4863055,-0.03,-0.06,0.9,2.08,1.4,2.26,886.36,31.01
4863105,-0.02,-0.07,0.91,1.95,0.37,2.44,886.35,31.0
4863143,-0.03,-0.06,0.96,1.71,0.24,2.32,886.37,31.01
4863181,-0.05,-0.07,0.96,1.34,-0.06,2.26,886.36,31.03
4863220,-0.04,-0.05,0.98,1.04,-0.92,2.14,886.4,31.02
4863258,-0.04,-0.05,1.03,0.85,-1.1,2.14,886.39,31.02
4863296,-0.03,-0.06,1.03,0.85,-1.16,1.95,886.38,31.01
4863334,-0.03,-0.05,1.06,0.92,-1.28,1.59,886.39,31.02
4863372,-0.04,-0.06,1.05,1.22,-0.61,1.59,886.45,31.03
4863410,-0.04,-0.05,1.06,1.22,-0.37,1.53,886.41,31.03
4863448,-0.04,-0.05,1.06,1.22,0.67,1.28,886.48,31.04
4863498,-0.04,-0.05,1.08,1.46,1.1,1.1,886.44,31.03
4863536,-0.04,-0.07,1.07,1.46,2.32,0.92,886.49,31.01
4863574,-0.03,-0.06,1.09,1.4,1.95,0.79,886.46,31.02
4863613,-0.03,-0.05,1.1,1.4,3.48,0.61,886.51,31.01
4863651,-0.04,-0.05,1.1,1.59,3.11,0.67,886.52,31.01
4863689,-0.04,-0.06,1.13,1.77,3.72,0.55,886.49,31.01
4863727,-0.02,-0.07,1.1,1.83,3.48,0.37,886.55,31.02
4863765,-0.03,-0.06,1.05,1.89,4.7,0.31,886.58,31.03
4863803,-0.02,-0.06,0.99,2.38,5.98,0.12,886.6,31.03
4863841,-0.04,-0.07,0.91,2.56,5.8,-0.18,886.58,31.03
4863917,-0.05,-0.07,0.85,3.11,7.69,-0.31,886.59,31.0
4863955,-0.03,-0.09,0.79,2.87,7.87,-0.49,886.63,31.02
4863994,-0.04,-0.07,0.74,2.62,7.02,-0.49,886.64,31.02
4864083,-0.04,-0.07,0.75,1.34,4.76,-0.55,886.6,30.99
4864121,-0.04,-0.08,0.75,0.98,4.39,-0.37,886.59,31.0
4864159,-0.06,-0.07,0.81,0.61,4.39,-0.24,886.56,31.0
4864197,-0.06,-0.07,0.82,0.18,3.48,-0.24,886.62,31.01
4864236,-0.06,-0.08,0.89,0.0,2.93,-0.24,886.62,31.01
4864274,-0.04,-0.08,0.91,-0.31,3.91,-0.37,886.65,31.02
4864324,-0.04,-0.07,0.9,-0.31,3.85,-0.31,886.62,31.01
4864362,-0.06,-0.06,0.91,-0.18,3.36,-0.18,886.69,31.03
4864400,-0.06,-0.06,0.94,-0.43,3.48,-0.24,886.67,31.03
4864438,-0.06,-0.07,0.98,-0.55,3.48,-0.24,886.63,31.0
4864476,-0.04,-0.08,1.01,-0.61,3.97,-0.31,886.69,31.02
4864514,-0.05,-0.06,1.02,-0.67,3.17,-0.24,886.71,31.04
4864552,-0.05,-0.05,1.08,-0.55,2.93,-0.06,886.64,31.03
4864591,-0.05,-0.06,1.09,-0.24,3.48,-0.06,886.73,31.03
4864629,-0.06,-0.06,1.12,-0.31,3.11,-0.12,886.72,31.03
4864678,-0.06,-0.05,1.13,-0.18,2.81,0.06,886.73,31.01
4864717,-0.07,-0.05,1.15,-0.12,2.81,0.06,886.76,31.02
4864755,-0.06,-0.06,1.15,-0.12,2.99,-0.12,886.76,31.02
4864793,-0.05,-0.05,1.16,0.12,2.75,0.0,886.77,31.03
4864831,-0.05,-0.06,1.16,0.0,2.26,0.24,886.77,31.02
4864869,-0.05,-0.06,1.16,0.24,2.01,0.12,886.78,31.02
4864907,-0.05,-0.05,1.16,0.18,1.4,-0.06,886.81,31.03
4864945,-0.06,-0.05,1.16,0.55,0.85,0.12,886.74,31.02
4864983,-0.05,-0.06,1.16,0.61,0.85,0.0,886.77,31.03
4865021,-0.05,-0.06,1.15,0.79,1.1,0.0,886.73,31.02
4865071,-0.07,-0.07,1.11,0.85,1.34,-0.12,886.76,31.01
4865109,-0.08,-0.05,1.12,0.98,0.31,-0.12,886.8,31.01
4865148,-0.08,-0.06,1.08,0.85,0.55,0.0,886.81,31.03
4865186,-0.07,-0.06,1.09,0.92,0.49,-0.06,886.83,31.01
4865224,-0.07,-0.06,1.07,1.16,1.22,0.0,886.88,31.01
4865262,-0.06,-0.06,1.06,0.92,1.22,-0.06,886.79,31.01
4865300,-0.08,-0.06,1.06,0.98,1.04,0.06,886.82,31.01
4865338,-0.08,-0.06,1.03,1.1,1.65,0.06,886.88,31.01
4865376,-0.07,-0.06,1.04,1.04,2.14,-0.12,886.88,31.02
4865415,-0.08,-0.07,1.0,1.04,2.14,0.12,886.86,31.02
4865464,-0.07,-0.06,0.98,0.92,2.01,0.31,886.87,31.01
4865502,-0.07,-0.07,0.95,0.92,2.62,0.31,886.89,31.02
4865541,-0.07,-0.07,0.96,0.67,1.89,0.37,886.91,31.03
4865579,-0.07,-0.06,0.94,0.92,2.32,0.37,886.92,31.01
4865617,-0.09,-0.07,0.91,0.55,1.59,0.31,886.88,31.03
4865655,-0.09,-0.06,0.93,0.49,0.73,0.61,886.9,31.02
4865693,-0.06,-0.07,0.94,0.55,0.67,0.79,886.87,31.02
4865731,-0.07,-0.06,0.99,0.18,0.55,0.73,886.86,31.03
4865770,-0.07,-0.06,1.05,0.43,0.98,0.79,886.87,31.01
4865820,-0.05,-0.05,1.24,0.0,1.1,0.79,886.9,31.01
4865858,-0.05,-0.05,1.3,0.06,2.32,0.85,886.89,31.01
4865896,-0.07,-0.05,1.32,0.31,2.26,0.85,886.94,31.03
4865934,-0.06,-0.05,1.35,0.85,2.81,0.92,886.92,31.01
4865972,-0.04,-0.05,1.29,1.04,1.83,0.67,886.99,31.03
4866010,-0.05,-0.04,1.27,1.22,0.92,1.04,887.0,31.02
4866048,-0.04,-0.06,1.23,1.65,1.77,0.73,886.97,31.01
4866087,-0.05,-0.06,1.2,1.83,1.04,0.55,887.0,31.03
4866125,-0.06,-0.06,1.23,2.01,0.67,0.98,886.97,31.02
4866163,-0.06,-0.03,1.18,1.95,1.34,0.73,887.0,31.02
4866213,-0.07,-0.05,1.18,2.32,1.59,0.43,886.99,31.0
4866251,-0.04,-0.06,1.16,2.38,1.65,0.43,887.02,31.01
4866289,-0.05,-0.06,1.15,2.14,1.71,0.49,886.95,31.0
4866327,-0.05,-0.07,1.13,2.2,2.2,0.55,887.02,31.0
4866365,-0.05,-0.07,1.12,2.2,2.62,0.43,886.98,31.01
4866403,-0.06,-0.06,1.1,2.08,2.99,0.43,887.05,31.01
4866442,-0.06,-0.07,1.08,1.95,2.75,0.12,887.04,31.02
4866480,-0.05,-0.07,1.09,1.89,2.81,0.31,887.04,31.0
4866518,-0.04,-0.07,1.07,1.65,3.36,0.24,887.01,31.0
4866556,-0.04,-0.07,1.08,1.77,3.23,0.24,886.99,31.0
4866606,-0.05,-0.07,1.09,1.65,2.93,0.24,887.0,30.98
4866644,-0.05,-0.07,1.1,1.4,2.93,0.37,887.04,31.0
4866682,-0.05,-0.07,1.1,1.46,3.05,0.24,887.05,31.0
4866720,-0.06,-0.07,1.09,1.16,2.44,0.31,887.04,31.0
4866758,-0.05,-0.06,1.1,1.22,2.56,0.37,887.02,31.02
4866797,-0.06,-0.07,1.07,1.22,2.5,0.24,887.11,31.01
4866835,-0.06,-0.06,1.06,1.28,2.56,0.37,887.01,31.0
4866873,-0.07,-0.06,1.06,1.34,2.5,0.43,887.07,31.0
4866911,-0.06,-0.07,1.04,1.4,2.81,0.49,886.99,31.01
4866987,-0.05,-0.06,1.07,1.28,3.17,0.49,887.07,30.98
4867025,-0.05,-0.06,1.07,1.53,3.11,0.61,887.0,30.98
4867063,-0.07,-0.06,1.08,1.53,3.17,0.49,887.01,31.0
4867153,-0.07,-0.05,1.07,1.59,2.93,0.55,886.99,30.96
4867191,-0.07,-0.06,1.06,1.83,2.93,0.67,887.06,30.98
4867229,-0.07,-0.06,1.06,2.14,2.87,0.55,887.05,30.99
4867267,-0.06,-0.06,1.05,2.26,3.11,0.85,887.0,30.98
4867305,-0.06,-0.06,1.02,2.38,2.5,0.98,887.03,30.97
4867344,-0.08,-0.06,1.02,2.44,2.75,0.79,887.02,31.0
4867382,-0.07,-0.06,1.0,2.44,2.5,1.1,887.0,30.99
4867431,-0.07,-0.06,1.0,2.5,2.32,1.1,887.05,30.98
4867470,-0.07,-0.06,1.0,2.44,2.32,1.34,887.04,30.99
4867508,-0.07,-0.07,0.98,2.44,2.44,1.34,887.02,30.99
4867546,-0.07,-0.07,0.97,2.56,1.95,1.71,887.05,31.0
4867584,-0.07,-0.07,0.95,2.56,1.59,1.59,887.06,30.99
4867622,-0.08,-0.07,0.95,2.38,1.65,1.71,887.05,31.0
4867660,-0.06,-0.06,0.97,2.44,1.71,1.71,887.0,31.0
4867698,-0.06,-0.07,0.96,2.38,1.77,1.77,887.05,30.99
4867736,-0.06,-0.07,0.96,2.44,2.01,1.77,886.99,30.99
4867786,-0.06,-0.07,0.93,2.5,2.38,1.83,887.03,30.98
4867824,-0.06,-0.07,0.91,2.44,1.77,1.77,886.99,30.98
4867863,-0.08,-0.06,0.93,2.38,2.44,1.89,887.03,30.99
4867901,-0.07,-0.07,0.9,2.5,2.69,2.01,887.05,31.0
4867939,-0.07,-0.06,0.95,2.14,2.56,2.01,887.05,31.0
4867977,-0.06,-0.07,0.94,2.38,3.05,2.01,887.01,30.99
4868015,-0.07,-0.07,0.94,2.14,3.54,1.95,887.02,31.01
4868053,-0.06,-0.06,0.96,2.26,3.66,2.08,887.06,31.01
4868092,-0.06,-0.07,0.97,1.95,3.54,2.26,887.01,31.01
4868130,-0.06,-0.07,0.96,1.77,3.66,2.2,887.02,30.99
4868179,-0.05,-0.06,0.97,2.01,3.3,2.2,887.06,31.0
4868218,-0.06,-0.07,0.95,1.95,3.11,2.32,887.02,31.0
4868256,-0.06,-0.06,0.96,2.08,2.44,2.2,887.01,30.99
4868294,-0.06,-0.07,0.95,2.08,2.38,2.38,887.02,31.02
4868332,-0.06,-0.07,0.95,1.95,2.01,2.44,886.97,31.0
4868370,-0.06,-0.06,0.94,2.14,1.65,2.5,887.02,31.0
4868408,-0.05,-0.06,0.93,2.2,1.71,2.56,887.03,31.01
4868446,-0.06,-0.06,0.92,1.95,1.77,2.5,887.06,31.01
4868485,-0.07,-0.07,0.91,2.2,1.53,2.62,887.03,31.0
4868523,-0.06,-0.07,0.91,2.08,1.89,2.56,887.05,31.0
4868572,-0.06,-0.07,0.9,1.89,1.89,2.56,887.05,30.98
4868611,-0.06,-0.07,0.91,1.53,2.2,2.56,887.06,30.99
4868649,-0.07,-0.07,0.91,1.34,2.32,2.75,886.98,30.98
4868687,-0.07,-0.06,0.93,1.46,1.95,2.69,887.05,31.0
4868725,-0.06,-0.07,0.93,1.22,2.26,2.87,887.05,31.01
4868763,-0.05,-0.06,0.94,0.98,2.08,2.87,887.09,31.0
4868801,-0.06,-0.07,0.96,1.16,2.32,2.56,887.05,31.01
4868839,-0.05,-0.07,0.94,1.04,2.01,2.75,887.02,31.01
4868878,-0.06,-0.06,0.98,0.85,2.01,2.87,887.08,31.01
4868927,-0.05,-0.06,0.98,1.16,2.01,2.81,887.03,31.0
4868965,-0.06,-0.06,1.0,1.22,1.46,2.69,887.07,31.01
4869004,-0.06,-0.06,0.98,1.46,2.01,2.69,887.08,31.01
4869042,-0.06,-0.06,0.99,1.1,2.01,2.62,887.11,31.01
4869080,-0.05,-0.07,0.98,1.46,2.44,2.75,887.07,31.01
4869118,-0.07,-0.07,0.96,1.46,1.77,2.75,887.06,31.0
4869156,-0.07,-0.06,0.98,1.65,2.14,2.75,887.09,31.01
4869194,-0.06,-0.07,0.96,1.65,2.44,2.69,887.05,31.0
4869232,-0.05,-0.06,0.97,1.71,2.38,2.81,887.07,31.01
4869271,-0.06,-0.07,0.95,1.77,2.56,2.87,887.0,31.0
4869320,-0.07,-0.06,0.95,1.95,2.81,2.87,887.09,30.99
4869358,-0.05,-0.06,0.94,1.95,2.99,2.87,887.09,31.0
4869397,-0.07,-0.06,0.92,1.95,2.99,2.81,887.11,31.0
4869435,-0.08,-0.05,0.93,2.26,2.87,2.87,887.05,31.0
4869473,-0.07,-0.06,0.92,2.2,2.87,2.75,887.08,31.0
4869511,-0.06,-0.07,0.9,2.14,3.17,2.99,887.12,31.0
4869549,-0.06,-0.07,0.9,2.2,3.05,2.99,887.1,30.99
4869587,-0.07,-0.07,0.89,2.2,3.3,3.23,887.08,30.99
4869625,-0.07,-0.07,0.87,2.2,3.36,3.17,887.07,31.0
4869663,-0.07,-0.07,0.88,2.2,4.03,3.23,887.13,31.01
4869713,-0.07,-0.07,0.88,1.89,4.46,3.48,887.11,30.98
4869751,-0.06,-0.07,0.89,1.65,5.07,3.6,887.11,31.0
4869789,-0.06,-0.07,0.91,1.71,5.49,3.54,887.08,31.0
4869828,-0.06,-0.07,0.94,1.65,6.29,3.78,887.11,31.0
4869866,-0.07,-0.06,0.93,1.59,6.59,3.78,887.16,31.0
4869904,-0.06,-0.06,0.95,1.53,6.96,3.85,887.05,30.99
4869942,-0.05,-0.06,0.98,1.46,6.9,3.78,887.1,31.0
4869980,-0.06,-0.06,0.99,1.28,6.96,3.97,887.04,31.0
4870018,-0.05,-0.06,1.02,1.04,7.69,3.97,887.07,31.0
4870094,-0.06,-0.07,1.08,0.85,7.57,3.97,887.11,30.97
4870132,-0.06,-0.06,1.08,1.1,7.63,4.15,887.11,30.98
4870170,-0.04,-0.06,1.09,1.04,7.93,3.85,887.07,31.0
4870260,-0.05,-0.06,1.12,1.28,8.36,4.21,887.05,30.94
4870298,-0.04,-0.06,1.14,1.53,7.93,4.15,887.1,30.97
4870336,-0.06,-0.06,1.13,1.71,8.54,4.15,887.12,30.98
4870374,-0.05,-0.05,1.1,1.71,7.45,4.27,887.09,30.98
4870412,-0.05,-0.05,1.11,1.77,7.81,4.27,887.11,30.98
4870451,-0.06,-0.06,1.06,1.95,7.32,4.27,887.09,30.98
4870489,-0.07,-0.05,1.11,2.08,6.47,4.58,887.12,30.98
4870539,-0.05,-0.07,1.08,2.32,6.47,4.64,887.14,30.96
4870577,-0.05,-0.06,1.12,2.01,6.29,4.76,887.13,30.96
4870615,-0.06,-0.06,1.11,2.14,6.47,4.7,887.12,30.97
4870653,-0.04,-0.06,1.09,2.2,6.04,4.94,887.16,30.98
4870691,-0.04,-0.06,1.08,2.14,5.74,4.7,887.17,30.99
4870729,-0.04,-0.06,1.07,2.2,5.43,4.94,887.18,30.98
4870768,-0.05,-0.06,1.05,1.95,5.13,4.94,887.11,30.98
4870806,-0.05,-0.07,1.04,2.2,4.82,4.88,887.14,30.99
4870844,-0.04,-0.07,1.05,1.83,4.7,4.88,887.22,31.0
4870882,-0.01,-0.06,1.05,1.77,4.46,4.76,887.15,31.0
4870932,-0.03,-0.06,1.05,1.65,4.09,5.07,887.16,30.97
4870970,-0.02,-0.07,1.02,1.65,3.78,4.64,887.19,30.99
4871008,-0.03,-0.07,1.01,1.77,2.87,4.58,887.22,30.99
4871046,-0.03,-0.07,0.97,1.65,2.87,4.33,887.09,31.0
4871084,-0.01,-0.07,0.98,1.59,2.38,4.39,887.13,30.98
4871122,-0.02,-0.08,0.96,1.65,2.93,4.15,887.2,30.99
4871161,-0.02,-0.07,0.96,1.34,2.26,4.09,887.17,30.99
4871199,-0.02,-0.07,0.97,1.34,2.32,3.91,887.17,31.0
4871237,-0.03,-0.08,0.97,1.22,1.83,3.72,887.19,30.99
4871287,-0.03,-0.06,1.0,1.28,1.71,3.6,887.16,30.98
4871325,-0.02,-0.08,0.97,1.34,1.95,3.42,887.19,30.99
4871363,-0.02,-0.07,0.99,1.04,1.59,3.23,887.14,31.0
4871401,-0.02,-0.07,0.99,1.34,1.65,3.17,887.17,30.99
4871439,-0.03,-0.07,0.98,1.4,1.71,3.05,887.18,30.99
4871477,-0.04,-0.08,0.96,1.4,2.14,2.69,887.21,31.0
4871515,-0.03,-0.08,0.94,1.53,1.95,2.69,887.17,30.98
4871554,-0.04,-0.08,0.92,1.34,2.38,2.38,887.2,30.98
4871592,-0.04,-0.07,0.92,1.46,2.69,2.26,887.21,30.98
4871630,-0.03,-0.07,0.93,1.4,3.42,2.14,887.19,31.0
4871680,-0.04,-0.08,0.94,1.4,3.11,1.89,887.15,30.99
4871718,-0.04,-0.08,0.95,1.22,3.91,2.08,887.18,30.98
4871756,-0.04,-0.07,0.98,1.16,3.17,1.89,887.17,30.98
4871794,-0.04,-0.07,0.99,1.28,3.23,1.89,887.22,30.97
4871832,-0.02,-0.06,1.01,1.04,3.11,1.83,887.18,30.99
4871870,-0.03,-0.06,1.04,1.1,3.23,1.83,887.2,30.97
4871909,-0.03,-0.06,1.04,1.16,3.3,1.59,887.2,30.99
4871947,-0.03,-0.06,1.04,1.34,3.23,1.71,887.12,30.98
4871985,-0.03,-0.07,1.05,1.16,3.66,1.4,887.2,30.99
4872023,-0.03,-0.06,1.04,0.85,3.54,1.28,887.13,30.98
4872073,-0.03,-0.06,1.03,1.22,3.6,1.1,887.17,30.97
4872111,-0.04,-0.07,1.02,1.53,3.6,0.92,887.17,30.98
4872149,-0.04,-0.07,1.0,1.53,3.36,1.04,887.21,30.98
4872187,-0.05,-0.06,0.97,1.71,3.85,1.04,887.21,30.99
4872225,-0.04,-0.07,0.97,1.83,3.91,0.79,887.17,30.98
4872264,-0.03,-0.07,0.98,1.71,4.21,0.73,887.24,31.0
4872302,-0.04,-0.07,0.96,1.53,4.46,0.79,887.26,30.98
4872340,-0.04,-0.06,0.97,1.46,4.58,0.67,887.25,31.0
4872378,-0.05,-0.07,0.94,1.53,4.46,0.43,887.2,30.98
4872428,-0.04,-0.07,0.97,1.53,4.52,0.61,887.21,30.98
4872466,-0.05,-0.07,0.95,1.34,5.25,0.61,887.18,30.98
4872504,-0.05,-0.06,0.95,1.4,5.43,0.49,887.12,30.98
4872542,-0.06,-0.06,0.98,1.34,5.0,0.37,887.22,30.98
4872580,-0.05,-0.07,0.99,1.53,5.43,0.49,887.18,30.98
4872619,-0.04,-0.06,1.0,1.46,5.19,0.55,887.22,30.97
4872657,-0.05,-0.05,1.02,1.46,4.88,0.55,887.23,30.99
4872695,-0.07,-0.06,0.99,1.59,5.74,0.49,887.19,30.98
4872733,-0.04,-0.06,0.99,1.65,5.49,0.55,887.14,30.98
4872771,-0.05,-0.05,1.01,1.83,5.68,0.37,887.1,30.99
4872821,-0.06,-0.06,0.97,1.95,5.62,0.55,887.13,30.97
4872859,-0.06,-0.06,1.02,2.01,5.92,0.43,887.21,30.98
4872897,-0.04,-0.06,1.0,2.14,6.04,0.55,887.22,30.99
4872935,-0.06,-0.06,1.01,2.26,6.04,0.55,887.17,30.99
4872974,-0.06,-0.05,1.04,2.56,6.1,0.55,887.19,30.98
4873012,-0.06,-0.05,1.02,2.44,6.23,0.73,887.16,30.99
4873050,-0.06,-0.05,1.04,2.62,5.98,0.79,887.17,31.0
4873088,-0.05,-0.05,1.01,2.5,6.41,0.79,887.16,31.0
4873126,-0.06,-0.05,1.03,2.56,5.98,0.73,887.15,31.0
4873164,-0.05,-0.06,1.03,2.75,6.47,0.79,887.14,30.99
4873240,-0.06,-0.05,1.0,2.75,5.92,0.98,887.18,30.96
4873278,-0.06,-0.06,0.98,2.69,6.16,1.1,887.14,30.96
4873316,-0.06,-0.05,1.0,2.75,5.74,1.34,887.14,30.98
4873406,-0.06,-0.05,1.0,2.93,5.92,1.4,887.18,30.94
4873444,-0.05,-0.06,0.99,2.87,5.8,1.4,887.14,30.96
4873482,-0.06,-0.06,1.0,2.75,5.31,1.22,887.2,30.96
4873520,-0.03,-0.06,0.99,2.81,5.8,1.46,887.19,30.98
4873558,-0.06,-0.06,1.0,3.17,6.1,1.53,887.22,30.98
4873596,-0.06,-0.06,1.0,3.05,5.43,1.28,887.17,30.98
4873646,-0.07,-0.06,0.97,3.05,5.86,1.65,887.08,30.96
4873684,-0.06,-0.05,1.0,3.36,6.04,1.53,887.13,30.97
4873722,-0.05,-0.07,0.99,3.36,6.77,1.65,887.16,30.98
4873760,-0.06,-0.06,0.99,3.36,6.29,1.71,887.14,30.99
4873799,-0.05,-0.06,1.0,3.3,5.98,1.59,887.12,31.0
4873837,-0.05,-0.06,0.95,3.17,5.62,1.71,887.16,31.0
4873875,-0.06,-0.06,0.97,3.48,4.64,2.01,887.13,31.0
4873913,-0.05,-0.07,0.91,3.23,4.39,2.08,887.13,31.0
4873951,-0.05,-0.05,0.92,3.05,2.56,1.83,887.17,31.0
4873989,-0.07,-0.06,0.9,3.36,3.54,1.95,887.1,31.0
4874039,-0.06,-0.06,0.88,3.3,2.14,2.38,887.17,31.0
4874077,-0.07,-0.06,0.9,3.23,2.56,2.2,887.1,31.02
4874115,-0.06,-0.07,0.83,2.93,1.65,2.2,887.2,31.01
4874153,-0.06,-0.05,0.89,2.87,1.95,2.26,887.17,31.01
4874191,-0.05,-0.07,0.82,3.17,2.44,2.32,887.13,31.01
4874230,-0.07,-0.06,0.85,2.99,1.16,2.44,887.2,31.02
4874268,-0.04,-0.07,0.79,3.23,2.26,2.44,887.21,31.03
4874306,-0.06,-0.07,0.82,3.36,1.59,2.38,887.14,31.02
4874344,-0.06,-0.07,0.78,3.17,1.53,2.56,887.17,31.04
4874382,-0.06,-0.06,0.82,2.87,0.98,2.44,887.19,31.03
4874432,-0.06,-0.06,0.79,2.5,1.77,2.38,887.14,31.01
4874470,-0.04,-0.06,0.87,2.32,0.92,2.56,887.21,31.03
4874508,-0.06,-0.07,0.84,2.2,1.95,2.38,887.17,31.03
4874547,-0.05,-0.06,0.87,2.38,2.14,2.56,887.16,31.03
4874585,-0.03,-0.06,0.89,2.69,2.81,2.44,887.23,31.04
4874623,-0.05,-0.06,0.87,2.81,2.62,2.32,887.23,31.03
4874661,-0.07,-0.07,0.85,3.11,3.48,2.32,887.21,31.03
4874699,-0.03,-0.06,0.83,3.48,4.15,2.14,887.25,31.05
4874737,-0.04,-0.06,0.81,3.36,4.58,2.08,887.21,31.04
4874787,-0.06,-0.05,0.82,3.48,5.0,2.08,887.21,31.02
4874825,-0.04,-0.06,0.82,3.48,6.59,2.01,887.21,31.03
4874864,-0.04,-0.05,0.89,3.42,6.84,2.2,887.19,31.03
4874902,-0.05,-0.07,0.85,3.66,6.84,2.26,887.26,31.03
4874940,-0.06,-0.05,0.88,3.66,6.9,2.08,887.23,31.04
4874978,-0.04,-0.05,0.9,3.72,7.51,2.14,887.2,31.03
4875016,-0.03,-0.05,0.91,3.54,5.98,2.38,887.26,31.04
4875054,-0.04,-0.05,0.93,3.85,5.43,2.56,887.26,31.05
4875092,-0.05,-0.06,0.88,3.66,4.94,2.32,887.19,31.04
4875131,-0.03,-0.05,0.93,3.78,3.91,2.32,887.26,31.03
4875180,-0.04,-0.06,0.89,3.6,2.62,2.5,887.2,31.03
4875219,-0.04,-0.06,0.91,3.36,2.01,2.32,887.23,31.04
4875257,-0.03,-0.07,0.89,3.05,2.38,2.14,887.26,31.05
4875295,-0.03,-0.05,0.91,2.69,1.77,2.08,887.25,31.05
4875333,-0.04,-0.06,0.9,2.01,1.46,2.01,887.25,31.06
4875371,-0.04,-0.06,0.91,1.59,1.65,1.77,887.23,31.06
4875409,-0.03,-0.06,0.95,1.04,2.08,1.59,887.23,31.05
4875447,-0.03,-0.06,0.95,0.79,2.2,1.4,887.32,31.06
4875486,-0.04,-0.05,0.97,0.67,2.32,1.28,887.32,31.07
4875524,-0.02,-0.05,0.98,0.85,2.81,1.22,887.26,31.06
4875574,-0.03,-0.05,1.0,1.1,2.62,1.04,887.27,31.05
4875612,-0.04,-0.05,1.0,1.22,2.44,0.67,887.33,31.06
4875650,-0.04,-0.06,0.99,1.34,2.81,0.79,887.33,31.08
4875688,-0.03,-0.05,0.98,1.46,2.38,0.61,887.33,31.07
4875726,-0.05,-0.05,0.99,1.59,3.05,0.55,887.33,31.07
4875764,-0.05,-0.06,0.96,1.59,2.87,0.43,887.31,31.07
4875802,-0.05,-0.05,0.99,1.65,2.69,0.37,887.28,31.07
4875840,-0.04,-0.05,0.99,1.65,2.87,0.43,887.36,31.09
4875879,-0.05,-0.05,0.98,1.65,2.87,0.43,887.43,31.09
4875928,-0.04,-0.04,1.0,1.65,3.3,0.31,887.35,31.07
4875966,-0.03,-0.05,1.01,1.71,2.87,0.31,887.34,31.07
4876005,-0.05,-0.05,1.01,1.59,2.81,0.37,887.36,31.08
4876043,-0.05,-0.05,1.02,1.77,2.99,0.43,887.36,31.1
4876081,-0.05,-0.05,1.03,2.08,2.99,0.49,887.35,31.09
4876119,-0.03,-0.05,1.04,2.32,2.56,0.24,887.42,31.1
4876157,-0.04,-0.07,1.01,2.38,2.62,0.43,887.43,31.1
4876195,-0.06,-0.05,0.98,2.62,2.32,0.37,887.42,31.09
4876233,-0.05,-0.05,0.95,2.81,2.56,0.49,887.48,31.09
4876272,-0.05,-0.05,0.93,2.56,2.75,0.55,887.41,31.09
4876347,-0.06,-0.05,0.93,2.75,2.44,0.43,887.45,31.07
4876386,-0.05,-0.06,0.95,2.69,2.44,0.43,887.44,31.07
4876424,-0.05,-0.05,0.97,2.56,1.89,0.43,887.41,31.07
4876513,-0.05,-0.06,0.98,2.08,2.44,0.55,887.47,31.05
4876551,-0.06,-0.05,1.03,2.26,2.2,0.79,887.4,31.06
4876590,-0.07,-0.05,0.99,2.08,2.38,0.73,887.4,31.06
4876628,-0.06,-0.05,1.0,2.38,1.46,0.73,887.44,31.06
4876666,-0.05,-0.06,0.96,2.32,2.5,1.1,887.48,31.08
4876704,-0.07,-0.05,0.97,2.32,2.5,0.92,887.43,31.07
4876742,-0.07,-0.06,0.96,2.44,3.05,1.16,887.45,31.07
4876792,-0.07,-0.06,0.98,2.69,2.75,0.98,887.47,31.06
4876830,-0.07,-0.05,0.94,2.81,2.81,1.16,887.49,31.06
4876868,-0.06,-0.05,0.94,2.81,2.81,1.34,887.48,31.07
4876906,-0.06,-0.06,0.91,2.87,2.99,1.34,887.53,31.08
4876944,-0.07,-0.07,0.89,2.75,2.99,1.46,887.51,31.07
4876983,-0.07,-0.07,0.9,2.75,3.48,1.65,887.57,31.06
4877021,-0.07,-0.06,0.86,2.44,3.42,1.65,887.48,31.06
4877059,-0.07,-0.05,0.88,2.44,4.27,1.77,887.55,31.08
4877097,-0.08,-0.06,0.86,2.01,5.25,1.71,887.49,31.06
4877147,-0.07,-0.05,0.92,1.89,6.35,1.71,887.51,31.06
4877185,-0.07,-0.05,0.94,1.4,6.71,1.71,887.53,31.07
4877223,-0.06,-0.05,0.97,1.34,6.96,1.95,887.53,31.06
4877261,-0.06,-0.05,1.01,1.59,6.84,1.89,887.55,31.08
4877299,-0.07,-0.05,1.0,1.77,6.47,2.01,887.54,31.07
4877337,-0.06,-0.05,1.03,1.95,6.77,2.14,887.6,31.07
4877375,-0.04,-0.05,1.04,2.5,5.98,2.32,887.6,31.08
4877414,-0.04,-0.05,1.05,2.69,4.94,2.26,887.61,31.07
4877452,-0.06,-0.05,1.0,2.81,4.52,2.38,887.63,31.07
4877490,-0.05,-0.05,1.02,2.93,3.91,2.38,887.62,31.07
4877540,-0.06,-0.05,0.99,2.75,2.56,2.93,887.62,31.06
4877578,-0.05,-0.04,1.01,2.44,1.4,2.93,887.7,31.07
4877616,-0.05,-0.05,0.98,2.38,1.77,2.93,887.6,31.08
4877654,-0.05,-0.05,0.98,2.01,0.24,3.05,887.66,31.07
4877692,-0.04,-0.06,0.96,1.89,0.55,3.48,887.66,31.07
4877730,-0.07,-0.07,0.9,1.59,-0.92,3.23,887.64,31.06
4877768,-0.05,-0.06,0.93,1.77,-1.1,3.23,887.68,31.07
4877807,-0.04,-0.07,0.86,1.71,-1.04,3.05,887.69,31.07
4877845,-0.04,-0.06,0.89,1.4,-2.69,3.36,887.68,31.09
4877883,-0.06,-0.06,0.86,0.98,-1.95,3.3,887.66,31.09
4877933,-0.06,-0.06,0.9,0.73,-2.62,3.42,887.68,31.08
4877971,-0.05,-0.06,0.93,0.31,-2.62,3.36,887.72,31.08
4878009,-0.07,-0.05,0.94,0.06,-2.99,3.23,887.71,31.07
4878047,-0.04,-0.05,0.97,0.12,-2.38,3.23,887.79,31.08
4878085,-0.03,-0.06,0.95,0.12,-1.53,3.11,887.77,31.08
4878123,-0.04,-0.05,0.98,0.31,-1.53,3.05,887.75,31.08
4878162,-0.06,-0.06,0.92,0.49,-0.55,2.93,887.77,31.09
4878200,-0.05,-0.06,0.91,0.67,-0.12,2.81,887.86,31.08
4878238,-0.05,-0.06,0.88,0.49,1.46,2.69,887.85,31.08
4878288,-0.04,-0.06,0.93,0.61,1.46,2.69,887.86,31.07
4878326,-0.04,-0.06,0.9,0.49,2.2,2.26,887.85,31.08
4878364,-0.04,-0.06,0.94,0.12,1.53,2.56,887.86,31.07
4878402,-0.05,-0.06,0.93,0.06,2.87,2.56,887.88,31.07
4878440,-0.04,-0.06,0.97,0.0,2.2,2.44,887.85,31.07
4878478,-0.06,-0.06,0.97,0.18,2.56,2.38,887.85,31.08
4878516,-0.05,-0.06,0.97,0.37,2.81,2.38,887.88,31.06
4878554,-0.06,-0.06,0.98,0.55,3.48,2.2,887.89,31.06
4878593,-0.05,-0.05,0.98,1.04,3.66,2.14,887.91,31.06
4878631,-0.04,-0.05,1.0,0.98,3.78,2.2,887.92,31.07
4878681,-0.07,-0.05,1.01,1.46,4.21,2.08,887.91,31.07
4878719,-0.05,-0.05,1.05,1.53,4.82,2.14,887.9,31.07
4878757,-0.06,-0.05,1.07,1.89,4.03,2.14,887.97,31.07
4878795,-0.07,-0.04,1.05,2.01,4.09,2.38,887.88,31.07
4878833,-0.05,-0.04,1.04,1.89,4.09,2.44,887.85,31.07
4878871,-0.05,-0.05,1.06,2.08,3.66,2.32,887.92,31.09
4878909,-0.06,-0.06,1.04,2.26,3.72,2.69,887.96,31.08
4878947,-0.03,-0.05,1.08,2.2,4.27,2.32,887.98,31.08
4878986,-0.06,-0.04,1.15,2.26,3.54,2.5,887.99,31.08
4879035,-0.06,-0.06,1.05,2.14,3.85,2.5,887.97,31.06
4879073,-0.04,-0.05,1.15,2.5,3.42,2.38,887.98,31.08
4879112,-0.04,-0.07,1.07,2.69,4.33,2.32,888.0,31.07
4879150,-0.03,-0.03,1.11,2.32,2.69,2.5,888.06,31.07
4879188,-0.04,-0.04,1.05,2.56,3.05,2.75,888.0,31.06
4879226,-0.04,-0.06,1.07,2.14,2.08,2.5,887.95,31.06
4879264,-0.06,-0.06,1.08,2.01,2.26,2.56,888.06,31.06
4879302,-0.05,-0.08,1.07,2.01,1.34,2.69,888.12,31.07
4879340,-0.03,-0.06,1.05,2.08,0.92,2.5,888.11,31.08
4879379,-0.05,-0.05,0.98,1.95,0.55,2.56,888.12,31.06
4879528,-0.05,-0.06,0.9,1.04,0.0,2.56,888.19,30.99
4879566,-0.06,-0.07,0.88,0.61,-0.18,2.62,888.19,31.0
4879605,-0.05,-0.07,0.92,0.49,0.43,2.69,888.07,31.01
4879694,-0.06,-0.06,0.92,0.31,1.65,2.56,888.16,30.96
4879732,-0.05,-0.06,0.93,0.67,2.56,2.44,888.17,30.98
4879771,-0.05,-0.06,0.93,0.79,2.75,2.32,888.14,30.99
4879809,-0.07,-0.06,0.94,1.04,3.05,2.5,888.17,31.0
4879847,-0.05,-0.07,0.95,1.16,3.97,2.38,888.12,31.02
4879885,-0.05,-0.06,0.97,1.46,4.64,2.08,888.17,31.01
4879923,-0.05,-0.06,0.97,1.53,5.31,2.32,888.19,31.01
4879973,-0.06,-0.06,0.98,1.77,5.86,2.32,888.23,31.0
4880011,-0.08,-0.05,0.98,1.83,5.92,2.26,888.16,31.0
4880049,-0.07,-0.05,1.0,2.01,6.47,2.5,888.21,31.01
4880088,-0.07,-0.06,0.99,2.5,6.1,2.62,888.25,31.02
4880126,-0.06,-0.05,1.01,2.56,6.29,2.5,888.24,31.01
4880164,-0.05,-0.06,1.0,2.69,6.16,2.81,888.2,31.03
4880202,-0.05,-0.06,1.0,2.75,6.23,2.93,888.24,31.03
4880240,-0.07,-0.06,0.98,2.99,6.23,3.05,888.32,31.04
4880278,-0.06,-0.06,0.99,3.05,6.1,3.05,888.3,31.03
4880328,-0.06,-0.06,0.97,3.23,6.04,3.17,888.29,31.02
4880366,-0.06,-0.06,0.97,3.36,5.74,3.23,888.28,31.01
4880405,-0.06,-0.07,0.97,3.23,6.53,3.23,888.36,31.02
4880443,-0.06,-0.07,0.92,3.3,6.23,3.3,888.35,31.02
4880481,-0.06,-0.05,0.96,3.3,5.86,3.48,888.28,31.03
4880519,-0.07,-0.07,0.92,3.42,7.08,3.42,888.3,31.02
4880557,-0.06,-0.07,0.93,3.23,6.41,3.48,888.32,31.01
4880595,-0.06,-0.06,0.92,3.23,5.98,3.54,888.36,31.01
4880633,-0.05,-0.08,0.89,2.93,5.55,3.78,888.41,31.05
4880672,-0.06,-0.06,0.9,2.93,5.19,3.72,888.34,31.02
4880721,-0.06,-0.07,0.89,2.81,4.58,3.85,888.32,31.01
4880760,-0.07,-0.07,0.88,2.56,3.78,3.91,888.41,31.01
4880798,-0.05,-0.05,0.92,2.32,3.3,3.97,888.35,31.02
4880836,-0.05,-0.06,0.9,2.08,3.97,3.85,888.44,31.04
4880874,-0.06,-0.07,0.92,1.89,2.99,4.15,888.4,31.03
4880912,-0.04,-0.06,0.93,1.65,3.42,4.09,888.44,31.03
4880950,-0.06,-0.06,0.91,1.77,3.3,4.09,888.4,31.02
4880989,-0.04,-0.06,0.94,1.46,2.81,4.09,888.45,31.02
4881027,-0.05,-0.07,0.94,1.46,2.93,4.21,888.47,31.03
4881065,-0.05,-0.07,0.92,1.4,2.99,4.15,888.47,31.02
4881115,-0.06,-0.06,0.95,1.59,3.11,3.85,888.5,31.02
4881153,-0.04,-0.07,0.93,1.65,3.72,3.91,888.45,31.03
4881191,-0.06,-0.06,0.94,1.4,3.54,3.78,888.47,31.03
4881229,-0.05,-0.07,0.91,1.4,4.52,3.78,888.48,31.02
4881267,-0.05,-0.07,0.96,1.46,4.39,3.6,888.56,31.03
4881306,-0.05,-0.07,1.0,1.83,5.31,3.54,888.54,31.04
4881344,-0.04,-0.07,0.98,1.65,5.62,3.66,888.58,31.03
4881382,-0.04,-0.05,1.03,1.53,5.55,3.48,888.61,31.05
4881420,-0.04,-0.05,1.07,1.71,5.37,3.42,888.55,31.04
4881470,-0.04,-0.05,1.1,1.53,4.7,3.54,888.6,31.02
4881508,-0.05,-0.06,1.09,1.46,4.64,3.36,888.63,31.03
4881546,-0.04,-0.06,1.1,1.59,4.64,3.3,888.58,31.02
4881584,-0.03,-0.05,1.09,1.46,3.6,3.48,888.58,31.03
4881622,-0.05,-0.06,1.06,1.89,3.42,3.42,888.6,31.03
4881660,-0.04,-0.05,1.05,2.01,2.99,3.23,888.69,31.03
4881698,-0.03,-0.06,1.06,2.38,3.17,3.36,888.73,31.03
4881737,-0.03,-0.06,1.05,2.56,2.62,3.42,888.69,31.04
4881775,-0.04,-0.07,1.03,2.56,3.42,3.23,888.72,31.05
4881813,-0.04,-0.07,0.99,2.44,3.42,2.93,888.74,31.03
4881863,-0.04,-0.06,0.99,2.69,3.23,3.05,888.72,31.03
4881901,-0.03,-0.06,0.94,2.56,3.17,2.87,888.73,31.03
4881939,-0.03,-0.06,0.94,2.44,3.48,2.69,888.75,31.05
4881977,-0.03,-0.07,0.94,2.2,3.23,2.75,888.75,31.05
4882015,-0.04,-0.07,0.95,2.14,2.87,2.62,888.77,31.04
4882053,-0.05,-0.06,0.96,2.08,3.05,2.5,888.77,31.04
4882092,-0.04,-0.06,0.98,2.14,3.54,2.62,888.75,31.03
4882130,-0.03,-0.07,0.97,2.32,3.78,2.38,888.82,31.04
4882168,-0.03,-0.06,0.98,2.44,3.36,2.32,888.85,31.05
4882206,-0.05,-0.06,0.97,2.26,4.09,2.38,888.8,31.04
4882256,-0.03,-0.06,0.97,2.26,4.21,2.38,888.8,31.03
4882294,-0.04,-0.06,1.0,2.01,3.66,2.14,888.84,31.04
4882332,-0.05,-0.07,0.97,2.2,3.3,2.08,888.85,31.03
4882370,-0.04,-0.07,0.98,2.2,4.21,1.95,888.87,31.02
4882408,-0.03,-0.07,0.97,2.08,4.27,1.89,888.88,31.04
4882447,-0.04,-0.06,0.95,2.08,4.33,1.77,888.94,31.03
4882485,-0.04,-0.06,0.97,1.89,4.21,1.71,888.84,31.03
4882523,-0.05,-0.06,0.99,2.08,4.58,1.65,888.89,31.03
4882561,-0.04,-0.07,0.99,1.95,4.46,1.71,888.92,31.02
4882637,-0.03,-0.05,1.05,2.26,5.19,1.59,888.94,31.0
4882675,-0.03,-0.06,1.08,2.08,4.7,1.53,888.87,31.0
4882713,-0.05,-0.06,1.08,2.38,5.25,1.34,888.95,31.02
4882803,-0.02,-0.06,1.08,2.87,5.55,1.16,888.89,30.98
4882841,-0.03,-0.05,1.07,2.81,4.46,1.22,888.98,31.0
4882879,-0.02,-0.05,1.07,2.87,4.52,1.28,888.99,31.01
4882917,-0.03,-0.06,1.08,2.81,4.21,1.28,888.96,31.01
4882955,-0.04,-0.05,1.11,2.81,4.33,1.28,888.97,31.02
4882993,-0.06,-0.06,1.1,2.99,4.82,1.04,888.98,31.01
4883031,-0.03,-0.05,1.09,2.99,5.43,0.79,889.02,31.02
4883081,-0.03,-0.07,1.04,3.42,6.47,0.61,889.05,31.0
4883119,-0.04,-0.06,0.98,3.3,6.77,0.67,889.11,31.01
4883158,-0.03,-0.06,1.0,3.6,6.9,0.55,889.05,31.01
4883196,-0.04,-0.07,0.91,3.48,7.02,0.31,889.04,31.0
4883234,-0.02,-0.05,1.0,3.17,6.47,0.24,889.08,31.01
4883272,-0.01,-0.08,0.98,3.3,7.75,0.06,889.14,31.01
4883310,-0.03,-0.08,1.0,3.05,7.39,0.06,889.1,31.01
4883348,-0.01,-0.06,1.05,3.05,7.45,0.06,889.15,31.02
4883386,-0.03,-0.06,1.01,2.93,7.26,15.56,889.15,31.02
4883424,-0.03,-0.05,1.07,2.62,6.16,0.0,889.05,31.01
4883474,-0.03,-0.07,1.04,2.56,5.86,-0.06,889.12,31.0
4883512,-0.02,-0.07,1.06,2.2,5.13,-0.06,889.1,31.01
4883550,-0.03,-0.05,1.05,2.26,5.37,0.06,889.14,31.01
4883589,-0.03,-0.06,1.08,2.69,4.46,-0.06,889.14,31.02
4883627,-0.03,-0.07,1.08,2.69,4.39,-0.06,889.16,31.03
4883665,-0.04,-0.06,1.06,2.62,3.91,-0.31,889.15,31.01
4883703,-0.05,-0.06,1.06,2.81,4.7,-0.18,889.23,31.02
4883741,-0.03,-0.06,1.05,2.69,4.27,-0.24,889.18,31.03
4883779,-0.03,-0.05,1.08,2.69,3.36,-0.18,889.19,31.04
4883829,-0.05,-0.07,1.02,2.62,4.52,-0.18,889.2,31.02
4883867,-0.04,-0.06,1.05,2.5,4.88,-0.37,889.2,31.03
4883905,-0.04,-0.06,1.05,2.99,5.43,-0.31,889.22,31.02
4883943,-0.05,-0.06,1.0,2.75,4.82,-0.18,889.22,31.02
4883982,-0.06,-0.06,1.0,2.87,5.19,-0.24,889.27,31.03
4884020,-0.05,-0.07,0.99,2.69,5.62,-0.18,889.25,31.03
4884058,-0.04,-0.06,1.03,2.87,4.88,-0.18,889.2,31.02
4884096,-0.04,-0.07,0.96,2.81,5.19,-0.18,889.3,31.03
4884134,-0.06,-0.07,0.95,2.69,4.76,-0.24,889.24,31.02
4884172,-0.04,-0.07,0.92,2.5,5.07,-0.18,889.3,31.04
4884222,-0.04,-0.07,0.91,2.2,4.09,-0.12,889.27,31.02
4884260,-0.05,-0.07,0.87,2.14,4.7,-0.24,889.31,31.03
4884298,-0.05,-0.07,0.9,1.89,3.78,-0.12,889.23,31.04
4884337,-0.05,-0.07,0.94,1.89,3.48,0.0,889.25,31.03
4884375,-0.06,-0.08,0.91,1.77,4.15,-0.06,889.29,31.03
4884413,-0.05,-0.07,0.97,1.89,3.54,0.12,889.3,31.04
4884451,-0.04,-0.07,0.96,1.71,3.6,0.06,889.26,31.03
4884489,-0.04,-0.06,0.95,1.4,3.11,0.06,889.31,31.03
4884527,-0.06,-0.06,0.96,1.65,3.66,-0.06,889.32,31.02
4884577,-0.05,-0.07,0.97,1.53,2.87,0.18,889.3,31.0
4884615,-0.05,-0.06,0.97,1.71,3.17,0.12,889.31,31.03
4884653,-0.06,-0.07,0.97,1.59,3.11,-0.06,889.39,31.03
4884692,-0.03,-0.06,1.0,1.53,3.11,0.18,889.38,31.02
4884730,-0.04,-0.07,1.02,1.28,2.32,0.0,889.41,31.01
4884768,-0.06,-0.06,1.01,1.4,1.83,0.12,889.38,31.02
4884806,-0.05,-0.07,1.01,1.28,2.75,0.24,889.39,31.03
4884844,-0.05,-0.06,1.03,1.34,2.69,0.12,889.43,31.02
4884882,-0.05,-0.06,1.04,1.34,2.44,0.12,889.4,31.03
4884920,-0.05,-0.06,1.0,1.46,2.14,0.24,889.47,31.03
4884970,-0.06,-0.07,1.0,1.83,2.93,0.12,889.45,31.01
4885008,-0.05,-0.07,0.97,1.89,2.32,0.24,889.43,31.03
4885046,-0.07,-0.05,0.98,2.2,2.08,0.43,889.45,31.02
4885085,-0.07,-0.07,0.92,2.32,2.38,0.31,889.5,31.03
4885123,-0.07,-0.07,0.91,2.26,2.81,0.49,889.49,31.03
4885161,-0.07,-0.07,0.86,2.62,4.15,0.24,889.47,31.04
4885199,-0.05,-0.07,0.85,2.44,3.91,0.49,889.46,31.02
4885237,-0.05,-0.06,0.89,2.5,4.09,0.49,889.43,31.02
4885275,-0.07,-0.08,0.86,2.81,4.82,0.55,889.45,31.04
4885325,-0.05,-0.07,0.93,2.56,5.55,0.49,889.51,31.02
4885363,-0.07,-0.06,0.98,2.75,3.97,0.67,889.51,31.03
4885401,-0.06,-0.06,1.03,2.87,4.15,0.79,889.49,31.03
4885439,-0.07,-0.06,0.99,2.93,5.0,0.73,889.47,31.02
4885477,-0.06,-0.05,1.06,3.17,5.19,0.73,889.5,31.03
4885516,-0.07,-0.07,0.99,3.3,5.19,1.04,889.51,31.02
4885554,-0.07,-0.06,0.97,2.81,4.52,1.04,889.53,31.01
4885592,-0.08,-0.06,0.98,2.87,6.1,1.1,889.48,31.01
4885630,-0.08,-0.07,0.97,2.99,5.07,1.34,889.56,31.01
4885668,-0.07,-0.06,0.99,2.87,5.0,1.53,889.55,31.02
4885744,-0.06,-0.06,0.96,2.69,5.37,1.71,889.56,30.97
4885782,-0.05,-0.06,0.99,2.26,4.33,1.77,889.62,31.01
4885820,-0.08,-0.07,0.98,2.44,3.66,1.95,889.62,31.0
4885910,-0.06,-0.05,1.04,1.95,2.44,2.2,889.61,30.98
4885948,-0.07,-0.07,1.04,1.53,3.36,2.01,889.61,30.99
4885986,-0.08,-0.07,1.02,1.22,3.11,2.44,889.65,30.99
4886024,-0.04,-0.06,1.11,1.34,2.81,2.32,889.62,30.98
4886062,-0.05,-0.07,1.09,1.04,3.11,2.44,889.59,31.0
4886100,-0.08,-0.06,1.08,0.92,2.62,2.5,889.67,30.99
4886138,-0.08,-0.06,1.09,1.4,3.23,2.38,889.62,30.98
4886188,-0.07,-0.07,1.06,1.22,3.3,2.44,889.67,30.98
4886226,-0.05,-0.06,1.11,1.4,3.11,2.56,889.7,30.99
4886264,-0.05,-0.08,1.03,1.22,4.33,2.56,889.64,30.98
4886303,-0.05,-0.07,1.03,1.16,4.33,2.56,889.74,31.0
4886341,-0.06,-0.06,1.0,1.28,4.82,2.44,889.68,30.98
4886379,-0.06,-0.08,0.97,1.04,4.76,2.5,889.78,31.0
4886417,-0.05,-0.07,0.98,1.04,4.39,2.56,889.76,30.99
4886455,-0.05,-0.08,0.97,1.04,5.37,2.38,889.69,30.99
4886493,-0.04,-0.08,0.98,0.98,4.76,2.26,889.72,30.98
4886543,-0.06,-0.08,0.95,0.73,4.7,2.32,889.84,31.0
4886581,-0.07,-0.07,0.95,0.49,3.97,2.56,889.76,31.0
4886619,-0.07,-0.07,0.98,0.67,3.54,2.38,889.77,31.0
4886657,-0.06,-0.07,0.99,0.49,2.62,2.44,889.75,31.0
4886695,-0.06,-0.07,1.01,0.55,3.85,2.38,889.79,30.99
4886734,-0.06,-0.08,1.03,0.61,3.42,2.56,889.74,30.99
4886772,-0.06,-0.05,1.13,0.55,3.66,2.69,889.8,31.0
4886810,-0.06,-0.07,1.1,0.31,3.17,2.75,889.81,31.0
4886848,-0.07,-0.06,1.16,0.18,2.69,2.93,889.73,31.0
4886886,-0.07,-0.07,1.18,0.61,3.6,2.81,889.82,31.01
4886936,-0.06,-0.04,1.21,0.85,3.11,2.93,889.82,30.99
4886974,-0.06,-0.05,1.2,1.1,4.33,2.81,889.89,31.0
4887012,-0.07,-0.08,1.18,1.22,5.68,2.69,889.84,31.0
4887050,-0.05,-0.07,1.19,0.79,7.39,2.69,889.85,31.0
4887088,-0.05,-0.07,1.22,0.92,6.23,2.62,889.78,31.0
4887127,-0.04,-0.05,1.23,0.43,5.37,2.69,889.78,31.0
4887165,-0.03,-0.04,1.27,0.24,5.8,2.69,889.79,31.0
4887203,-0.03,-0.06,1.29,0.12,4.82,2.56,889.81,31.01
4887241,-0.04,-0.07,1.32,0.12,4.33,2.62,889.81,31.01
4887279,-0.04,-0.07,1.34,0.67,3.66,2.62,889.82,31.0
4887329,-0.04,-0.06,1.34,0.73,4.15,2.62,889.79,30.99
4887367,-0.05,-0.04,1.36,0.85,3.17,2.56,889.85,31.01
4887405,-0.05,-0.06,1.31,1.04,3.78,2.5,889.82,31.0
4887443,-0.04,-0.06,1.34,0.98,3.42,2.08,889.79,31.01
4887482,-0.05,-0.06,1.34,1.28,4.27,2.38,889.9,31.01
4887520,-0.05,-0.07,1.3,1.16,2.99,2.38,889.8,31.01
4887558,-0.06,-0.05,1.32,1.28,3.6,2.2,889.84,31.01
4887596,-0.06,-0.08,1.25,1.4,3.97,2.5,889.83,31.01
4887634,-0.06,-0.07,1.27,1.22,3.23,2.38,889.85,31.01
4887684,-0.06,-0.08,1.18,1.59,4.27,2.38,889.88,30.99
4887722,-0.04,-0.07,1.14,1.59,4.64,2.44,889.86,31.0
4887760,-0.04,-0.07,1.12,1.53,4.88,2.32,889.85,31.0
4887798,-0.04,-0.08,1.1,1.77,4.21,2.08,889.9,31.02
4887837,-0.05,-0.08,1.09,1.53,4.46,2.01,889.84,31.0
4887875,-0.03,-0.08,1.05,1.28,4.39,2.08,889.92,31.01
4887913,-0.04,-0.07,1.08,1.1,4.58,1.95,889.81,31.01
4887951,-0.04,-0.09,1.07,0.85,4.7,1.83,889.87,31.0
4887989,-0.04,-0.08,1.09,0.43,4.82,1.71,889.87,31.01
4888027,-0.05,-0.07,1.11,0.37,4.64,1.83,889.84,31.01
4888077,-0.05,-0.09,1.13,0.31,4.94,1.83,889.83,31.0
4888115,-0.06,-0.07,1.16,0.06,5.13,1.77,889.84,31.01
4888153,-0.05,-0.08,1.14,0.06,4.52,1.95,889.86,31.01
4888191,-0.04,-0.08,1.12,0.24,4.27,1.77,889.84,31.0
4888230,-0.05,-0.08,1.12,0.18,4.21,1.77,889.84,31.02
4888268,-0.05,-0.08,1.11,0.24,4.27,1.77,889.84,31.01
4888306,-0.05,-0.08,1.1,0.18,4.15,1.83,889.76,30.99
4888344,-0.06,-0.08,1.09,0.37,4.03,1.77,889.85,31.0
4888382,-0.04,-0.08,1.1,0.24,4.33,1.71,889.79,31.0
4888420,-0.02,-0.08,1.12,0.18,3.72,1.83,889.83,31.01
4888470,-0.04,-0.08,1.08,0.24,3.3,1.59,889.76,30.99
4888508,-0.04,-0.07,1.09,0.37,3.11,1.89,889.81,31.0
4888546,-0.02,-0.08,1.07,0.24,2.99,1.65,889.82,31.0
4888585,-0.01,-0.08,1.04,0.18,2.62,1.53,889.85,31.0
4888623,-0.03,-0.08,1.02,0.37,2.32,1.4,889.84,31.0
4888661,-0.02,-0.09,0.98,0.49,3.05,1.22,889.82,31.0
4888699,-0.04,-0.07,0.99,0.31,1.65,1.1,889.79,31.0
4888737,-0.05,-0.08,0.97,0.12,2.2,1.4,889.74,31.01
4888775,-0.06,-0.09,0.97,-0.18,2.56,1.16,889.77,31.02
4888851,-0.04,-0.09,1.02,-0.55,3.3,0.98,889.72,30.96
4888889,-0.04,-0.07,1.06,-0.37,2.75,1.04,889.79,30.97
4888927,-0.04,-0.07,1.07,-0.06,3.66,0.85,889.74,31.0
4889017,-0.04,-0.08,1.04,0.43,4.33,0.61,889.72,30.96
4889055,-0.05,-0.08,1.03,0.24,3.48,0.61,889.68,30.98
4889093,-0.05,-0.08,1.07,0.43,4.27,0.79,889.71,30.97
4889131,-0.04,-0.08,1.09,0.61,4.15,0.73,889.76,30.99
4889169,-0.05,-0.07,1.1,0.43,4.15,0.61,889.67,30.98
4889207,-0.04,-0.07,1.11,0.55,4.82,0.67,889.64,30.98
4889245,-0.06,-0.08,1.09,0.43,4.64,0.67,889.68,30.99
4889295,-0.05,-0.07,1.13,0.55,5.86,0.61,889.65,30.97
4889333,-0.05,-0.07,1.12,0.67,5.31,0.55,889.64,30.99
4889371,-0.06,-0.06,1.17,0.67,4.46,0.55,889.65,31.0
4889410,-0.05,-0.07,1.16,0.92,5.31,0.55,889.64,30.98
4889448,-0.04,-0.08,1.15,0.79,5.43,0.67,889.64,31.0
4889486,-0.04,-0.07,1.17,1.4,5.07,0.67,889.59,30.99
4889524,-0.05,-0.07,1.15,1.46,4.21,0.73,889.61,31.0
4889562,-0.05,-0.07,1.12,1.83,3.72,0.73,889.61,30.99
4889600,-0.06,-0.07,1.04,1.71,3.72,0.85,889.62,31.0
4889638,-0.03,-0.08,1.03,1.65,2.93,0.85,889.57,31.0
4889688,-0.03,-0.08,0.95,1.34,2.32,0.79,889.49,30.98
4889726,-0.06,-0.06,0.95,1.34,1.71,0.79,889.51,30.99
4889765,-0.04,-0.09,0.92,0.98,1.83,0.61,889.46,30.99
4889803,-0.04,-0.08,0.96,0.12,1.28,0.55,889.53,30.99
4889841,-0.07,-0.07,1.05,0.06,2.01,0.55,889.5,30.99
4889879,-0.06,-0.09,1.02,0.06,2.38,0.55,889.54,31.0
4889917,-0.05,-0.06,1.15,-0.12,2.26,0.55,889.52,30.99
4889955,-0.06,-0.07,1.11,0.18,3.05,0.61,889.48,30.99
4889993,-0.07,-0.07,1.12,0.24,3.23,0.43,889.46,30.98
4890043,-0.06,-0.08,1.02,0.31,3.97,0.49,889.5,30.99
4890081,-0.04,-0.07,1.04,0.24,1.28,0.49,889.46,30.98
4890119,-0.06,-0.07,0.96,0.61,1.77,0.73,889.46,30.99
4890158,-0.05,-0.07,0.99,0.73,0.61,0.67,889.48,31.0
4890196,-0.04,-0.07,1.0,1.22,0.18,0.55,889.41,31.0
4890234,-0.05,-0.09,1.0,1.46,-0.31,0.61,889.44,30.98
4890272,-0.07,-0.08,0.98,1.4,0.55,0.49,889.42,31.0
4890310,-0.09,-0.07,0.98,1.4,1.77,0.55,889.41,30.99
4890348,-0.08,-0.07,0.96,1.22,1.95,0.73,889.36,31.0
4890386,-0.07,-0.06,0.97,1.16,3.36,0.61,889.38,31.0
4890436,-0.06,-0.07,1.0,1.4,4.58,0.85,889.34,30.99
4890474,-0.05,-0.07,1.01,1.53,5.92,0.73,889.35,31.0
4890512,-0.06,-0.07,1.01,1.71,6.1,0.92,889.34,31.0
4890551,-0.06,-0.07,1.05,1.83,6.23,1.1,889.36,31.01
4890589,-0.05,-0.09,1.0,1.71,6.16,1.04,889.39,31.0
4890627,-0.07,-0.07,1.02,1.71,5.8,0.92,889.34,31.0
4890665,-0.04,-0.07,0.99,1.77,5.8,1.16,889.33,31.0
4890703,-0.05,-0.07,1.02,2.01,5.13,1.16,889.26,31.01
4890741,-0.03,-0.07,1.03,1.89,5.55,1.28,889.3,31.0
4890779,-0.07,-0.08,1.03,2.14,5.0,1.4,889.25,31.01
4890829,-0.04,-0.07,1.05,2.38,5.31,1.4,889.31,30.99
4890867,-0.05,-0.08,1.06,2.62,3.85,1.34,889.22,31.0
4890905,-0.06,-0.07,1.06,2.81,3.17,1.34,889.24,30.99
4890944,-0.03,-0.09,1.08,2.93,2.69,1.53,889.23,31.0
4890982,-0.03,-0.08,1.09,2.87,1.71,1.4,889.21,31.0
4891020,-0.05,-0.08,1.08,3.17,1.28,1.46,889.21,31.01
4891058,-0.07,-0.08,1.08,3.17,1.1,1.46,889.15,31.01
4891096,-0.08,-0.08,1.09,3.48,0.67,1.28,889.18,31.01
4891134,-0.07,-0.09,1.0,3.48,0.0,1.22,889.12,31.0
4891184,-0.06,-0.07,1.02,3.3,-0.49,1.4,889.14,31.0
4891222,-0.06,-0.08,0.94,3.11,0.67,1.28,889.13,30.99
4891260,-0.07,-0.08,0.96,3.17,0.37,1.34,889.13,31.01
4891299,-0.08,-0.08,0.91,3.05,1.16,1.4,889.16,31.01
4891337,-0.05,-0.08,0.87,3.11,-0.37,1.59,889.1,31.0
4891375,-0.05,-0.09,0.83,2.93,1.16,1.4,889.09,31.01
4891413,-0.02,-0.1,0.78,2.5,1.28,1.28,889.12,31.0
4891451,-0.04,-0.08,0.85,2.08,0.24,1.16,889.04,31.01
4891489,-0.06,-0.09,0.75,1.4,1.34,1.4,889.08,31.0
4891527,-0.05,-0.07,0.85,0.79,-0.67,1.53,889.02,31.0
4891577,-0.06,-0.09,0.86,0.37,-0.49,1.28,889.0,30.99
4891615,-0.04,-0.08,0.94,-0.24,-0.49,1.34,888.97,30.99
4891654,-0.04,-0.08,0.95,-0.67,-0.12,1.1,888.99,31.0
4891692,-0.05,-0.07,0.99,-0.85,-0.49,1.28,888.99,30.99
4891730,-0.04,-0.08,1.03,-0.73,0.31,0.98,889.01,31.0
4891768,-0.05,-0.08,1.06,-0.85,0.67,0.92,888.97,30.99
4891806,-0.07,-0.08,1.07,-0.73,1.53,0.67,888.95,31.0
4891844,-0.06,-0.06,1.07,-0.55,1.89,0.92,888.92,30.99
4891883,-0.04,-0.07,1.1,-0.43,3.48,0.67,888.94,31.0
4891958,-0.05,-0.08,1.09,0.12,6.59,0.79,888.84,30.97
4891996,-0.06,-0.07,1.08,0.31,8.73,0.67,888.78,30.98
4892035,-0.06,-0.06,1.11,0.73,10.44,0.85,888.79,30.98
4892124,-0.05,-0.07,1.13,1.4,14.65,1.16,888.69,30.96
4892162,-0.04,-0.06,1.14,1.77,15.81,1.22,888.65,30.97
4892200,-0.05,-0.06,1.13,2.26,16.85,1.83,888.67,30.98
4892239,-0.05,-0.06,1.13,2.75,17.76,1.83,888.69,30.98
4892277,-0.06,-0.07,1.12,3.11,19.04,2.2,888.63,30.99
4892315,-0.05,-0.07,1.11,3.48,18.98,2.56,888.62,31.0
4892353,-0.04,-0.06,1.12,3.54,19.04,2.99,888.55,31.01
4892403,-0.05,-0.06,1.07,4.15,19.65,3.54,888.58,31.0
4892441,-0.03,-0.06,1.07,4.03,20.02,3.78,888.49,31.0
4892479,-0.03,-0.06,1.07,4.09,19.84,4.03,888.47,31.01
4892517,-0.04,-0.06,1.03,3.66,20.2,4.33,888.49,31.0
4892556,-0.02,-0.06,1.01,3.6,20.02,4.52,888.5,31.0
4892594,-0.02,-0.07,1.02,3.3,20.14,4.82,888.49,31.01
4892632,-0.01,-0.07,0.98,2.75,20.45,5.07,888.48,31.02
4892670,-0.02,-0.07,0.98,2.5,19.78,5.43,888.39,31.02
4892708,-0.03,-0.07,0.96,2.08,19.53,5.43,888.51,31.04
4892758,-0.01,-0.07,1.03,2.26,19.47,5.62,888.49,31.01
4892796,-0.0,-0.07,1.01,2.69,19.84,5.8,888.37,31.02
4892834,-0.0,-0.07,1.01,2.75,19.84,5.86,888.42,31.03
4892872,0.0,-0.06,0.97,2.99,20.63,5.92,888.38,31.03
4892910,-0.03,-0.05,1.0,3.42,20.51,5.92,888.38,31.03
4892949,-0.0,-0.07,0.94,3.54,20.14,5.98,888.4,31.04
4892987,0.01,-0.08,0.93,3.48,20.08,6.23,888.35,31.02
4893025,0.02,-0.07,0.93,3.3,19.71,6.16,888.36,31.04
4893063,0.03,-0.07,0.92,2.75,18.37,6.1,888.29,31.04
4893101,0.04,-0.09,0.91,1.77,18.31,6.23,888.27,31.04
4893151,0.04,-0.07,0.98,0.06,15.44,6.16,888.28,31.02
4893189,0.05,-0.08,1.02,-0.85,14.22,6.04,888.39,31.04
4893227,0.04,-0.08,1.09,-1.34,12.63,5.98,888.42,31.04
4893265,0.05,-0.08,1.13,-1.1,12.7,5.55,888.43,31.03
4893304,0.06,-0.07,1.12,-0.24,12.15,5.37,888.31,31.02
4893342,0.03,-0.07,1.09,0.67,13.0,5.07,888.32,31.05
4893380,0.04,-0.06,1.08,1.4,14.22,4.88,888.26,31.05
4893418,0.05,-0.08,1.06,2.81,15.81,4.39,888.22,31.05
4893456,0.03,-0.08,1.0,3.6,16.36,4.03,888.2,31.04
