timestamp,acc_x,acc_y,acc_z,rot_x,rot_y,rot_z,qfe,temp,Unnamed: 10
6863526,-0.06,-0.08,0.94,2.87,5.8,1.16,943.93,21.65,
6863564,-0.05,-0.06,1.0,3.17,5.55,0.98,943.93,21.65,
6863602,-0.03,-0.06,1.0,3.11,6.41,1.1,943.97,21.66,
6863641,-0.01,-0.06,1.03,3.72,6.59,1.04,943.96,21.65,
6863679,-0.03,-0.08,0.97,3.85,7.51,1.04,944.02,21.65,
6863717,-0.04,-0.05,0.94,3.6,6.9,1.1,944.04,21.65,
6863755,-0.03,-0.05,0.93,3.66,7.26,1.28,944.06,21.65,
6863805,-0.01,-0.06,0.91,2.81,6.9,1.22,944.03,21.64,
6863844,0.01,-0.08,0.99,2.99,6.65,1.16,944.08,21.65,
6863882,-0.02,-0.07,0.95,1.95,6.1,1.28,944.01,21.64,
6863920,-0.01,-0.05,1.06,2.2,4.76,1.28,944.04,21.65,
6863958,-0.02,-0.08,0.93,0.55,6.1,1.22,944.07,21.65,
6863997,-0.03,-0.06,1.01,0.79,3.11,1.53,944.09,21.65,
6864035,-0.02,-0.08,0.99,-0.06,3.17,1.53,944.09,21.65,
6864073,-0.0,-0.06,1.01,-0.37,1.95,1.46,944.1,21.64,
6864111,-0.0,-0.06,1.03,-0.24,1.59,1.59,944.06,21.65,
6864161,-0.01,-0.05,1.05,-0.43,0.98,1.65,944.1,21.65,
6864199,-0.02,-0.06,1.05,-0.73,1.1,1.46,944.11,21.64,
6864238,-0.02,-0.04,1.06,-0.79,1.22,1.28,944.17,21.65,
6864276,-0.02,-0.05,1.06,-0.49,1.71,1.16,944.18,21.64,
6864314,0.01,-0.06,1.08,-0.49,1.22,0.92,944.15,21.65,
6864352,-0.0,-0.06,1.08,-0.06,1.22,0.85,944.19,21.64,
6864391,0.0,-0.06,1.07,0.18,1.53,0.67,944.23,21.65,
6864429,-0.02,-0.05,1.09,0.37,1.89,0.61,944.23,21.65,
6864467,-0.03,-0.06,1.08,0.31,2.32,0.61,944.21,21.66,
6864505,-0.02,-0.07,1.12,0.61,2.87,0.37,944.23,21.66,
6864581,-0.0,-0.06,1.11,1.34,3.48,0.37,944.23,21.62,
6864620,0.01,-0.06,1.1,1.59,4.21,0.12,944.17,21.62,
6864658,-0.01,-0.05,1.12,2.2,4.33,0.0,944.3,21.65,
6864748,-0.0,-0.06,1.06,2.99,5.31,-0.12,944.23,21.6,
6864786,0.0,-0.06,1.07,3.3,6.1,-0.12,944.24,21.6,
6864824,0.01,-0.07,1.03,3.17,6.47,-0.37,944.21,21.62,
6864862,0.0,-0.05,1.05,3.23,5.86,-0.31,944.26,21.63,
6864901,-0.02,-0.06,1.06,3.54,5.37,-0.37,944.24,21.63,
6864939,-0.02,-0.06,1.04,3.72,4.64,-0.43,944.27,21.63,
6864977,0.01,-0.06,1.03,3.72,3.3,-0.61,944.31,21.64,
6865027,-0.01,-0.06,1.0,4.09,2.44,-0.85,944.31,21.64,
6865065,-0.0,-0.07,0.98,4.21,1.95,-0.61,944.25,21.63,
6865104,-0.0,-0.07,0.96,4.52,1.34,-0.85,944.27,21.64,
6865142,-0.02,-0.06,0.94,4.39,0.55,-0.85,944.3,21.63,
6865180,-0.03,-0.07,0.93,4.7,0.12,-0.49,944.28,21.64,
6865218,-0.02,-0.07,0.92,4.52,-0.37,-0.73,944.29,21.63,
6865257,-0.02,-0.07,0.93,4.46,-0.49,-0.79,944.28,21.64,
6865295,-0.02,-0.07,0.88,3.97,-0.85,-0.61,944.29,21.63,
6865333,-0.03,-0.06,0.92,3.91,-1.22,-0.43,944.27,21.65,
6865383,-0.03,-0.07,0.88,3.42,-0.31,-0.49,944.31,21.64,
6865421,-0.03,-0.07,0.88,2.93,-0.43,-0.43,944.3,21.63,
6865460,-0.05,-0.06,0.89,2.56,0.18,-0.43,944.29,21.65,
6865498,-0.05,-0.07,0.85,2.56,1.16,-0.43,944.32,21.64,
6865536,-0.03,-0.07,0.9,2.26,1.65,-0.37,944.33,21.64,
6865574,-0.02,-0.07,0.94,2.08,2.62,-0.24,944.33,21.65,
6865612,-0.04,-0.06,0.91,1.89,3.17,-0.12,944.33,21.64,
6865651,-0.05,-0.06,0.96,2.01,2.75,0.0,944.38,21.65,
6865689,-0.04,-0.07,0.91,1.53,2.81,0.06,944.31,21.63,
6865739,-0.04,-0.06,0.95,2.01,2.81,0.12,944.35,21.65,
6865777,-0.04,-0.08,0.88,1.59,4.7,0.18,944.37,21.65,
6865815,-0.04,-0.06,0.95,1.59,5.07,0.18,944.39,21.65,
6865854,-0.04,-0.06,1.01,1.34,7.02,0.31,944.36,21.64,
6865892,-0.05,-0.07,1.0,0.61,8.67,0.37,944.38,21.65,
6865930,-0.05,-0.06,1.07,0.73,8.85,0.49,944.37,21.65,
6865968,-0.05,-0.07,1.09,0.67,9.77,0.49,944.4,21.66,
6866007,-0.04,-0.06,1.1,0.67,9.7,0.55,944.38,21.65,
6866045,-0.03,-0.05,1.17,0.98,9.28,0.85,944.42,21.65,
6866083,-0.02,-0.06,1.16,1.1,8.79,1.16,944.41,21.65,
6866133,-0.04,-0.06,1.18,1.53,7.63,1.4,944.4,21.64,
6866171,-0.03,-0.06,1.13,1.28,6.77,1.34,944.34,21.63,
6866210,-0.03,-0.05,1.18,1.34,5.13,1.59,944.39,21.65,
6866248,-0.03,-0.05,1.16,1.65,4.52,1.77,944.38,21.65,
6866286,-0.03,-0.05,1.19,1.89,2.32,1.77,944.38,21.64,
6866324,-0.03,-0.05,1.16,1.95,1.71,1.95,944.45,21.66,
6866363,-0.04,-0.06,1.16,2.38,0.43,2.26,944.47,21.65,
6866401,-0.04,-0.06,1.11,2.26,0.73,2.14,944.43,21.65,
6866439,-0.04,-0.07,1.07,2.44,-0.12,2.2,944.42,21.65,
6866477,-0.05,-0.06,1.04,2.14,-0.12,2.32,944.42,21.64,
6866527,-0.05,-0.07,1.01,1.89,-0.31,2.38,944.4,21.64,
6866565,-0.04,-0.07,1.0,1.46,-1.04,2.32,944.44,21.66,
6866604,-0.03,-0.06,0.97,1.4,-1.04,2.5,944.5,21.66,
6866642,-0.03,-0.08,0.98,1.59,-1.16,2.56,944.49,21.66,
6866680,-0.04,-0.08,0.98,1.46,-0.61,2.44,944.48,21.66,
6866718,-0.03,-0.07,0.97,1.28,-0.43,2.5,944.48,21.65,
6866757,-0.03,-0.06,0.97,1.4,0.37,2.32,944.5,21.65,
6866795,-0.03,-0.08,0.92,1.28,1.28,2.5,944.49,21.66,
6866833,-0.04,-0.08,0.9,1.22,1.71,2.2,944.52,21.65,
6866883,-0.04,-0.07,0.91,1.22,2.32,2.5,944.44,21.64,
6866921,-0.03,-0.07,0.92,1.1,2.62,2.38,944.47,21.65,
6866960,-0.03,-0.07,0.93,0.85,2.26,2.5,944.5,21.66,
6866998,-0.04,-0.07,0.92,0.92,2.08,2.5,944.48,21.65,
6867036,-0.03,-0.08,0.91,0.73,2.14,2.5,944.53,21.65,
6867074,-0.03,-0.07,0.94,0.85,0.92,2.56,944.54,21.65,
6867112,-0.04,-0.07,0.96,0.61,1.4,2.62,944.47,21.65,
6867151,-0.04,-0.08,0.96,0.67,2.32,2.5,944.52,21.65,
6867189,-0.04,-0.07,1.01,0.98,1.95,2.56,944.49,21.66,
6867227,-0.03,-0.07,1.03,0.85,3.17,2.38,944.56,21.65,
6867277,-0.02,-0.06,1.08,1.16,3.05,2.5,944.56,21.65,
6867315,-0.02,-0.07,1.1,1.34,3.54,2.5,944.55,21.65,
6867353,-0.03,-0.07,1.09,1.22,2.99,2.69,944.56,21.64,
6867392,-0.02,-0.07,1.15,1.28,2.32,2.62,944.6,21.65,
6867430,-0.01,-0.06,1.11,0.49,2.81,2.38,944.6,21.66,
6867468,-0.01,-0.05,1.17,1.04,1.59,2.62,944.61,21.65,
6867506,-0.02,-0.08,1.09,0.79,2.99,2.56,944.55,21.65,
6867545,-0.05,-0.08,1.05,0.49,1.22,2.44,944.61,21.66,
6867583,-0.02,-0.06,1.13,0.85,2.62,2.38,944.66,21.66,
6867621,-0.01,-0.08,1.03,0.92,3.36,2.01,944.64,21.66,
6867697,-0.0,-0.09,1.02,1.04,4.33,1.83,944.61,21.63,
6867735,-0.04,-0.06,1.02,1.04,4.33,1.77,944.66,21.65,
6867774,-0.01,-0.07,1.02,0.55,5.13,1.65,944.63,21.64,
6867863,-0.02,-0.07,1.11,0.49,5.92,1.46,944.63,21.62,
6867902,-0.0,-0.05,1.21,0.92,4.15,1.46,944.63,21.64,
6867940,-0.0,-0.05,1.15,0.06,4.88,1.71,944.63,21.62,
6867978,-0.02,-0.06,1.17,0.61,4.46,1.46,944.63,21.63,
6868016,-0.0,-0.07,1.17,0.24,4.88,1.53,944.67,21.64,
6868055,0.01,-0.07,1.18,1.04,3.17,1.28,944.66,21.64,
6868105,-0.03,-0.06,1.11,0.79,3.91,1.53,944.62,21.63,
6868143,0.01,-0.07,1.13,0.98,3.54,0.85,944.67,21.64,
6868181,-0.01,-0.06,1.16,1.53,2.38,0.85,944.66,21.65,
6868219,-0.01,-0.08,1.18,1.59,1.77,0.85,944.69,21.64,
6868257,-0.01,-0.07,1.15,1.53,2.32,0.92,944.69,21.65,
6868296,-0.02,-0.06,1.17,1.59,1.89,0.85,944.63,21.64,
6868334,-0.01,-0.08,1.16,1.71,1.71,0.79,944.67,21.66,
6868372,-0.01,-0.08,1.08,1.59,1.95,0.61,944.67,21.65,
6868410,-0.02,-0.06,1.06,1.53,2.2,0.67,944.64,21.66,
6868449,-0.02,-0.07,0.99,1.28,2.81,0.67,944.62,21.65,
6868499,-0.02,-0.07,0.96,1.1,2.87,0.43,944.64,21.65,
6868537,-0.02,-0.08,0.98,0.98,3.05,0.24,944.63,21.65,
6868575,-0.02,-0.08,1.0,1.22,3.11,0.31,944.66,21.66,
6868613,-0.01,-0.07,1.02,1.04,3.11,0.18,944.64,21.66,
6868652,-0.01,-0.07,1.07,0.98,2.2,0.18,944.6,21.66,
6868690,-0.0,-0.07,1.12,1.1,0.98,0.18,944.62,21.66,
6868728,-0.01,-0.07,1.15,0.92,-0.55,0.18,944.56,21.65,
6868766,-0.01,-0.05,1.27,0.92,-1.22,0.24,944.59,21.66,
6868805,-0.01,-0.05,1.31,0.49,-2.01,0.31,944.6,21.66,
6868843,0.01,-0.04,1.43,0.79,-3.72,0.12,944.6,21.66,
6868893,-0.03,-0.1,1.4,0.73,-2.26,-0.12,944.59,21.65,
6868931,-0.02,-0.05,1.43,1.16,-1.59,-0.12,944.65,21.66,
6868969,-0.01,-0.05,1.35,1.46,1.4,-0.49,944.6,21.65,
6869007,-0.04,-0.05,1.22,1.89,2.14,-0.73,944.6,21.66,
6869046,-0.04,-0.07,1.23,2.93,4.21,-0.79,944.6,21.65,
6869084,-0.02,-0.09,1.08,2.93,7.39,-1.1,944.54,21.65,
6869122,-0.01,-0.08,0.97,3.3,8.61,-1.34,944.57,21.65,
6869160,-0.03,-0.06,0.83,3.23,9.64,-1.22,944.53,21.65,
6869199,-0.05,-0.08,0.76,3.72,9.83,-0.92,944.52,21.67,
6869249,-0.05,-0.1,0.64,3.3,9.58,-1.04,944.48,21.66,
6869287,-0.07,-0.08,0.61,3.23,7.02,-0.79,944.5,21.65,
6869325,-0.03,-0.08,0.43,2.75,8.73,-0.67,944.48,21.66,
6869363,-0.0,-0.05,0.44,2.08,5.13,-0.85,944.47,21.67,
6869401,-0.03,-0.07,0.46,1.95,4.7,-0.79,944.41,21.65,
6869440,-0.03,-0.1,0.48,1.16,4.7,-0.67,944.42,21.66,
6869478,-0.02,-0.09,0.62,0.73,3.85,-0.43,944.46,21.67,
6869516,-0.03,-0.09,0.57,-0.24,2.87,-0.61,944.45,21.66,
6869554,-0.09,-0.06,0.67,-0.67,1.89,-0.49,944.44,21.66,
6869604,0.01,-0.1,0.7,-1.16,3.54,-0.61,944.46,21.65,
6869643,-0.04,-0.06,0.82,-0.92,1.65,-0.37,944.45,21.66,
6869681,-0.09,-0.08,0.69,-0.85,3.11,0.18,944.42,21.66,
6869719,-0.04,-0.08,0.8,-0.55,2.69,-0.12,944.44,21.65,
6869757,-0.04,-0.1,0.83,-0.49,3.36,-0.18,944.45,21.66,
6869796,-0.04,-0.08,0.86,-0.92,1.46,0.18,944.5,21.66,
6869834,-0.05,-0.08,0.9,-0.12,2.01,0.18,944.44,21.66,
6869872,-0.04,-0.09,0.89,-0.55,3.23,-0.18,944.43,21.66,
6869910,-0.04,-0.09,0.97,-0.18,2.38,0.18,944.5,21.66,
6869948,-0.06,-0.1,0.94,0.06,2.56,0.31,944.45,21.66,
6869998,-0.07,-0.07,0.99,0.49,2.62,0.18,944.51,21.65,
6870037,-0.04,-0.08,1.0,0.49,2.38,0.18,944.47,21.66,
6870075,-0.02,-0.09,1.03,0.73,1.16,0.31,944.51,21.67,
6870113,-0.05,-0.1,1.02,0.79,2.01,0.37,944.46,21.66,
6870151,-0.05,-0.08,1.07,0.98,2.08,0.24,944.47,21.67,
6870190,-0.03,-0.08,1.05,0.92,1.95,0.37,944.55,21.68,
6870228,-0.05,-0.08,1.11,1.04,0.73,0.31,944.49,21.67,
6870266,-0.06,-0.09,1.05,0.73,1.89,0.49,944.47,21.66,
6870304,-0.04,-0.08,1.07,0.67,1.4,0.43,944.48,21.67,
6870343,-0.02,-0.08,1.07,0.31,1.04,0.43,944.52,21.67,
6870392,-0.05,-0.08,1.05,0.0,0.67,0.49,944.47,21.65,
6870431,-0.07,-0.09,1.04,-0.37,1.89,0.49,944.46,21.67,
6870469,-0.05,-0.09,1.04,-1.4,2.69,0.37,944.44,21.66,
6870507,-0.05,-0.08,1.12,-2.01,1.53,0.31,944.36,21.67,
6870545,-0.05,-0.1,1.15,-3.36,2.26,0.43,944.4,21.66,
6870584,-0.06,-0.08,1.18,-4.64,2.5,0.37,944.39,21.65,
6870622,-0.04,-0.08,1.31,-5.43,3.3,0.49,944.39,21.66,
6870660,-0.06,-0.07,1.34,-5.92,2.26,0.55,944.45,21.66,
6870698,-0.06,-0.06,1.34,-5.8,1.22,0.73,944.42,21.67,
6870774,-0.04,-0.07,1.27,-5.98,-0.79,1.04,944.46,21.65,
6870812,-0.06,-0.06,1.3,-5.8,-1.89,1.04,944.35,21.64,
6870851,-0.07,-0.07,1.3,-6.29,-2.44,1.16,944.38,21.66,
6870940,-0.08,-0.07,1.34,-7.08,-2.5,1.59,944.34,21.62,
6870979,-0.1,-0.06,1.4,-7.51,-2.26,1.65,944.3,21.64,
6871017,-0.06,-0.07,1.43,-7.87,-0.37,1.59,944.33,21.63,
6871055,-0.07,-0.05,1.48,-7.87,-0.79,1.71,944.31,21.64,
6871093,-0.06,-0.05,1.5,-7.57,0.61,1.95,944.31,21.64,
6871132,-0.09,-0.04,1.49,-8.0,2.26,2.01,944.32,21.65,
6871182,-0.09,-0.05,1.59,-7.57,3.6,1.95,944.3,21.63,
6871220,-0.07,-0.05,1.61,-7.45,3.91,2.08,944.34,21.64,
6871258,-0.07,-0.05,1.6,-7.14,4.39,2.14,944.29,21.64,
6871296,-0.07,-0.03,1.63,-7.02,4.09,2.44,944.32,21.65,
6871335,-0.07,-0.04,1.59,-6.9,4.76,2.5,944.38,21.66,
6871373,-0.06,-0.04,1.57,-6.84,4.64,2.5,944.32,21.65,
6871411,-0.02,-0.05,1.64,-6.29,4.82,2.69,944.29,21.66,
6871449,-0.07,-0.06,1.53,-6.29,5.13,2.81,944.24,21.65,
6871487,-0.04,-0.04,1.61,-5.86,4.33,2.62,944.25,21.66,
6871526,-0.02,-0.07,1.49,-5.8,4.33,2.56,944.3,21.66,
6871576,-0.07,-0.06,1.48,-5.0,2.5,2.93,944.28,21.64,
6871614,-0.05,-0.08,1.38,-4.88,3.85,3.17,944.22,21.64,
6871652,-0.05,-0.04,1.38,-4.52,1.16,2.81,944.25,21.66,
6871690,-0.05,-0.05,1.4,-4.15,0.92,3.11,944.23,21.65,
6871729,-0.06,-0.06,1.37,-4.27,1.46,3.23,944.18,21.65,
6871767,-0.05,-0.06,1.49,-3.48,1.59,3.17,944.17,21.66,
6871805,-0.04,-0.07,1.43,-2.93,2.26,3.3,944.15,21.65,
6871843,-0.06,-0.04,1.43,-2.32,1.89,3.36,944.11,21.66,
6871882,-0.05,-0.05,1.44,-2.01,3.11,3.17,944.11,21.66,
6871932,-0.05,-0.06,1.46,-1.46,2.01,3.05,944.05,21.66,
6871970,-0.05,-0.06,1.44,-1.34,1.95,3.17,944.03,21.65,
6872008,-0.04,-0.05,1.41,-1.04,2.2,3.23,944.01,21.65,
6872046,-0.05,-0.04,1.4,-0.92,2.5,2.93,943.99,21.66,
6872085,-0.07,-0.04,1.41,-0.73,2.08,3.3,943.94,21.67,
6872123,-0.07,-0.06,1.45,0.06,1.59,3.3,943.9,21.65,
6872161,-0.05,-0.07,1.39,0.0,1.83,3.3,943.8,21.65,
6872199,-0.07,-0.04,1.38,0.31,0.43,3.42,943.82,21.66,
6872237,-0.06,-0.05,1.33,0.06,0.06,3.72,943.75,21.65,
6872276,-0.06,-0.06,1.3,0.49,-1.04,3.66,943.76,21.66,
6872326,-0.06,-0.06,1.26,0.92,-1.53,3.78,943.79,21.65,
6872364,-0.04,-0.06,1.23,1.4,-2.44,3.85,943.71,21.65,
6872402,-0.06,-0.07,1.16,1.83,-2.62,3.78,943.7,21.65,
6872440,-0.07,-0.07,1.12,2.14,-2.38,3.85,943.72,21.65,
6872479,-0.05,-0.07,1.06,2.5,-1.65,3.85,943.7,21.67,
6872517,-0.05,-0.07,1.01,2.62,-1.95,3.91,943.66,21.65,
6872555,-0.05,-0.07,0.97,2.81,-1.95,4.03,943.64,21.66,
6872593,-0.06,-0.07,0.93,2.87,-1.89,4.09,943.62,21.68,
6872632,-0.04,-0.07,0.93,2.93,-2.14,3.97,943.61,21.66,
6872682,-0.05,-0.07,0.92,2.99,-2.32,3.91,943.5,21.65,
6872720,-0.05,-0.07,0.91,3.11,-2.2,4.09,943.49,21.66,
6872758,-0.04,-0.07,0.9,2.87,-2.75,3.91,943.47,21.66,
6872796,-0.04,-0.07,0.9,2.99,-3.23,3.85,943.4,21.66,
6872835,-0.04,-0.07,0.86,2.81,-3.48,3.66,943.4,21.66,
6872873,-0.04,-0.06,0.86,3.11,-3.6,3.66,943.4,21.67,
6872911,-0.04,-0.06,0.86,3.05,-3.48,3.72,943.35,21.66,
6872949,-0.04,-0.07,0.84,3.11,-3.72,3.66,943.37,21.66,
6872987,-0.04,-0.07,0.84,3.48,-3.23,3.3,943.37,21.66,
6873026,-0.05,-0.07,0.82,3.42,-2.69,3.54,943.33,21.67,
6873076,-0.04,-0.07,0.83,3.54,-2.38,3.48,943.3,21.65,
6873114,-0.04,-0.06,0.83,3.78,-1.83,3.23,943.28,21.66,
6873152,-0.04,-0.06,0.83,3.85,-1.4,3.3,943.29,21.66,
6873190,-0.03,-0.07,0.81,3.91,-0.98,3.36,943.33,21.67,
6873229,-0.04,-0.06,0.84,3.91,-0.55,3.11,943.21,21.66,
6873267,-0.04,-0.07,0.81,3.91,0.67,3.05,943.24,21.66,
6873305,-0.03,-0.06,0.84,4.09,0.79,3.05,943.2,21.67,
6873343,-0.04,-0.07,0.82,4.09,1.71,3.17,943.21,21.67,
6873382,-0.03,-0.06,0.79,3.97,2.08,3.05,943.13,21.66,
6873431,-0.02,-0.06,0.79,4.39,2.99,3.11,943.18,21.66,
6873470,-0.02,-0.07,0.79,4.7,3.36,3.05,943.15,21.66,
6873508,-0.02,-0.07,0.79,4.7,3.97,2.93,943.03,21.67,
6873546,-0.03,-0.06,0.81,4.88,4.7,2.93,943.12,21.68,
6873584,-0.03,-0.06,0.8,5.07,4.82,2.93,943.04,21.66,
6873623,-0.01,-0.06,0.82,5.19,4.82,2.99,943.06,21.67,
6873661,-0.01,-0.06,0.82,4.76,4.76,2.75,943.01,21.66,
6873699,-0.01,-0.06,0.82,4.7,4.58,2.81,943.01,21.67,
6873737,-0.01,-0.06,0.82,4.33,4.7,2.69,942.93,21.66,
6873776,-0.01,-0.06,0.83,4.33,4.46,2.69,942.97,21.67,
6873852,-0.02,-0.06,0.81,4.39,4.39,2.62,942.87,21.64,
6873890,-0.01,-0.06,0.8,4.58,4.33,2.44,942.89,21.65,
6873928,-0.01,-0.06,0.77,4.64,4.52,2.5,942.85,21.66,
6874018,-0.02,-0.06,0.79,4.64,4.58,2.44,942.8,21.62,
6874056,-0.02,-0.07,0.78,4.58,4.52,2.38,942.77,21.64,
6874094,-0.02,-0.06,0.8,4.58,4.7,2.26,942.78,21.64,
6874133,-0.01,-0.06,0.8,4.39,5.0,2.14,942.78,21.65,
6874171,-0.0,-0.06,0.8,4.52,4.94,2.26,942.75,21.65,
6874209,-0.02,-0.06,0.77,4.46,5.31,2.14,942.68,21.64,
6874247,-0.02,-0.06,0.78,4.64,5.43,2.08,942.69,21.65,
6874297,-0.02,-0.06,0.74,4.46,5.86,2.08,942.65,21.63,
6874336,-0.0,-0.05,0.74,4.52,5.43,1.95,942.65,21.65,
6874374,-0.01,-0.06,0.71,4.39,5.92,1.83,942.64,21.65,
6874412,-0.02,-0.06,0.73,4.7,5.62,1.83,942.63,21.65,
6874450,-0.02,-0.06,0.73,4.76,6.41,1.83,942.6,21.65,
6874489,-0.02,-0.06,0.74,4.64,5.92,1.77,942.62,21.66,
6874527,-0.02,-0.05,0.77,4.7,6.53,1.77,942.56,21.65,
6874565,-0.03,-0.06,0.75,4.21,7.08,1.89,942.57,21.66,
6874603,-0.03,-0.05,0.78,4.52,6.71,1.77,942.54,21.67,
6874653,-0.02,-0.05,0.78,4.39,7.51,1.71,942.48,21.64,
6874692,-0.02,-0.05,0.81,4.58,7.57,1.71,942.49,21.66,
6874730,-0.02,-0.05,0.8,4.33,8.42,1.77,942.47,21.65,
6874768,-0.03,-0.05,0.83,4.76,8.79,1.77,942.44,21.65,
6874806,-0.02,-0.05,0.82,4.46,9.16,1.53,942.45,21.65,
6874845,-0.04,-0.04,0.85,4.7,8.79,1.53,942.42,21.65,
6874883,-0.03,-0.05,0.85,4.64,9.7,1.53,942.41,21.66,
6874921,-0.02,-0.05,0.86,4.94,9.22,1.71,942.42,21.66,
6874959,-0.04,-0.04,0.88,5.31,8.67,1.71,942.35,21.66,
6874998,-0.03,-0.05,0.86,5.19,8.91,1.83,942.4,21.67,
6875048,-0.03,-0.05,0.89,5.68,8.3,1.83,942.36,21.66,
6875086,-0.04,-0.05,0.85,5.43,7.63,1.89,942.35,21.66,
6875124,-0.05,-0.05,0.86,5.74,7.02,2.01,942.34,21.66,
6875162,-0.03,-0.05,0.84,5.43,6.77,2.08,942.38,21.67,
6875201,-0.03,-0.04,0.81,5.55,6.35,2.14,942.35,21.66,
6875239,-0.04,-0.04,0.81,5.68,5.55,2.32,942.35,21.67,
6875277,-0.03,-0.05,0.8,5.74,4.52,2.2,942.3,21.66,
6875316,-0.03,-0.05,0.8,5.62,4.58,2.32,942.28,21.67,
6875354,-0.03,-0.05,0.8,5.62,3.97,2.38,942.32,21.67,
6875392,-0.02,-0.05,0.8,5.74,3.3,2.44,942.32,21.67,
6875442,-0.03,-0.05,0.78,5.62,3.11,2.2,942.28,21.66,
6875480,-0.03,-0.05,0.76,5.55,3.05,2.32,942.29,21.66,
6875519,-0.02,-0.06,0.75,5.49,3.17,2.14,942.28,21.66,
6875557,-0.03,-0.05,0.75,5.37,2.75,2.08,942.28,21.68,
6875595,-0.03,-0.05,0.73,4.94,3.11,1.95,942.31,21.66,
6875633,-0.02,-0.06,0.74,5.19,3.11,1.95,942.32,21.66,
6875672,-0.02,-0.06,0.73,4.88,3.23,1.77,942.34,21.69,
6875710,-0.02,-0.06,0.73,4.82,3.11,1.77,942.29,21.66,
6875748,-0.03,-0.06,0.73,4.76,3.3,1.83,942.25,21.66,
6875798,-0.02,-0.05,0.73,4.33,2.69,1.65,942.28,21.67,
6875836,-0.03,-0.06,0.73,4.21,2.81,1.46,942.26,21.66,
6875875,-0.02,-0.05,0.72,3.72,2.44,1.34,942.27,21.66,
6875913,-0.03,-0.06,0.74,3.6,2.14,1.59,942.24,21.66,
6875951,-0.02,-0.06,0.73,3.05,2.26,1.46,942.22,21.67,
6875989,-0.02,-0.05,0.75,2.81,1.95,1.4,942.25,21.67,
6876028,-0.02,-0.06,0.76,2.81,2.01,1.28,942.2,21.66,
6876066,-0.02,-0.05,0.77,2.93,1.83,1.34,942.29,21.68,
6876104,-0.03,-0.06,0.78,2.93,1.59,1.34,942.26,21.67,
6876143,-0.02,-0.06,0.78,2.81,1.65,1.22,942.22,21.67,
6876192,-0.03,-0.06,0.79,2.69,1.71,1.22,942.21,21.66,
6876231,-0.04,-0.05,0.79,2.69,1.77,1.16,942.26,21.66,
6876269,-0.06,-0.05,0.79,2.5,2.14,0.98,942.22,21.67,
6876307,-0.02,-0.05,0.81,2.38,2.62,0.98,942.23,21.67,
6876345,-0.03,-0.05,0.82,2.2,2.75,0.98,942.27,21.67,
6876384,-0.03,-0.05,0.82,2.26,3.42,0.98,942.27,21.67,
6876422,-0.04,-0.05,0.82,2.38,4.27,0.79,942.24,21.67,
6876460,-0.03,-0.05,0.85,2.5,4.52,1.04,942.19,21.67,
6876498,-0.02,-0.05,0.84,2.32,4.76,0.85,942.28,21.67,
6876537,-0.03,-0.05,0.86,2.62,5.13,0.61,942.21,21.67,
6876587,-0.03,-0.05,0.87,2.5,5.68,0.61,942.2,21.66,
6876625,-0.02,-0.04,0.9,2.56,5.68,0.61,942.18,21.66,
6876663,-0.03,-0.04,0.89,2.69,5.92,0.73,942.28,21.67,
6876701,-0.03,-0.05,0.9,2.44,5.8,0.67,942.22,21.67,
6876740,-0.03,-0.04,0.92,2.75,5.62,0.49,942.25,21.67,
6876778,-0.03,-0.04,0.92,2.99,5.43,0.73,942.32,21.66,
6876816,-0.03,-0.04,0.92,2.99,5.37,0.79,942.25,21.67,
6876854,-0.03,-0.04,0.95,3.42,5.25,0.67,942.24,21.66,
6876893,-0.03,-0.04,0.93,3.42,5.13,0.67,942.29,21.67,
6876969,-0.03,-0.04,0.94,3.54,4.94,0.55,942.3,21.65,
6877007,-0.03,-0.03,0.94,3.54,4.15,0.79,942.27,21.65,
6877045,-0.03,-0.04,0.94,3.42,4.21,0.67,942.22,21.66,
6877135,-0.04,-0.04,0.93,3.66,3.72,0.85,942.25,21.62,
6877173,-0.04,-0.04,0.91,3.42,3.48,0.61,942.28,21.65,
6877212,-0.03,-0.04,0.94,3.66,2.93,0.55,942.28,21.65,
6877250,-0.04,-0.05,0.89,3.48,3.23,0.67,942.28,21.64,
6877288,-0.04,-0.04,0.9,3.72,3.11,0.55,942.27,21.66,
6877326,-0.03,-0.04,0.9,3.54,3.3,0.67,942.22,21.65,
6877364,-0.04,-0.04,0.87,3.66,3.05,0.55,942.29,21.65,
6877414,-0.04,-0.04,0.9,3.72,3.91,0.55,942.27,21.65,
6877453,-0.04,-0.05,0.89,3.54,4.15,0.43,942.32,21.65,
6877491,-0.04,-0.03,0.91,3.72,3.66,0.61,942.34,21.66,
6877529,-0.05,-0.04,0.89,3.6,4.21,0.55,942.29,21.65,
6877567,-0.03,-0.04,0.89,3.66,4.39,0.31,942.33,21.66,
6877606,-0.04,-0.04,0.93,3.48,4.39,0.43,942.34,21.66,
6877644,-0.04,-0.05,0.91,3.48,4.03,0.43,942.3,21.67,
6877682,-0.04,-0.03,0.94,3.54,4.15,0.31,942.32,21.66,
6877721,-0.03,-0.04,0.94,3.36,4.09,0.37,942.32,21.67,
6877759,-0.03,-0.04,0.93,3.48,3.54,0.49,942.35,21.67,
6877809,-0.04,-0.04,0.92,3.36,2.75,0.49,942.37,21.65,
6877847,-0.04,-0.04,0.91,3.3,2.5,0.37,942.36,21.67,
6877885,-0.03,-0.04,0.91,3.3,1.89,0.43,942.37,21.67,
6877923,-0.04,-0.05,0.89,3.17,1.34,0.43,942.38,21.67,
6877962,-0.05,-0.04,0.88,2.99,1.59,0.49,942.36,21.67,
6878000,-0.04,-0.04,0.88,2.87,1.65,0.43,942.35,21.66,
6878038,-0.05,-0.04,0.89,2.93,1.28,0.43,942.45,21.68,
6878076,-0.05,-0.04,0.87,2.81,1.46,0.31,942.41,21.67,
6878115,-0.04,-0.04,0.89,2.44,1.77,0.37,942.41,21.67,
6878165,-0.03,-0.04,0.91,2.44,1.71,0.49,942.38,21.65,
6878203,-0.04,-0.04,0.92,2.2,1.4,0.61,942.49,21.66,
6878241,-0.05,-0.04,0.94,2.08,1.46,0.67,942.43,21.67,
6878279,-0.05,-0.04,0.94,2.2,1.16,0.61,942.42,21.67,
6878318,-0.04,-0.04,0.93,2.2,1.4,0.55,942.44,21.67,
6878356,-0.04,-0.03,0.94,2.2,1.22,0.67,942.48,21.67,
6878394,-0.04,-0.04,0.93,2.08,1.89,0.61,942.44,21.66,
6878432,-0.04,-0.04,0.93,2.2,2.14,0.55,942.49,21.67,
6878471,-0.04,-0.03,0.98,2.14,2.08,0.55,942.53,21.67,
6878509,-0.05,-0.04,0.97,2.08,2.14,0.79,942.49,21.67,
6878559,-0.03,-0.03,1.0,2.38,1.89,0.67,942.57,21.67,
6878597,-0.04,-0.03,0.99,2.2,2.14,0.79,942.53,21.66,
6878635,-0.04,-0.03,1.0,2.2,1.4,0.79,942.52,21.68,
6878674,-0.04,-0.03,1.01,2.32,1.59,0.92,942.47,21.66,
6878712,-0.04,-0.03,1.0,2.08,1.22,1.04,942.58,21.67,
6878750,-0.04,-0.03,1.03,2.26,0.92,1.28,942.59,21.68,
6878788,-0.04,-0.03,1.02,2.14,1.16,1.16,942.61,21.67,
6878827,-0.04,-0.03,1.01,2.08,1.1,1.34,942.57,21.67,
6878865,-0.04,-0.03,1.01,2.01,0.85,1.28,942.59,21.68,
6878903,-0.04,-0.03,1.0,2.2,0.85,1.34,942.67,21.68,
6878953,-0.03,-0.04,1.0,2.14,0.98,1.22,942.61,21.65,
6878991,-0.04,-0.03,1.0,2.26,0.92,1.34,942.72,21.69,
6879030,-0.04,-0.04,1.0,2.14,0.98,1.34,942.69,21.66,
6879068,-0.04,-0.03,0.99,2.32,0.85,1.1,942.72,21.67,
6879106,-0.03,-0.03,1.0,2.26,0.85,1.1,942.64,21.67,
6879144,-0.03,-0.04,0.99,2.32,0.92,1.1,942.71,21.67,
6879183,-0.03,-0.03,0.99,2.26,0.85,1.28,942.69,21.69,
6879221,-0.04,-0.04,0.98,2.56,0.98,1.28,942.66,21.67,
6879259,-0.04,-0.03,0.98,2.62,1.1,1.28,942.72,21.67,
6879309,-0.03,-0.04,0.97,2.69,1.04,1.28,942.75,21.66,
6879347,-0.04,-0.04,0.96,2.69,1.28,1.22,942.76,21.67,
6879386,-0.03,-0.05,0.94,2.62,1.53,1.28,942.75,21.67,
6879424,-0.03,-0.05,0.95,2.75,1.46,1.22,942.79,21.68,
6879462,-0.03,-0.05,0.91,2.75,1.65,1.28,942.78,21.67,
6879500,-0.03,-0.04,0.9,2.87,1.4,1.22,942.81,21.69,
6879539,-0.03,-0.05,0.87,2.93,1.53,1.16,942.77,21.69,
6879577,-0.02,-0.05,0.86,2.87,0.85,1.46,942.82,21.69,
6879615,-0.03,-0.05,0.87,2.75,0.67,1.4,942.81,21.69,
6879653,-0.03,-0.04,0.87,2.75,0.73,1.53,942.85,21.69,
6879703,-0.03,-0.05,0.91,2.62,0.43,1.46,942.84,21.67,
6879742,-0.02,-0.05,0.91,2.2,0.55,1.59,942.82,21.67,
6879780,-0.03,-0.05,0.93,2.08,0.55,1.59,942.89,21.68,
6879818,-0.03,-0.05,0.9,1.95,0.92,1.53,942.88,21.68,
6879856,-0.02,-0.05,0.89,1.95,1.1,1.28,942.95,21.69,
6879895,-0.02,-0.05,0.9,2.08,1.46,1.4,942.93,21.69,
6879933,-0.02,-0.05,0.89,2.14,1.71,1.46,942.89,21.69,
6879971,-0.03,-0.04,0.89,2.2,2.08,1.46,942.94,21.69,
6880009,-0.02,-0.05,0.92,2.14,2.26,1.46,942.96,21.68,
6880048,-0.03,-0.06,0.94,2.01,2.14,1.4,942.93,21.68,
6880124,-0.02,-0.06,0.97,1.89,2.69,1.34,942.94,21.65,
6880162,-0.01,-0.05,0.97,1.65,2.81,1.34,943.04,21.67,
6880200,-0.02,-0.05,0.98,1.59,2.93,1.4,943.02,21.68,
6880290,-0.01,-0.05,0.98,1.77,3.17,1.4,943.05,21.65,
6880328,-0.0,-0.05,0.97,1.71,2.62,1.16,943.06,21.65,
6880366,-0.01,-0.05,0.99,1.77,2.87,1.16,943.05,21.65,
6880405,-0.01,-0.05,0.97,1.83,3.17,1.16,943.09,21.66,
6880443,-0.02,-0.05,0.97,2.01,3.05,0.85,943.1,21.65,
6880481,-0.02,-0.06,0.96,2.08,2.99,1.04,943.07,21.67,
6880531,-0.02,-0.05,0.93,1.77,2.93,0.79,943.06,21.65,
6880569,-0.01,-0.05,0.94,2.01,2.93,0.73,943.13,21.67,
6880608,-0.01,-0.06,0.92,1.89,3.11,0.67,943.16,21.67,
6880646,-0.01,-0.05,0.94,1.71,2.75,0.73,943.14,21.67,
6880684,-0.01,-0.05,0.95,1.71,2.99,0.55,943.17,21.68,
6880722,-0.02,-0.05,0.96,1.65,2.87,0.49,943.2,21.68,
6880761,-0.02,-0.05,0.97,1.71,2.87,0.49,943.16,21.67,
6880799,-0.02,-0.05,0.97,1.59,3.05,0.49,943.17,21.67,
6880837,-0.02,-0.05,1.0,1.59,2.87,0.49,943.22,21.67,
6880875,-0.01,-0.05,0.99,1.4,3.23,0.49,943.21,21.68,
6880925,-0.03,-0.05,1.0,1.53,3.54,0.55,943.22,21.67,
6880964,-0.02,-0.05,1.02,1.53,3.97,0.37,943.27,21.67,
6881002,-0.02,-0.05,1.03,1.59,4.33,0.18,943.25,21.68,
6881040,-0.02,-0.05,1.04,1.77,4.64,0.31,943.26,21.68,
6881078,-0.01,-0.05,1.03,1.89,4.82,0.24,943.3,21.67,
6881117,-0.02,-0.04,1.04,1.59,5.13,0.18,943.25,21.67,
6881155,-0.03,-0.04,1.05,1.83,5.13,0.31,943.28,21.69,
6881193,-0.02,-0.05,1.08,2.01,4.76,0.24,943.27,21.67,
6881231,-0.03,-0.05,1.08,2.14,4.82,0.18,943.26,21.68,
6881270,-0.03,-0.04,1.09,1.95,4.7,0.31,943.32,21.67,
6881320,-0.02,-0.04,1.1,2.2,4.64,0.37,943.32,21.66,
6881358,-0.04,-0.04,1.09,2.08,3.97,0.43,943.34,21.67,
6881396,-0.03,-0.04,1.12,2.26,4.03,0.61,943.39,21.68,
6881434,-0.03,-0.04,1.09,2.14,4.15,0.61,943.37,21.68,
6881473,-0.03,-0.04,1.11,2.2,3.66,0.67,943.36,21.69,
6881511,-0.03,-0.05,1.1,2.08,3.42,0.73,943.38,21.69,
6881549,-0.03,-0.04,1.1,2.2,3.11,0.85,943.4,21.68,
6881587,-0.02,-0.04,1.08,1.95,3.11,0.98,943.4,21.7,
6881625,-0.03,-0.04,1.05,1.89,2.87,1.04,943.38,21.69,
6881675,-0.03,-0.05,1.07,2.08,2.38,0.98,943.46,21.66,
6881714,-0.02,-0.05,1.06,1.77,2.5,0.92,943.47,21.68,
6881752,-0.01,-0.05,1.06,1.77,2.32,0.92,943.44,21.69,
6881790,-0.03,-0.05,1.05,1.89,2.14,1.16,943.45,21.69,
6881828,-0.03,-0.05,1.03,1.95,2.32,1.04,943.47,21.69,
6881867,-0.03,-0.05,1.03,2.01,2.44,1.04,943.45,21.68,
6881905,-0.02,-0.06,1.02,2.01,2.44,1.04,943.46,21.68,
6881943,-0.02,-0.06,1.0,2.01,2.32,0.98,943.53,21.68,
6881981,-0.03,-0.05,1.0,1.95,2.87,1.1,943.48,21.68,
6882020,-0.02,-0.05,0.99,1.95,3.11,0.98,943.55,21.69,
6882070,-0.02,-0.05,0.98,2.08,2.69,1.1,943.54,21.67,
6882108,-0.03,-0.06,0.96,2.01,2.99,0.98,943.55,21.68,
6882146,-0.03,-0.06,0.94,2.14,2.87,0.73,943.59,21.68,
6882184,-0.02,-0.05,0.95,2.38,2.87,0.85,943.64,21.7,
6882223,-0.02,-0.06,0.93,2.32,2.93,0.79,943.57,21.69,
6882261,-0.02,-0.06,0.93,2.44,2.87,0.79,943.6,21.69,
6882299,-0.03,-0.06,0.93,2.5,3.11,0.79,943.64,21.69,
6882337,-0.03,-0.06,0.93,2.32,3.42,0.85,943.63,21.69,
6882376,-0.03,-0.06,0.94,2.32,3.36,0.61,943.61,21.69,
6882414,-0.03,-0.07,0.95,2.32,3.6,0.73,943.65,21.69,
6882464,-0.03,-0.06,0.95,2.08,3.6,0.79,943.69,21.69,
6882502,-0.02,-0.05,0.96,1.95,3.54,0.73,943.67,21.69,
6882540,-0.02,-0.07,0.96,2.2,3.23,0.67,943.68,21.68,
6882579,-0.03,-0.06,0.97,2.14,2.93,0.85,943.67,21.69,
6882617,-0.03,-0.06,0.97,1.95,3.23,0.79,943.69,21.69,
6882655,-0.03,-0.05,0.99,2.26,2.99,0.67,943.73,21.68,
6882693,-0.03,-0.06,0.99,2.14,3.42,0.79,943.76,21.7,
6882732,-0.03,-0.06,1.01,2.08,3.3,0.73,943.76,21.7,
6882770,-0.03,-0.06,1.01,1.95,3.54,0.79,943.72,21.69,
6882820,-0.03,-0.06,1.01,2.08,3.48,0.79,943.73,21.66,
6882858,-0.03,-0.06,1.0,2.01,4.03,0.85,943.74,21.67,
6882896,-0.03,-0.06,0.98,2.01,4.09,0.79,943.75,21.68,
6882935,-0.02,-0.07,0.98,1.95,3.91,0.67,943.86,21.69,
6882973,-0.03,-0.06,0.96,1.83,3.97,0.61,943.78,21.7,
6883011,-0.02,-0.05,0.97,1.89,3.66,0.73,943.82,21.7,
6883049,-0.03,-0.06,0.97,1.71,3.23,0.73,943.8,21.69,
6883088,-0.02,-0.07,0.97,1.46,2.38,0.73,943.81,21.68,
6883126,-0.03,-0.06,1.0,1.46,2.08,0.61,943.8,21.69,
6883164,-0.02,-0.06,1.0,1.04,2.08,0.67,943.82,21.69,
6883241,-0.02,-0.06,1.03,0.98,1.4,0.61,943.84,21.65,
6883280,-0.03,-0.06,1.02,0.79,1.34,0.49,943.84,21.67,
6883318,-0.02,-0.06,1.04,1.1,1.1,0.55,943.85,21.67,
6883408,-0.03,-0.06,1.02,1.1,1.1,0.43,943.91,21.65,
6883446,-0.02,-0.07,0.99,1.04,1.65,0.43,943.94,21.66,
6883484,-0.03,-0.06,1.0,1.34,1.4,0.37,943.94,21.66,
6883522,-0.03,-0.07,0.98,1.4,2.32,0.31,943.96,21.66,
6883561,-0.04,-0.06,0.98,1.46,2.26,0.37,943.96,21.66,
6883599,-0.02,-0.06,0.99,1.34,2.5,0.37,944.0,21.68,
6883637,-0.03,-0.06,1.0,1.53,2.01,0.37,943.99,21.68,
6883687,-0.03,-0.06,1.0,1.34,2.69,0.18,943.97,21.66,
6883725,-0.03,-0.05,1.03,1.4,2.08,0.18,944.04,21.67,
6883764,-0.04,-0.06,1.03,1.4,2.32,0.37,943.98,21.67,
6883802,-0.03,-0.06,1.04,1.4,2.14,0.24,944.02,21.67,
6883840,-0.04,-0.06,1.04,1.4,2.32,0.37,944.04,21.68,
6883878,-0.04,-0.06,1.06,1.59,1.89,0.37,944.06,21.67,
6883917,-0.04,-0.06,1.06,1.4,2.14,0.49,944.06,21.68,
6883955,-0.03,-0.06,1.08,1.4,2.08,0.55,944.03,21.67,
6883993,-0.03,-0.06,1.09,1.53,2.38,0.67,944.09,21.68,
6884043,-0.04,-0.06,1.08,1.53,2.38,0.67,944.05,21.67,
6884081,-0.03,-0.06,1.11,1.53,2.56,0.55,944.11,21.67,
6884120,-0.04,-0.06,1.12,1.53,2.69,0.73,944.03,21.67,
6884158,-0.03,-0.06,1.13,1.4,3.17,0.55,944.09,21.68,
6884196,-0.03,-0.06,1.12,1.46,3.17,0.67,944.11,21.68,
6884234,-0.03,-0.05,1.16,1.53,3.42,0.73,944.14,21.69,
6884273,-0.03,-0.06,1.14,1.4,3.72,0.67,944.16,21.69,
6884311,-0.03,-0.06,1.15,1.28,3.17,0.67,944.18,21.69,
6884349,-0.03,-0.06,1.12,1.53,3.36,0.79,944.16,21.68,
6884387,-0.03,-0.06,1.1,1.53,3.11,0.79,944.19,21.69,
6884437,-0.03,-0.06,1.07,1.59,3.05,0.92,944.17,21.67,
6884476,-0.04,-0.06,1.05,1.71,2.5,0.85,944.19,21.69,
6884514,-0.04,-0.07,1.05,1.71,2.62,0.98,944.2,21.69,
6884552,-0.03,-0.07,1.04,1.71,2.62,0.85,944.19,21.68,
6884590,-0.03,-0.07,1.05,1.4,2.56,0.92,944.19,21.67,
6884629,-0.04,-0.07,1.04,1.4,2.38,1.1,944.18,21.69,
6884667,-0.03,-0.07,1.07,1.4,2.2,0.98,944.17,21.68,
6884705,-0.03,-0.07,1.04,1.22,2.38,1.16,944.22,21.69,
6884743,-0.03,-0.06,1.06,1.34,1.71,1.1,944.19,21.69,
6884782,-0.04,-0.07,1.04,1.16,2.26,0.98,944.16,21.69,
6884832,-0.03,-0.07,1.07,1.04,1.53,1.16,944.24,21.68,
6884870,-0.03,-0.07,1.04,0.85,1.89,1.22,944.22,21.68,
6884908,-0.03,-0.06,1.04,0.79,1.53,1.22,944.23,21.69,
6884946,-0.03,-0.07,1.02,0.92,2.26,1.16,944.22,21.68,
6884985,-0.03,-0.07,0.99,0.85,2.93,1.4,944.22,21.69,
6885023,-0.03,-0.07,0.98,0.85,2.87,1.1,944.2,21.68,
6885061,-0.04,-0.07,0.96,0.85,3.11,1.16,944.3,21.7,
6885099,-0.04,-0.07,0.97,0.92,3.54,1.04,944.27,21.7,
6885137,-0.02,-0.07,0.97,0.55,3.97,0.98,944.25,21.69,
6885187,-0.05,-0.07,0.99,0.85,3.54,1.22,944.31,21.67,
6885226,-0.04,-0.08,0.95,0.92,4.15,1.16,944.33,21.69,
6885264,-0.03,-0.07,0.97,1.1,3.91,1.04,944.37,21.7,
6885302,-0.03,-0.07,0.95,0.98,4.03,1.1,944.34,21.69,
6885340,-0.03,-0.07,0.92,1.1,3.36,1.28,944.37,21.69,
6885379,-0.02,-0.07,0.91,1.1,3.66,1.16,944.33,21.69,
6885417,-0.03,-0.07,0.89,1.04,3.05,1.46,944.32,21.68,
6885455,-0.04,-0.07,0.88,1.28,2.38,1.53,944.28,21.69,
6885493,-0.02,-0.08,0.87,1.1,2.26,1.46,944.32,21.69,
6885532,-0.02,-0.07,0.88,1.1,1.4,1.34,944.34,21.69,
6885582,-0.01,-0.07,0.89,1.1,0.92,1.46,944.37,21.68,
6885620,-0.02,-0.08,0.91,1.16,0.73,1.34,944.37,21.68,
6885658,-0.03,-0.08,0.91,1.28,0.92,1.16,944.36,21.7,
6885696,-0.02,-0.07,0.95,1.4,0.67,1.16,944.34,21.69,
6885735,-0.03,-0.07,0.95,1.34,0.55,0.98,944.38,21.68,
6885773,-0.03,-0.08,0.95,1.1,0.73,1.1,944.4,21.69,
6885811,-0.03,-0.07,0.97,1.34,1.04,1.04,944.4,21.7,
6885849,-0.02,-0.07,0.97,1.28,1.28,1.04,944.34,21.69,
6885888,-0.02,-0.07,0.99,1.1,1.53,0.92,944.4,21.69,
6885926,-0.03,-0.07,1.01,1.16,1.53,0.73,944.39,21.69,
6885976,-0.02,-0.07,1.02,1.16,1.59,0.85,944.44,21.67,
6886014,-0.02,-0.07,1.01,1.28,1.71,0.79,944.45,21.69,
6886052,-0.03,-0.06,1.02,1.22,1.71,0.67,944.46,21.68,
6886091,-0.01,-0.07,1.02,1.28,2.01,0.67,944.48,21.69,
6886129,-0.02,-0.07,1.04,1.28,1.71,0.61,944.45,21.69,
6886167,-0.02,-0.07,1.05,1.34,1.59,0.73,944.5,21.7,
6886205,-0.03,-0.07,1.05,1.4,1.59,0.55,944.52,21.69,
6886244,-0.02,-0.07,1.04,1.4,1.77,0.61,944.48,21.7,
6886282,-0.03,-0.07,1.04,1.53,1.46,0.43,944.49,21.7,
6886358,-0.03,-0.07,1.0,1.65,1.4,0.61,944.51,21.66,
6886396,-0.03,-0.07,1.02,1.46,1.22,0.67,944.55,21.69,
6886434,-0.03,-0.07,1.0,1.53,1.71,0.55,944.48,21.66,
6886524,-0.02,-0.07,1.04,1.34,1.34,0.61,944.58,21.66,
6886563,-0.06,-0.07,1.03,1.46,1.28,0.61,944.56,21.66,
6886601,-0.04,-0.07,1.03,1.4,1.83,0.61,944.54,21.67,
6886639,-0.03,-0.07,1.01,1.46,1.77,0.55,944.59,21.67,
6886677,-0.04,-0.07,1.01,1.4,1.89,0.55,944.56,21.68,
6886716,-0.03,-0.07,1.02,1.53,1.95,0.61,944.58,21.67,
6886754,-0.03,-0.08,1.02,1.28,2.38,0.55,944.54,21.67,
6886804,-0.03,-0.07,1.03,1.34,2.2,0.67,944.6,21.67,
6886842,-0.03,-0.07,1.02,1.28,2.26,0.61,944.62,21.67,
6886880,-0.04,-0.07,1.03,1.34,2.14,0.79,944.62,21.68,
6886919,-0.03,-0.08,1.05,1.34,1.89,0.73,944.6,21.69,
6886957,-0.03,-0.08,1.05,1.28,1.95,0.67,944.64,21.69,
6886995,-0.03,-0.07,1.05,1.16,1.83,0.79,944.66,21.69,
6887033,-0.04,-0.07,1.06,1.22,2.14,0.79,944.68,21.67,
6887072,-0.03,-0.07,1.06,1.28,2.32,0.79,944.65,21.69,
6887110,-0.03,-0.07,1.07,1.22,2.26,0.85,944.65,21.69,
6887148,-0.04,-0.07,1.06,1.16,2.5,0.79,944.64,21.68,
6887198,-0.03,-0.07,1.09,1.22,2.62,0.67,944.63,21.67,
6887236,-0.04,-0.08,1.08,1.1,3.11,0.73,944.67,21.69,
6887274,-0.03,-0.06,1.08,1.1,3.36,0.85,944.7,21.69,
6887313,-0.04,-0.06,1.1,1.16,3.72,0.73,944.7,21.68,
6887351,-0.03,-0.07,1.07,1.1,4.33,0.92,944.72,21.69,
6887389,-0.04,-0.06,1.09,1.16,4.39,0.85,944.65,21.69,
6887427,-0.05,-0.07,1.05,0.73,5.92,0.67,944.64,21.68,
6887466,-0.03,-0.07,1.08,1.04,5.49,0.73,944.69,21.69,
6887504,-0.03,-0.08,1.05,1.1,6.53,0.85,944.66,21.69,
6887554,-0.04,-0.06,1.01,1.1,6.1,0.79,944.69,21.68,
6887592,-0.03,-0.07,1.0,1.04,6.53,0.67,944.69,21.68,
6887630,-0.02,-0.07,0.94,0.92,5.98,0.92,944.71,21.68,
6887669,-0.03,-0.07,0.97,1.16,5.49,0.92,944.72,21.68,
6887707,-0.03,-0.08,0.96,0.92,5.92,0.98,944.68,21.69,
6887745,-0.02,-0.07,0.97,1.16,5.0,0.98,944.72,21.69,
6887783,-0.03,-0.06,0.99,1.34,4.58,1.28,944.66,21.69,
6887822,-0.03,-0.07,0.99,1.53,4.52,1.1,944.72,21.69,
6887860,-0.03,-0.08,1.01,1.46,4.46,1.1,944.75,21.69,
6887898,-0.02,-0.06,1.12,1.4,3.54,1.1,944.76,21.69,
6887948,-0.01,-0.07,1.13,1.1,3.66,1.16,944.72,21.68,
6887986,-0.03,-0.06,1.16,1.04,2.75,1.16,944.72,21.69,
6888025,-0.03,-0.06,1.17,1.16,3.11,1.16,944.72,21.69,
6888063,-0.03,-0.07,1.17,1.22,2.2,0.92,944.76,21.68,
6888101,-0.03,-0.07,1.18,1.59,1.71,0.98,944.74,21.69,
6888139,-0.05,-0.07,1.13,1.59,1.89,1.04,944.76,21.69,
6888178,-0.02,-0.06,1.14,1.77,1.89,0.85,944.73,21.69,
6888216,-0.04,-0.07,1.11,1.77,1.65,0.92,944.76,21.7,
6888254,-0.04,-0.07,1.09,1.95,1.65,0.85,944.8,21.7,
6888292,-0.04,-0.08,1.04,2.2,1.65,0.92,944.72,21.69,
6888342,-0.05,-0.07,0.98,2.32,0.79,1.04,944.83,21.7,
6888381,-0.04,-0.07,0.93,2.62,1.04,1.22,944.75,21.68,
6888419,-0.03,-0.07,0.88,2.26,0.49,1.1,944.77,21.69,
6888457,-0.04,-0.07,0.89,2.5,-0.06,1.28,944.7,21.69,
6888495,-0.05,-0.08,0.81,1.89,0.55,1.16,944.75,21.68,
6888534,-0.04,-0.07,0.82,2.08,-0.18,1.28,944.77,21.69,
6888572,-0.04,-0.08,0.77,1.53,0.43,1.46,944.78,21.7,
6888610,-0.04,-0.08,0.81,1.4,-0.37,1.28,944.77,21.7,
6888648,-0.04,-0.08,0.79,1.1,0.06,1.34,944.76,21.7,
6888698,-0.03,-0.07,0.84,0.67,0.18,1.28,944.85,21.68,
6888737,-0.03,-0.08,0.85,0.24,0.37,1.34,944.79,21.68,
6888775,-0.05,-0.08,0.86,-0.12,0.24,1.4,944.77,21.7,
6888813,-0.04,-0.08,0.91,-0.06,0.98,1.1,944.81,21.7,
6888851,-0.03,-0.08,0.9,-0.43,1.89,1.22,944.79,21.69,
6888890,-0.02,-0.07,1.0,-0.24,2.2,1.34,944.79,21.7,
6888928,-0.05,-0.08,0.98,-0.31,3.54,1.28,944.78,21.7,
6888966,-0.04,-0.08,0.98,-0.31,3.36,1.04,944.84,21.69,
6889004,-0.04,-0.07,0.96,-0.43,3.6,1.34,944.87,21.7,
6889043,-0.03,-0.07,0.98,-0.43,4.33,1.22,944.87,21.7,
6889093,-0.02,-0.08,1.01,-0.31,3.66,1.28,944.89,21.7,
6889131,-0.03,-0.07,1.03,0.0,3.54,1.34,944.86,21.69,
6889169,-0.03,-0.07,1.11,0.31,3.3,1.46,944.86,21.69,
6889207,-0.04,-0.07,1.13,0.37,3.36,1.65,944.89,21.7,
6889246,-0.04,-0.06,1.2,0.61,3.48,1.53,944.86,21.69,
6889284,-0.04,-0.07,1.18,0.37,5.13,1.59,944.9,21.7,
6889322,-0.01,-0.06,1.19,0.79,4.58,1.59,944.89,21.7,
6889360,-0.05,-0.07,1.21,1.1,5.43,1.46,944.93,21.7,
6889399,-0.04,-0.07,1.18,1.46,5.49,1.59,944.93,21.7,
6889475,-0.03,-0.06,1.17,2.08,6.04,1.53,944.91,21.66,
6889513,-0.05,-0.06,1.18,2.44,5.55,1.65,944.9,21.67,
6889551,-0.02,-0.07,1.16,2.62,6.41,1.65,944.91,21.69,
6889641,-0.04,-0.07,1.07,2.99,5.31,1.83,944.92,21.65,
6889679,-0.02,-0.06,1.08,3.23,4.88,1.89,944.9,21.67,
6889717,-0.01,-0.08,1.04,2.75,4.88,1.89,944.92,21.67,
6889756,-0.03,-0.07,0.99,3.17,3.48,1.89,944.89,21.67,
6889794,-0.05,-0.09,0.91,3.11,3.66,1.77,944.88,21.68,
6889832,-0.02,-0.08,0.9,3.17,3.3,1.89,944.89,21.68,
6889870,-0.02,-0.07,0.87,3.23,2.26,1.65,944.92,21.69,
6889920,-0.04,-0.07,0.81,3.05,2.01,1.65,944.85,21.67,
6889959,-0.03,-0.08,0.81,2.62,2.2,1.46,944.88,21.68,
6889997,-0.01,-0.07,0.88,2.32,1.59,1.65,944.87,21.68,
6890035,-0.03,-0.08,0.88,2.2,1.34,1.59,944.95,21.68,
6890074,-0.04,-0.08,0.84,1.89,1.83,1.59,944.95,21.69,
6890112,-0.02,-0.07,0.87,1.71,1.71,1.46,944.92,21.69,
6890150,-0.02,-0.08,0.82,1.34,2.08,1.46,944.91,21.69,
6890188,-0.03,-0.07,0.85,1.53,2.14,1.4,944.88,21.69,
6890227,-0.02,-0.08,0.82,1.1,2.81,1.46,944.94,21.69,
6890265,-0.02,-0.07,0.87,1.4,1.83,1.4,944.98,21.69,
6890315,-0.02,-0.08,0.89,0.92,2.5,1.22,944.97,21.69,
6890353,-0.01,-0.07,0.96,1.1,1.83,1.28,945.0,21.68,
6890391,-0.02,-0.07,0.96,0.98,2.2,1.22,945.0,21.69,
6890430,-0.02,-0.07,0.96,0.85,1.65,1.16,944.97,21.69,
6890468,-0.02,-0.06,1.01,1.04,1.1,1.16,944.97,21.69,
6890506,-0.03,-0.07,0.99,0.98,1.53,1.22,945.0,21.69,
6890544,-0.02,-0.07,1.03,1.22,0.92,1.22,944.99,21.69,
6890583,-0.03,-0.07,1.01,1.1,1.65,1.16,944.96,21.69,
6890621,-0.02,-0.06,1.0,1.28,1.22,0.92,945.02,21.7,
6890671,-0.03,-0.07,0.97,1.34,2.08,0.98,944.99,21.69,
6890709,-0.02,-0.06,0.98,1.59,1.77,0.85,945.0,21.69,
6890747,-0.03,-0.07,0.97,1.34,2.44,0.92,945.01,21.69,
6890786,-0.03,-0.07,0.95,1.65,2.44,0.92,945.04,21.7,
6890824,-0.03,-0.07,0.98,1.65,2.87,0.73,945.05,21.69,
6890862,-0.02,-0.08,0.95,1.65,3.36,0.67,945.06,21.7,
6890900,-0.03,-0.07,0.96,2.01,2.93,0.73,945.03,21.69,
6890939,-0.02,-0.07,0.95,1.77,3.85,0.67,945.05,21.69,
6890977,-0.02,-0.06,0.95,1.77,3.72,0.61,945.07,21.69,
6891015,-0.03,-0.07,0.95,1.95,3.6,0.61,945.06,21.69,
6891065,-0.03,-0.07,0.96,2.01,3.17,0.67,945.06,21.69,
6891103,-0.02,-0.07,0.97,2.01,2.99,0.61,945.04,21.69,
6891142,-0.03,-0.07,0.97,2.08,2.32,0.85,945.04,21.69,
6891180,-0.03,-0.06,0.98,1.89,2.14,0.79,945.02,21.69,
6891218,-0.02,-0.07,1.0,1.95,2.26,0.79,945.08,21.7,
6891256,-0.03,-0.07,1.01,1.71,1.95,0.73,945.09,21.7,
6891295,-0.03,-0.07,1.01,1.53,2.01,0.79,945.11,21.7,
6891333,-0.02,-0.06,1.02,1.46,2.01,0.73,945.05,21.69,
6891371,-0.02,-0.06,1.05,1.4,1.95,0.73,945.06,21.7,
6891409,-0.03,-0.06,1.05,1.59,2.01,0.85,945.11,21.7,
6891459,-0.03,-0.07,1.05,1.71,2.01,0.79,945.06,21.68,
6891498,-0.03,-0.06,1.05,1.77,1.77,0.73,945.05,21.69,
6891536,-0.03,-0.07,1.04,1.89,2.26,0.85,945.13,21.7,
6891574,-0.03,-0.07,1.03,1.83,2.14,0.79,945.07,21.69,
6891612,-0.03,-0.06,1.02,2.01,2.14,0.85,945.09,21.7,
6891651,-0.03,-0.06,1.01,2.14,2.38,0.92,945.15,21.7,
6891689,-0.03,-0.07,1.0,2.26,2.44,0.92,945.11,21.69,
6891727,-0.03,-0.07,1.01,2.26,2.44,0.92,945.09,21.69,
6891765,-0.04,-0.07,0.98,2.14,2.5,0.92,945.14,21.7,
6891815,-0.03,-0.07,0.99,2.32,2.69,0.92,945.16,21.69,
6891854,-0.03,-0.07,0.97,2.14,2.87,0.98,945.14,21.7,
6891892,-0.04,-0.07,0.96,2.08,2.93,1.04,945.09,21.69,
6891930,-0.03,-0.07,0.96,2.14,3.05,0.98,945.11,21.69,
6891968,-0.03,-0.07,0.96,2.14,2.87,1.04,945.1,21.7,
6892007,-0.03,-0.07,0.96,2.01,3.05,0.98,945.16,21.7,
6892045,-0.03,-0.07,0.96,2.08,3.11,1.04,945.12,21.7,
6892083,-0.03,-0.07,0.96,1.89,3.42,1.1,945.12,21.7,
6892121,-0.03,-0.07,0.97,2.2,3.23,0.98,945.17,21.7,
6892160,-0.03,-0.07,0.95,1.89,3.36,1.1,945.15,21.69,
6892210,-0.03,-0.07,0.94,1.89,3.23,1.22,945.26,21.7,
6892248,-0.03,-0.07,0.94,2.08,2.93,1.1,945.24,21.69,
6892286,-0.03,-0.07,0.93,1.95,2.99,1.16,945.22,21.7,
6892324,-0.03,-0.07,0.92,1.89,2.81,1.1,945.14,21.69,
6892363,-0.03,-0.07,0.92,2.01,2.75,1.16,945.17,21.7,
6892401,-0.03,-0.07,0.9,1.89,2.69,1.04,945.2,21.7,
6892439,-0.03,-0.07,0.91,1.83,2.75,1.16,945.27,21.71,
6892477,-0.03,-0.07,0.9,1.89,2.87,1.1,945.23,21.71,
6892516,-0.02,-0.07,0.89,1.77,2.93,1.16,945.18,21.71,
6892554,-0.03,-0.07,0.89,1.71,2.93,1.16,945.29,21.72,
6892630,-0.02,-0.07,0.91,1.59,2.99,1.1,945.22,21.67,
6892668,-0.03,-0.07,0.93,1.46,3.11,1.22,945.27,21.69,
6892706,-0.03,-0.07,0.95,1.65,3.23,1.1,945.27,21.69,
6892796,-0.03,-0.07,0.97,1.89,3.91,1.04,945.28,21.65,
6892835,-0.03,-0.07,0.97,1.83,4.15,1.04,945.25,21.66,
6892873,-0.03,-0.07,0.98,1.83,4.27,1.04,945.27,21.66,
6892911,-0.03,-0.06,0.99,1.89,4.39,1.16,945.28,21.67,
6892949,-0.02,-0.07,1.01,2.01,4.33,1.16,945.3,21.67,
6892988,-0.02,-0.06,1.01,2.08,4.27,1.04,945.32,21.68,
6893037,-0.02,-0.06,1.01,2.01,4.27,1.34,945.33,21.68,
6893076,-0.03,-0.07,0.99,2.26,4.15,1.16,945.29,21.67,
6893114,-0.02,-0.06,1.0,2.14,3.48,1.22,945.28,21.67,
6893152,-0.02,-0.07,1.0,2.32,3.23,1.4,945.31,21.67,
6893190,-0.03,-0.07,0.98,2.5,2.75,1.28,945.38,21.69,
6893229,-0.03,-0.06,0.98,2.5,2.32,1.34,945.32,21.69,
6893267,-0.03,-0.07,0.97,2.26,2.2,1.53,945.36,21.68,
6893305,-0.02,-0.07,0.98,2.38,1.65,1.22,945.32,21.69,
6893343,-0.02,-0.07,0.97,2.56,1.71,1.4,945.33,21.68,
6893382,-0.02,-0.07,0.97,2.38,1.22,1.59,945.38,21.69,
6893432,-0.02,-0.07,0.95,2.32,1.22,1.53,945.37,21.69,
6893470,-0.02,-0.06,0.95,2.5,0.98,1.34,945.38,21.7,
6893508,-0.02,-0.07,0.94,2.44,1.22,1.28,945.35,21.67,
6893546,-0.02,-0.07,0.92,2.38,1.28,1.28,945.42,21.69,
6893585,-0.02,-0.06,0.93,2.32,1.28,1.28,945.43,21.7,
6893623,-0.02,-0.07,0.93,2.62,1.46,1.34,945.4,21.69,
6893661,-0.02,-0.07,0.93,2.5,1.34,1.28,945.37,21.69,
6893699,-0.03,-0.07,0.94,2.32,1.53,1.22,945.43,21.69,
6893738,-0.03,-0.07,0.94,2.32,1.46,1.22,945.43,21.69,
6893776,-0.02,-0.07,0.97,2.38,1.53,1.1,945.48,21.71,
6893826,-0.03,-0.07,0.98,2.38,1.77,1.16,945.45,21.68,
6893864,-0.02,-0.08,0.97,2.32,1.95,1.16,945.49,21.7,
6893902,-0.03,-0.07,0.97,2.38,1.89,1.1,945.42,21.69,
6893941,-0.03,-0.07,0.98,2.08,2.44,1.1,945.46,21.7,
6893979,-0.02,-0.06,0.98,2.2,2.87,1.04,945.49,21.7,
6894017,-0.02,-0.07,0.99,2.38,2.69,0.98,945.47,21.71,
6894055,-0.02,-0.07,0.99,2.26,2.32,0.98,945.47,21.7,
6894094,-0.02,-0.07,1.0,2.2,2.14,0.98,945.49,21.71,
6894132,-0.02,-0.07,0.98,2.08,2.2,0.92,945.5,21.7,
6894182,-0.02,-0.07,1.0,2.01,2.62,1.1,945.51,21.7,
6894220,-0.02,-0.07,0.99,2.01,2.32,0.98,945.51,21.7,
6894258,-0.03,-0.07,0.98,1.89,2.26,0.98,945.56,21.7,
6894297,-0.02,-0.07,0.97,2.08,2.14,0.98,945.59,21.71,
6894335,-0.03,-0.07,0.96,1.83,2.14,0.85,945.55,21.7,
6894373,-0.02,-0.07,0.95,2.08,2.14,0.92,945.57,21.71,
6894411,-0.03,-0.08,0.95,2.14,2.26,0.92,945.54,21.7,
6894450,-0.02,-0.07,0.96,2.01,2.08,0.85,945.55,21.7,
6894488,-0.03,-0.07,0.95,1.83,2.01,0.98,945.61,21.7,
6894526,-0.03,-0.07,0.96,1.77,2.32,0.98,945.59,21.7,
6894576,-0.02,-0.07,1.0,1.83,2.38,1.04,945.63,21.69,
6894614,-0.02,-0.07,0.98,1.71,2.08,1.1,945.58,21.7,
6894653,-0.03,-0.07,0.95,1.83,2.75,1.04,945.58,21.71,
6894691,-0.03,-0.07,0.96,1.77,2.81,1.04,945.64,21.71,
6894729,-0.02,-0.07,0.93,2.01,3.11,0.98,945.63,21.7,
6894767,-0.03,-0.07,0.91,2.14,2.69,0.92,945.65,21.71,
6894806,-0.03,-0.07,0.91,2.2,2.81,0.85,945.57,21.7,
6894844,-0.03,-0.07,0.89,1.95,3.3,1.04,945.64,21.71,
6894882,-0.02,-0.07,0.91,2.14,2.81,0.98,945.6,21.71,
6894920,-0.03,-0.08,0.87,1.83,3.17,1.1,945.64,21.72,
6894970,-0.02,-0.07,0.93,1.77,2.93,1.1,945.62,21.69,
6895009,-0.02,-0.07,0.93,1.46,3.17,0.98,945.68,21.71,
6895047,-0.03,-0.07,0.93,1.77,2.56,1.04,945.72,21.71,
6895085,-0.02,-0.07,0.93,1.4,2.87,1.1,945.71,21.71,
6895123,-0.02,-0.06,0.94,1.65,2.69,0.98,945.68,21.7,
6895162,-0.03,-0.07,0.97,1.59,2.56,0.92,945.69,21.71,
6895200,-0.03,-0.07,0.96,1.53,2.62,0.98,945.77,21.72,
6895238,-0.03,-0.07,0.97,1.65,2.87,0.98,945.76,21.71,
6895276,-0.02,-0.07,0.98,1.53,2.81,1.1,945.73,21.71,
6895326,-0.03,-0.07,0.98,1.71,2.69,1.1,945.75,21.71,
6895364,-0.03,-0.07,0.99,1.71,3.05,0.98,945.78,21.71,
6895403,-0.03,-0.07,1.0,1.71,2.93,0.98,945.82,21.71,
6895441,-0.03,-0.07,1.01,1.59,2.87,1.22,945.76,21.7,
6895479,-0.03,-0.07,1.01,1.89,2.62,1.22,945.78,21.7,
6895517,-0.03,-0.07,1.0,1.89,2.81,1.28,945.76,21.71,
6895556,-0.01,-0.06,1.02,1.95,2.44,1.1,945.85,21.71,
6895594,-0.02,-0.07,1.01,1.89,2.5,1.1,945.81,21.71,
6895632,-0.03,-0.07,0.99,1.83,2.44,1.04,945.82,21.71,
6895670,-0.03,-0.06,1.0,1.83,2.56,1.4,945.87,21.71,
6895746,-0.02,-0.07,1.0,1.89,2.38,1.22,945.87,21.68,
6895785,-0.03,-0.07,0.98,1.89,2.75,1.34,945.83,21.69,
6895823,-0.02,-0.07,1.0,1.83,2.32,1.22,945.9,21.7,
6895913,-0.02,-0.07,0.98,1.89,2.08,1.34,945.95,21.68,
6895951,-0.02,-0.07,0.99,1.83,2.14,1.28,945.95,21.69,
6895989,-0.03,-0.07,0.98,2.08,2.14,1.4,945.91,21.69,
6896027,-0.02,-0.07,0.97,1.83,2.2,1.22,945.94,21.69,
6896066,-0.02,-0.07,0.98,1.83,1.95,1.22,945.94,21.69,
6896104,-0.02,-0.07,0.98,1.89,2.38,1.34,945.92,21.69,
6896142,-0.03,-0.07,1.0,1.83,2.2,1.16,945.96,21.69,
6896192,-0.03,-0.07,1.0,1.65,2.81,1.16,945.95,21.68,
6896230,-0.03,-0.06,1.03,1.77,2.26,1.28,945.98,21.69,
6896269,-0.03,-0.07,1.01,1.46,2.75,1.16,945.96,21.69,
6896307,-0.02,-0.07,1.04,1.89,2.38,1.28,946.01,21.69,
6896345,-0.01,-0.07,1.04,1.89,2.75,1.04,946.01,21.7,
6896383,-0.02,-0.07,1.02,1.83,2.69,1.16,946.02,21.7,
6896422,-0.03,-0.07,1.03,1.95,2.5,1.16,946.04,21.7,
6896460,-0.03,-0.07,1.02,1.89,2.69,1.22,946.05,21.7,
6896498,-0.03,-0.07,0.98,1.95,2.69,1.16,946.0,21.71,
6896548,-0.02,-0.07,0.99,1.77,2.87,1.28,946.02,21.69,
6896586,-0.02,-0.07,0.99,1.77,2.5,1.1,946.01,21.7,
6896625,-0.02,-0.07,0.97,1.95,2.32,1.1,946.09,21.7,
6896663,-0.03,-0.07,0.99,1.65,2.56,1.16,946.06,21.71,
6896701,-0.03,-0.07,0.97,1.53,2.69,1.1,946.07,21.71,
6896739,-0.03,-0.07,0.97,1.71,2.38,1.1,946.08,21.71,
6896778,-0.03,-0.07,0.98,1.53,2.62,1.22,946.09,21.72,
6896816,-0.02,-0.07,0.99,1.71,2.5,1.16,946.11,21.71,
6896854,-0.02,-0.07,0.99,1.53,2.56,1.1,946.15,21.71,
6896892,-0.03,-0.07,0.99,1.59,2.5,1.04,946.12,21.71,
6896942,-0.03,-0.07,0.99,1.46,2.69,1.28,946.12,21.71,
6896981,-0.03,-0.07,1.0,1.46,2.5,1.22,946.12,21.71,
6897019,-0.02,-0.07,1.01,1.46,2.56,1.22,946.13,21.71,
6897057,-0.02,-0.07,1.01,1.34,2.38,1.4,946.12,21.71,
6897095,-0.02,-0.07,1.02,1.4,2.5,1.34,946.16,21.71,
6897134,-0.03,-0.07,1.01,1.53,2.69,1.34,946.15,21.7,
6897172,-0.03,-0.07,1.01,1.28,2.62,1.28,946.24,21.71,
6897210,-0.03,-0.07,1.02,1.59,2.5,1.22,946.18,21.71,
6897248,-0.03,-0.08,1.02,1.46,2.56,1.16,946.23,21.72,
6897287,-0.03,-0.07,1.03,1.53,2.56,1.22,946.17,21.71,
6897337,-0.02,-0.07,1.06,1.46,2.75,1.28,946.23,21.71,
6897375,-0.03,-0.07,1.05,1.4,2.87,1.4,946.21,21.7,
6897413,-0.03,-0.07,1.06,1.46,2.93,1.46,946.19,21.71,
6897451,-0.03,-0.07,1.06,1.53,2.99,1.28,946.22,21.71,
6897489,-0.03,-0.07,1.06,1.34,3.11,1.28,946.29,21.71,
6897528,-0.02,-0.07,1.07,1.46,2.99,1.34,946.26,21.72,
6897566,-0.02,-0.07,1.07,1.4,3.17,1.34,946.27,21.71,
6897604,-0.03,-0.07,1.06,1.4,2.81,1.28,946.26,21.71,
6897642,-0.02,-0.07,1.06,1.53,2.99,1.28,946.27,21.71,
6897692,-0.03,-0.07,1.02,1.59,2.56,1.4,946.32,21.7,
6897731,-0.02,-0.07,1.02,1.65,2.32,1.4,946.28,21.72,
6897769,-0.02,-0.07,1.01,1.77,2.2,1.53,946.24,21.71,
6897807,-0.03,-0.08,1.0,1.65,1.65,1.46,946.33,21.71,
6897845,-0.02,-0.08,0.98,1.77,1.89,1.46,946.33,21.7,
6897884,-0.03,-0.07,0.98,1.65,1.65,1.4,946.36,21.72,
6897922,-0.02,-0.08,0.96,1.4,1.83,1.46,946.33,21.72,
6897960,-0.02,-0.07,0.96,1.28,1.4,1.34,946.33,21.72,
6897998,-0.03,-0.07,0.96,1.34,1.83,1.4,946.3,21.71,
6898037,-0.02,-0.08,0.95,1.1,1.95,1.4,946.33,21.71,
6898087,-0.03,-0.08,0.96,0.98,2.14,1.53,946.37,21.71,
6898125,-0.03,-0.08,0.95,0.79,2.56,1.4,946.41,21.73,
6898163,-0.02,-0.07,0.97,0.73,2.62,1.4,946.37,21.71,
6898201,-0.02,-0.08,0.98,0.67,2.69,1.34,946.41,21.72,
6898240,-0.02,-0.08,0.99,0.55,2.5,1.59,946.46,21.73,
6898278,-0.02,-0.07,0.99,0.43,2.56,1.34,946.42,21.73,
6898316,-0.01,-0.07,1.0,0.67,2.75,1.34,946.38,21.71,
6898354,-0.02,-0.07,1.02,0.61,2.56,1.4,946.41,21.71,
6898393,-0.02,-0.08,1.02,0.55,2.62,1.22,946.47,21.73,
6898431,-0.02,-0.08,1.03,0.73,2.38,1.16,946.43,21.72,
6898481,-0.02,-0.07,1.02,0.67,2.44,1.46,946.44,21.71,
6898519,-0.02,-0.07,1.03,0.85,2.01,1.1,946.47,21.71,
6898557,-0.02,-0.07,1.03,0.73,2.14,1.22,946.44,21.71,
6898596,-0.02,-0.07,1.02,0.98,2.2,1.1,946.5,21.7,
6898634,-0.02,-0.07,1.02,1.04,2.26,1.04,946.5,21.71,
6898672,-0.02,-0.07,1.03,1.04,2.14,0.98,946.5,21.72,
6898710,-0.03,-0.07,1.03,1.34,2.2,1.22,946.49,21.72,
6898749,-0.03,-0.07,1.02,1.34,2.5,0.85,946.55,21.72,
6898787,-0.02,-0.07,1.04,1.4,2.93,0.92,946.45,21.72,
6898863,-0.03,-0.08,0.98,1.4,3.66,0.92,946.56,21.7,
6898901,-0.02,-0.07,1.01,1.46,3.48,0.92,946.54,21.71,
6898939,-0.01,-0.07,0.99,1.59,3.6,0.92,946.56,21.7,
6899029,-0.02,-0.07,0.98,1.34,3.6,0.85,946.59,21.67,
6899068,-0.01,-0.07,0.99,1.65,3.6,0.79,946.56,21.69,
6899106,-0.01,-0.07,1.01,1.53,3.48,0.85,946.57,21.69,
6899144,-0.02,-0.08,1.0,1.4,3.66,0.73,946.52,21.7,
6899182,-0.02,-0.07,1.01,1.34,3.85,0.73,946.58,21.7,
6899221,-0.01,-0.07,1.04,1.4,3.66,0.98,946.57,21.69,
6899259,-0.02,-0.07,1.02,1.46,3.42,0.67,946.57,21.7,
6899309,-0.03,-0.07,1.04,1.53,3.6,0.67,946.63,21.7,
6899347,-0.02,-0.07,1.04,1.53,3.36,0.61,946.6,21.7,
6899385,-0.03,-0.07,1.05,1.71,3.05,0.67,946.58,21.71,
6899423,-0.03,-0.07,1.04,1.71,3.05,0.73,946.63,21.7,
6899462,-0.03,-0.07,1.04,2.01,2.62,0.61,946.65,21.71,
6899500,-0.02,-0.07,1.02,2.01,2.75,0.73,946.64,21.71,
6899538,-0.02,-0.07,1.01,1.89,2.08,0.73,946.63,21.72,
6899576,-0.03,-0.07,1.0,2.01,2.32,0.73,946.67,21.71,
6899615,-0.03,-0.07,0.97,2.08,2.44,0.79,946.65,21.71,
6899664,-0.02,-0.07,0.97,2.14,2.62,0.79,946.68,21.69,
6899703,-0.03,-0.07,0.95,2.01,2.26,0.79,946.67,21.7,
6899741,-0.04,-0.07,0.94,2.08,2.44,0.98,946.68,21.71,
6899779,-0.03,-0.07,0.94,2.14,2.56,0.85,946.7,21.71,
6899817,-0.03,-0.07,0.95,2.2,2.38,1.04,946.7,21.71,
6899856,-0.04,-0.08,0.93,2.08,2.44,1.04,946.71,21.71,
6899894,-0.03,-0.07,0.93,1.89,2.62,0.98,946.71,21.71,
6899932,-0.02,-0.07,0.92,1.83,2.56,0.98,946.73,21.71,
6899970,-0.03,-0.07,0.91,1.83,2.38,1.22,946.66,21.72,
6900009,-0.03,-0.08,0.92,1.95,2.93,1.22,946.69,21.71,
6900059,-0.03,-0.07,0.93,1.83,2.44,1.34,946.67,21.69,
6900097,-0.03,-0.07,0.92,1.77,2.62,1.34,946.69,21.71,
6900135,-0.03,-0.07,0.92,1.59,2.62,1.28,946.75,21.7,
6900173,-0.02,-0.08,0.93,1.59,2.81,1.34,946.71,21.71,
6900212,-0.02,-0.07,0.94,1.59,2.32,1.53,946.75,21.73,
6900250,-0.03,-0.07,0.94,1.53,2.44,1.46,946.8,21.71,
6900288,-0.03,-0.07,0.95,1.71,2.38,1.59,946.73,21.71,
6900326,-0.02,-0.07,0.94,1.71,2.44,1.53,946.77,21.72,
6900365,-0.03,-0.07,0.94,1.65,2.14,1.65,946.75,21.71,
6900403,-0.03,-0.08,0.92,1.59,2.38,1.53,946.78,21.72,
6900453,-0.02,-0.07,0.94,1.65,2.38,1.65,946.83,21.7,
6900491,-0.02,-0.07,0.93,1.59,2.5,1.59,946.79,21.71,
6900529,-0.04,-0.07,0.94,1.59,2.56,1.65,946.85,21.72,
6900568,-0.03,-0.08,0.94,1.89,2.69,1.71,946.84,21.71,
6900606,-0.03,-0.08,0.94,1.71,2.75,1.65,946.81,21.72,
6900644,-0.03,-0.07,0.94,1.83,2.69,1.95,946.86,21.73,
6900682,-0.03,-0.07,0.94,1.77,2.87,1.59,946.83,21.72,
6900721,-0.03,-0.08,0.94,1.83,2.93,1.77,946.85,21.72,
6900759,-0.03,-0.07,0.94,1.77,3.11,1.95,946.84,21.72,
6900809,-0.04,-0.07,0.94,1.71,3.23,1.71,946.87,21.7,
6900847,-0.02,-0.07,0.96,1.65,3.48,1.65,946.92,21.72,
6900885,-0.02,-0.08,0.96,1.59,3.6,1.89,946.82,21.71,
6900924,-0.02,-0.07,0.99,1.71,3.36,1.83,946.89,21.71,
6900962,-0.02,-0.07,0.97,1.46,3.6,1.77,946.95,21.72,
6901000,-0.01,-0.07,0.99,1.4,3.85,1.65,946.95,21.72,
6901038,-0.02,-0.07,1.01,1.4,3.66,1.83,946.93,21.72,
6901077,-0.03,-0.08,1.0,1.46,3.6,1.89,946.92,21.73,
6901115,-0.02,-0.08,1.01,1.59,3.85,1.77,946.95,21.73,
6901153,-0.02,-0.07,1.02,1.77,3.42,1.83,946.99,21.73,
6901203,-0.02,-0.07,1.0,1.71,3.42,1.83,946.94,21.71,
6901241,-0.03,-0.07,1.0,1.83,3.48,1.71,947.01,21.71,
6901280,-0.03,-0.07,1.01,1.83,3.36,1.83,947.0,21.72,
6901318,-0.02,-0.08,1.0,1.83,3.11,1.89,946.99,21.73,
6901356,-0.02,-0.07,1.0,2.08,2.99,1.65,947.06,21.73,
6901394,-0.02,-0.07,1.01,2.01,3.3,1.89,947.03,21.73,
6901433,-0.03,-0.08,0.98,1.95,3.66,1.59,947.03,21.73,
6901471,-0.02,-0.06,1.02,2.2,3.3,1.77,946.97,21.71,
6901509,-0.04,-0.08,1.02,1.95,3.97,1.83,947.04,21.73,
6901547,-0.02,-0.07,1.05,1.95,3.91,1.71,947.05,21.73,
6901597,-0.02,-0.07,1.05,1.83,3.91,1.53,947.05,21.72,
6901636,-0.03,-0.07,1.03,2.08,3.11,1.83,947.07,21.72,
6901674,-0.02,-0.07,1.03,1.89,3.17,1.89,947.01,21.73,
6901712,-0.01,-0.07,0.99,1.89,2.93,1.83,947.11,21.73,
6901750,-0.03,-0.07,0.99,2.14,2.26,1.89,947.08,21.72,
6901789,-0.03,-0.08,0.96,2.08,1.95,1.89,947.07,21.72,
6901827,-0.02,-0.07,0.96,1.95,1.34,1.89,947.1,21.72,
6901865,-0.02,-0.07,0.95,2.08,1.22,1.95,947.1,21.72,
6901903,-0.02,-0.08,0.94,1.89,1.22,1.95,947.11,21.73,
6901979,-0.02,-0.08,0.93,1.83,1.4,2.14,947.12,21.7,
6902018,-0.02,-0.07,0.95,1.77,0.92,1.89,947.16,21.7,
6902056,-0.02,-0.08,0.94,1.65,1.22,1.77,947.13,21.71,
6902220,-0.02,-0.07,0.92,1.34,1.22,1.77,947.23,21.66,
6902259,-0.01,-0.08,0.9,0.98,1.71,1.71,947.21,21.67,
6902297,-0.01,-0.08,0.94,0.73,1.89,1.34,947.25,21.66,
6902335,-0.01,-0.08,0.93,0.73,2.32,1.34,947.23,21.69,
6902373,-0.01,-0.08,0.93,0.73,2.14,1.53,947.21,21.69,
6902412,-0.02,-0.08,0.94,0.73,2.2,1.22,947.24,21.69,
6902450,-0.02,-0.07,0.95,0.92,2.69,1.1,947.24,21.69,
6902500,-0.02,-0.07,0.97,1.04,2.69,0.98,947.33,21.68,
6902538,-0.02,-0.07,0.99,1.22,3.05,0.85,947.25,21.69,
6902576,-0.03,-0.07,1.0,1.28,3.17,0.92,947.28,21.71,
6902615,-0.02,-0.08,0.99,1.16,3.85,0.85,947.29,21.69,
6902653,-0.02,-0.07,1.01,1.53,3.97,0.79,947.33,21.71,
6902691,-0.02,-0.07,1.03,1.34,4.46,0.73,947.35,21.71,
6902729,-0.02,-0.07,1.0,1.16,4.64,0.61,947.32,21.7,
6902768,-0.01,-0.06,1.01,1.1,4.39,0.73,947.37,21.71,
6902806,-0.01,-0.07,1.0,1.1,4.7,0.73,947.36,21.72,
6902844,-0.01,-0.08,0.99,0.92,4.64,0.73,947.37,21.71,
6902894,-0.01,-0.07,1.01,0.92,4.27,0.85,947.36,21.71,
6902932,-0.02,-0.07,1.0,1.04,4.03,0.73,947.4,21.71,
6902970,-0.02,-0.07,1.0,0.98,3.91,0.61,947.41,21.72,
6903009,-0.02,-0.07,1.02,0.98,3.6,0.61,947.45,21.71,
6903047,-0.01,-0.07,1.02,0.92,3.17,0.55,947.36,21.69,
6903085,-0.02,-0.07,1.02,0.67,2.81,0.61,947.39,21.71,
6903123,-0.02,-0.07,1.02,1.1,3.3,0.61,947.45,21.72,
6903162,-0.01,-0.07,1.03,0.98,3.17,0.55,947.44,21.72,
6903200,-0.02,-0.07,1.05,1.28,2.93,0.67,947.43,21.72,
6903250,-0.02,-0.08,1.02,1.34,3.48,0.61,947.41,21.7,
6903288,-0.02,-0.07,1.02,1.46,3.11,0.55,947.51,21.71,
6903326,-0.03,-0.07,1.01,1.46,3.42,0.55,947.46,21.71,
6903365,-0.02,-0.08,0.98,1.34,3.48,0.55,947.49,21.72,
6903403,-0.02,-0.07,0.99,1.53,3.36,0.43,947.52,21.72,
6903441,-0.02,-0.07,0.99,1.65,3.6,0.55,947.53,21.71,
6903479,-0.02,-0.07,0.98,1.59,3.3,0.67,947.54,21.72,
6903518,-0.02,-0.07,0.98,1.83,3.42,0.55,947.53,21.72,
6903556,-0.02,-0.07,0.98,1.77,3.72,0.43,947.6,21.72,
6903594,-0.01,-0.07,0.98,1.89,3.72,0.55,947.59,21.72,
6903644,-0.02,-0.07,0.97,1.89,3.6,0.37,947.6,21.71,
6903682,-0.02,-0.07,0.98,1.89,3.3,0.37,947.58,21.72,
6903721,-0.03,-0.07,0.97,1.89,3.42,0.37,947.58,21.71,
6903759,-0.02,-0.07,0.97,1.89,3.48,0.24,947.62,21.72,
6903797,-0.02,-0.07,0.98,1.65,3.05,0.37,947.64,21.73,
6903835,-0.02,-0.07,0.97,1.71,3.42,0.24,947.62,21.73,
6903874,-0.02,-0.07,0.96,1.71,3.3,0.18,947.59,21.73,
6903912,-0.02,-0.07,0.98,1.77,3.36,0.43,947.62,21.73,
6903950,-0.02,-0.08,0.95,1.95,3.36,0.18,947.7,21.73,
6903988,-0.03,-0.07,0.96,1.95,3.6,0.06,947.6,21.72,
6904038,-0.03,-0.06,0.97,1.95,3.42,0.31,947.67,21.7,
6904077,-0.03,-0.06,0.97,1.89,3.54,0.06,947.63,21.71,
6904115,-0.03,-0.08,0.99,1.95,3.42,0.24,947.69,21.72,
6904153,-0.03,-0.07,0.99,1.89,3.72,0.24,947.66,21.72,
6904191,-0.03,-0.07,0.98,1.95,3.36,0.18,947.73,21.72,
6904230,-0.03,-0.07,0.97,1.89,3.3,0.24,947.75,21.72,
6904268,-0.03,-0.07,0.98,1.95,3.42,0.24,947.78,21.73,
6904306,-0.03,-0.07,0.98,2.01,3.36,0.37,947.74,21.73,
6904344,-0.03,-0.07,1.01,1.95,2.87,0.24,947.74,21.71,
6904394,-0.03,-0.07,1.02,2.01,2.56,0.24,947.78,21.71,
6904433,-0.03,-0.07,1.02,1.95,2.99,0.24,947.68,21.73,
6904471,-0.03,-0.07,1.01,2.2,2.38,0.31,947.8,21.72,
6904509,-0.03,-0.08,1.0,2.14,2.32,0.31,947.73,21.73,
6904547,-0.0,-0.07,0.98,2.2,1.89,0.31,947.82,21.73,
6904586,-0.04,-0.07,0.95,2.44,1.71,0.31,947.77,21.72,
6904624,-0.02,-0.07,0.94,2.2,1.65,0.43,947.86,21.74,
6904662,-0.02,-0.07,0.94,2.38,1.34,0.43,947.85,21.73,
6904700,-0.03,-0.07,0.92,2.32,1.28,0.31,947.81,21.73,
6904739,-0.03,-0.06,0.94,2.5,0.85,0.31,947.82,21.73,
6904789,-0.03,-0.07,0.95,2.26,1.4,0.37,947.83,21.71,
6904827,-0.03,-0.07,0.97,2.08,1.1,0.31,947.91,21.73,
6904865,-0.03,-0.07,0.97,2.08,1.34,0.37,947.89,21.73,
6904903,-0.03,-0.08,1.0,2.08,2.01,0.31,947.87,21.72,
6904942,-0.04,-0.07,0.99,2.08,2.75,0.31,947.94,21.73,
6904980,-0.03,-0.07,0.99,2.2,2.87,0.31,947.89,21.72,
6905018,-0.03,-0.07,0.98,2.32,3.17,0.18,947.94,21.73,
6905056,-0.03,-0.07,0.98,2.32,3.54,0.37,947.97,21.74,
6905095,-0.03,-0.07,0.96,2.32,3.72,0.31,947.96,21.73,
6905133,-0.02,-0.07,0.98,2.5,3.91,0.43,947.9,21.73,
6905209,-0.04,-0.07,0.98,2.62,3.97,0.37,947.99,21.71,
6905247,-0.03,-0.07,0.98,2.62,3.97,0.43,947.98,21.71,
6905285,-0.02,-0.07,1.0,2.56,3.78,0.37,947.9,21.71,
6905375,-0.03,-0.07,1.0,2.75,3.91,0.43,947.98,21.67,
6905414,-0.03,-0.07,0.97,2.69,4.27,0.55,948.03,21.69,
6905452,-0.04,-0.07,0.98,2.81,3.97,0.61,948.01,21.7,
6905490,-0.04,-0.08,0.96,2.44,4.46,0.61,948.11,21.7,
6905528,-0.03,-0.08,0.97,2.44,3.91,0.61,948.06,21.71,
6905567,-0.04,-0.07,0.96,2.26,3.72,0.85,948.02,21.71,
6905617,-0.04,-0.07,0.99,2.44,4.09,0.79,948.03,21.7,
6905655,-0.03,-0.07,0.97,2.26,3.97,0.79,948.04,21.71,
6905693,-0.04,-0.07,0.99,2.38,3.66,1.04,948.05,21.71,
6905731,-0.04,-0.07,0.99,2.2,3.97,1.1,948.07,21.7,
6905769,-0.03,-0.07,1.02,2.08,4.09,0.98,948.08,21.71,
6905808,-0.02,-0.07,1.03,2.2,3.85,0.92,948.09,21.71,
6905846,-0.02,-0.07,1.02,2.14,3.36,1.16,948.17,21.72,
6905884,-0.03,-0.06,1.02,2.2,3.17,1.04,948.1,21.72,
6905922,-0.03,-0.07,1.0,2.38,3.05,1.16,948.15,21.73,
6905961,-0.02,-0.07,0.99,2.32,2.26,1.16,948.13,21.72,
6906011,-0.03,-0.07,0.97,2.62,1.89,1.16,948.21,21.71,
6906049,-0.02,-0.07,0.96,2.44,1.77,1.16,948.18,21.72,
6906087,-0.02,-0.07,0.97,2.56,1.46,1.04,948.18,21.72,
6906125,-0.04,-0.07,0.96,2.5,1.28,0.98,948.22,21.73,
6906164,-0.03,-0.07,0.97,2.75,1.77,0.92,948.2,21.73,
6906202,-0.02,-0.08,0.95,2.81,2.14,0.92,948.24,21.74,
6906240,-0.03,-0.07,0.96,2.87,1.77,0.79,948.24,21.73,
6906278,-0.03,-0.07,0.93,2.75,2.38,0.98,948.26,21.74,
6906317,-0.02,-0.08,0.93,2.56,1.77,0.85,948.21,21.71,
6906355,-0.03,-0.07,0.92,2.56,1.65,0.61,948.24,21.73,
6906405,-0.03,-0.07,0.9,2.44,1.46,0.67,948.32,21.72,
6906443,-0.02,-0.07,0.93,2.26,1.53,0.73,948.29,21.72,
6906481,-0.03,-0.07,0.98,2.26,1.1,0.67,948.25,21.73,
6906519,-0.03,-0.07,1.0,2.14,1.46,0.67,948.33,21.73,
6906558,-0.03,-0.07,1.03,1.95,1.95,0.55,948.31,21.74,
6906596,-0.02,-0.06,1.07,1.89,2.14,0.37,948.34,21.73,
6906634,-0.03,-0.07,1.1,1.77,1.65,0.43,948.34,21.74,
6906672,-0.03,-0.07,1.11,1.59,1.77,0.55,948.39,21.74,
6906711,-0.03,-0.06,1.11,1.71,2.14,0.37,948.43,21.74,
6906761,-0.03,-0.07,1.07,1.83,2.08,0.55,948.39,21.71,
6906799,-0.02,-0.07,1.07,2.01,1.77,0.37,948.41,21.73,
6906837,-0.03,-0.08,1.04,2.01,2.26,0.37,948.44,21.73,
6906875,-0.03,-0.06,1.03,2.01,2.56,0.37,948.38,21.72,
6906914,-0.03,-0.06,1.04,2.08,2.62,0.43,948.47,21.73,
6906952,-0.04,-0.07,1.01,2.2,2.99,0.55,948.44,21.72,
6906990,-0.03,-0.07,1.0,2.01,2.93,0.43,948.5,21.73,
6907028,-0.03,-0.07,1.01,2.08,3.48,0.55,948.51,21.73,
6907067,-0.02,-0.07,0.98,2.08,3.66,0.37,948.5,21.73,
6907105,-0.03,-0.06,1.0,2.08,3.78,0.43,948.55,21.74,
6907155,-0.03,-0.07,0.98,1.95,4.21,0.43,948.53,21.72,
6907193,-0.02,-0.07,1.0,2.14,3.78,0.43,948.53,21.73,
6907231,-0.02,-0.07,0.98,2.2,3.36,0.49,948.55,21.73,
6907270,-0.04,-0.07,0.99,2.32,2.56,0.67,948.54,21.73,
6907308,-0.03,-0.07,0.97,2.2,3.54,0.67,948.56,21.72,
6907346,-0.01,-0.07,1.01,2.44,2.69,0.67,948.53,21.73,
6907384,-0.03,-0.07,0.95,2.01,2.62,0.73,948.56,21.73,
6907423,-0.03,-0.06,1.0,2.14,1.83,0.79,948.59,21.73,
6907461,-0.03,-0.08,0.99,1.83,2.93,0.67,948.57,21.72,
6907499,-0.03,-0.07,1.0,1.89,1.4,0.79,948.63,21.75,
6907549,-0.04,-0.07,0.99,1.65,2.26,1.04,948.57,21.73,
6907587,-0.02,-0.06,1.03,1.89,1.95,0.85,948.62,21.74,
6907626,-0.02,-0.07,1.03,1.71,2.32,0.79,948.65,21.73,
6907664,-0.03,-0.07,1.02,1.89,1.77,1.1,948.68,21.73,
6907702,-0.03,-0.06,1.05,1.77,2.14,1.04,948.68,21.74,
6907740,-0.03,-0.06,1.04,2.01,2.38,0.98,948.66,21.74,
6907779,-0.03,-0.06,1.06,1.95,1.77,0.79,948.62,21.74,
6907817,-0.03,-0.07,1.05,1.89,2.14,0.98,948.64,21.73,
6907855,-0.03,-0.07,1.07,2.01,2.26,0.92,948.72,21.74,
6907905,-0.03,-0.06,1.09,2.2,2.32,1.1,948.73,21.72,
6907943,-0.03,-0.06,1.1,2.08,2.08,1.16,948.69,21.73,
6907982,-0.04,-0.06,1.13,2.2,2.87,1.04,948.76,21.73,
6908020,-0.03,-0.06,1.14,2.08,2.69,1.16,948.73,21.74,
6908058,-0.02,-0.06,1.14,2.08,2.5,1.1,948.79,21.73,
6908096,-0.03,-0.06,1.11,2.08,2.62,1.34,948.75,21.73,
6908135,-0.03,-0.06,1.14,2.32,2.44,1.28,948.78,21.75,
6908173,-0.02,-0.07,1.11,2.38,2.69,1.16,948.78,21.74,
6908211,-0.03,-0.06,1.08,2.44,1.4,1.22,948.79,21.74,
6908249,-0.04,-0.07,1.04,2.2,2.01,1.22,948.82,21.75,
6908325,-0.04,-0.08,1.02,2.01,2.75,1.4,948.78,21.71,
6908364,-0.04,-0.07,1.03,2.2,2.26,1.34,948.82,21.72,
6908402,-0.04,-0.07,0.98,1.89,2.99,1.4,948.81,21.72,
6908492,-0.03,-0.07,0.96,1.83,3.54,1.59,948.85,21.7,
6908530,-0.03,-0.07,0.95,1.77,3.11,1.53,948.82,21.71,
6908568,-0.03,-0.07,0.97,1.46,3.6,1.34,948.83,21.71,
6908606,-0.02,-0.07,0.97,1.53,3.23,1.53,948.87,21.71,
6908645,-0.02,-0.07,0.93,1.34,3.17,1.4,948.87,21.72,
6908683,-0.04,-0.07,0.95,1.53,2.62,1.71,948.81,21.71,
6908721,-0.03,-0.07,0.93,1.28,2.93,1.71,948.88,21.71,
6908771,-0.03,-0.07,0.95,1.46,2.2,1.59,948.86,21.73,
6908809,-0.04,-0.07,0.94,1.46,2.26,1.77,948.83,21.71,
6908848,-0.02,-0.07,0.94,1.34,2.14,1.59,948.92,21.72,
6908886,-0.02,-0.07,0.96,1.34,2.2,1.83,948.91,21.73,
6908924,-0.02,-0.07,0.96,1.46,1.83,1.83,948.9,21.73,
6908962,-0.03,-0.07,0.97,1.16,2.14,1.83,948.91,21.73,
6909001,-0.03,-0.07,0.99,1.04,2.08,1.71,948.94,21.72,
6909039,-0.03,-0.07,1.01,0.98,2.26,1.83,948.93,21.73,
6909077,-0.02,-0.07,1.01,1.22,2.01,1.77,948.91,21.72,
6909127,-0.02,-0.07,1.03,1.04,1.95,1.71,948.96,21.71,
6909165,-0.03,-0.07,1.02,1.22,1.71,1.71,948.97,21.73,
6909204,-0.02,-0.07,1.04,1.1,1.71,1.59,948.96,21.72,
6909242,-0.02,-0.07,1.02,1.1,1.53,1.71,949.02,21.73,
6909280,-0.01,-0.07,1.04,1.28,1.28,1.71,948.99,21.73,
6909318,-0.02,-0.07,1.02,1.16,1.34,1.65,949.0,21.71,
6909357,-0.02,-0.07,1.01,1.34,0.92,1.65,949.05,21.73,
6909395,-0.03,-0.07,1.0,1.4,0.73,1.53,949.0,21.73,
6909433,-0.02,-0.07,0.99,1.34,0.67,1.53,949.04,21.73,
6909471,-0.02,-0.08,0.99,1.4,0.55,1.53,949.03,21.73,
6909521,-0.03,-0.07,0.98,1.1,0.55,1.59,949.04,21.72,
6909560,-0.02,-0.07,0.99,1.16,0.61,1.53,949.09,21.73,
6909598,-0.01,-0.07,1.01,0.92,0.61,1.4,949.08,21.73,
6909636,-0.02,-0.07,1.0,0.61,0.49,1.34,949.06,21.74,
6909674,-0.02,-0.07,1.02,1.04,0.55,1.16,949.1,21.74,
6909713,-0.02,-0.07,1.01,0.92,0.79,1.28,949.17,21.73,
6909751,-0.02,-0.07,1.02,0.92,0.55,1.22,949.13,21.74,
6909789,-0.02,-0.07,1.02,0.79,0.92,1.16,949.1,21.73,
6909827,-0.02,-0.07,1.01,0.79,0.85,1.04,949.15,21.74,
6909866,-0.02,-0.07,1.0,0.92,0.92,1.04,949.11,21.74,
6909916,-0.02,-0.07,1.0,1.1,0.92,1.1,949.15,21.73,
6909954,-0.02,-0.08,1.0,1.22,0.73,0.98,949.2,21.74,
6909992,-0.02,-0.07,0.99,1.46,0.43,1.16,949.09,21.74,
6910030,-0.03,-0.07,0.99,1.71,0.79,0.92,949.13,21.72,
6910069,-0.02,-0.07,0.97,1.59,0.98,0.92,949.14,21.73,
6910107,-0.02,-0.07,0.99,1.83,0.85,1.04,949.17,21.73,
6910145,-0.03,-0.08,0.96,1.83,1.16,1.04,949.16,21.73,
6910183,-0.03,-0.07,0.98,2.08,0.92,0.98,949.21,21.74,
6910222,-0.02,-0.07,0.98,1.95,1.59,1.1,949.14,21.75,
6910272,-0.02,-0.06,0.98,1.95,1.34,1.16,949.15,21.73,
6910310,-0.04,-0.07,0.97,1.95,1.89,1.1,949.18,21.73,
6910348,-0.03,-0.07,0.97,1.77,2.62,1.16,949.22,21.73,
6910386,-0.02,-0.07,0.99,1.77,2.44,1.16,949.18,21.73,
6910425,-0.03,-0.07,0.99,1.83,2.81,1.16,949.23,21.73,
6910463,-0.03,-0.08,0.97,1.95,2.44,1.22,949.28,21.75,
6910501,-0.02,-0.07,0.97,2.08,2.81,1.22,949.19,21.73,
6910539,-0.02,-0.07,0.97,2.14,2.87,1.22,949.22,21.74,
6910578,-0.04,-0.07,0.95,2.14,2.99,1.34,949.27,21.73,
6910616,-0.02,-0.07,0.94,2.32,3.23,1.16,949.27,21.74,
6910666,-0.02,-0.08,0.95,2.38,3.3,1.04,949.28,21.73,
6910704,-0.02,-0.08,0.97,2.32,3.36,1.22,949.3,21.74,
6910742,-0.02,-0.07,0.94,2.14,3.11,1.04,949.29,21.74,
6910781,-0.04,-0.07,0.92,2.14,3.17,1.16,949.28,21.74,
6910819,-0.03,-0.08,0.95,2.01,3.48,1.22,949.27,21.73,
6910857,-0.02,-0.08,0.93,1.95,3.17,1.22,949.34,21.73,
6910895,-0.03,-0.07,0.94,1.83,2.08,1.22,949.36,21.73,
6910934,-0.02,-0.08,0.94,1.83,2.75,1.28,949.34,21.74,
6910972,-0.03,-0.07,0.93,1.83,2.56,1.4,949.33,21.74,
6911010,-0.02,-0.08,0.95,1.89,2.2,1.28,949.35,21.75,
6911060,-0.03,-0.07,0.96,1.83,2.44,1.46,949.32,21.73,
6911098,-0.03,-0.08,0.97,1.83,2.56,1.53,949.38,21.74,
6911137,-0.02,-0.07,0.99,1.71,2.32,1.4,949.34,21.74,
6911175,-0.02,-0.07,0.99,1.59,2.2,1.59,949.37,21.74,
6911213,-0.03,-0.07,0.98,1.4,2.32,1.4,949.39,21.74,
6911251,-0.03,-0.08,1.01,1.65,2.69,1.46,949.37,21.74,
6911290,-0.03,-0.07,0.99,1.22,2.69,1.53,949.42,21.75,
6911328,-0.02,-0.07,1.01,1.1,2.87,1.53,949.38,21.73,
6911366,-0.02,-0.07,1.01,1.1,3.3,1.46,949.48,21.74,
6911442,-0.02,-0.07,1.08,1.28,2.87,1.59,949.44,21.72,
6911480,-0.02,-0.07,1.07,1.16,2.99,1.46,949.47,21.73,
6911519,-0.03,-0.07,1.12,1.89,3.17,1.34,949.49,21.72,
6911608,-0.02,-0.07,1.08,1.95,3.3,1.4,949.48,21.7,
6911647,-0.03,-0.07,1.02,2.01,3.85,1.46,949.47,21.71,
6911685,-0.03,-0.07,1.0,2.14,3.11,1.4,949.43,21.71,
6911723,-0.03,-0.06,1.03,2.26,3.23,1.28,949.53,21.72,
6911761,-0.03,-0.08,1.01,1.89,4.15,1.4,949.51,21.72,
6911800,-0.03,-0.07,1.05,2.14,3.42,1.46,949.53,21.72,
6911838,-0.04,-0.08,1.03,2.14,4.15,1.4,949.5,21.73,
6911888,-0.04,-0.07,1.05,2.01,3.72,1.71,949.5,21.71,
6911926,-0.03,-0.08,1.06,1.65,3.72,1.59,949.49,21.74,
6911964,-0.03,-0.08,1.03,1.4,2.87,1.65,949.49,21.73,
6912003,-0.04,-0.07,1.04,1.22,2.56,1.77,949.49,21.73,
6912041,-0.02,-0.07,1.05,1.1,2.75,1.77,949.55,21.72,
6912079,-0.02,-0.07,1.05,1.04,2.2,2.01,949.58,21.73,
6912117,-0.03,-0.07,1.06,1.16,1.53,2.08,949.54,21.74,
6912156,-0.05,-0.07,1.06,1.22,1.04,2.08,949.5,21.73,
6912194,-0.04,-0.07,1.06,1.04,1.1,2.26,949.57,21.74,
6912232,-0.02,-0.07,1.11,1.04,0.85,2.08,949.56,21.74,
6912282,-0.03,-0.07,1.1,1.34,0.79,2.26,949.55,21.73,
6912320,-0.02,-0.08,1.09,1.22,1.28,2.26,949.59,21.73,
6912359,-0.02,-0.07,1.08,1.4,1.59,2.14,949.61,21.73,
6912397,-0.03,-0.07,1.08,1.4,1.65,2.14,949.67,21.74,
6912435,-0.03,-0.07,1.03,1.46,1.04,2.2,949.63,21.74,
6912473,-0.02,-0.08,1.06,1.59,1.1,2.14,949.63,21.74,
6912512,-0.02,-0.08,1.03,1.28,1.53,2.08,949.64,21.74,
6912550,-0.02,-0.07,1.05,1.65,1.28,2.14,949.61,21.73,
6912588,-0.03,-0.08,1.04,1.83,1.34,2.26,949.64,21.74,
6912638,-0.02,-0.07,1.03,2.01,1.34,2.2,949.71,21.74,
6912676,-0.01,-0.07,1.02,1.95,1.59,2.38,949.71,21.73,
6912715,-0.01,-0.07,1.01,2.14,1.22,2.32,949.73,21.75,
6912753,-0.01,-0.07,0.99,2.01,1.34,2.14,949.67,21.74,
6912791,-0.01,-0.08,0.99,2.5,1.22,2.26,949.75,21.74,
6912829,-0.01,-0.07,0.95,2.38,1.46,2.2,949.75,21.74,
6912868,-0.0,-0.07,0.92,2.62,1.46,2.08,949.73,21.76,
6912906,-0.0,-0.08,0.88,2.56,1.59,1.83,949.69,21.75,
6912944,-0.03,-0.07,0.87,2.62,1.22,1.53,949.69,21.75,
6912982,-0.01,-0.08,0.84,2.38,1.83,1.83,949.72,21.74,
6913032,-0.0,-0.08,0.83,2.26,2.08,1.46,949.7,21.74,
6913071,-0.01,-0.08,0.84,2.26,2.32,1.46,949.72,21.74,
6913109,-0.01,-0.08,0.82,2.01,2.99,1.59,949.67,21.74,
6913147,-0.0,-0.08,0.86,1.89,3.05,1.22,949.67,21.74,
6913185,-0.0,-0.08,0.89,1.65,3.11,1.16,949.71,21.73,
6913224,-0.02,-0.08,0.91,1.59,2.93,1.16,949.73,21.74,
6913262,-0.0,-0.08,0.9,1.34,3.3,1.04,949.78,21.76,
6913300,-0.02,-0.08,0.92,1.4,2.87,0.92,949.75,21.74,
6913338,-0.01,-0.08,0.9,1.1,3.6,1.04,949.77,21.75,
6913377,-0.01,-0.08,0.91,1.28,3.3,0.92,949.76,21.75,
6913427,-0.01,-0.08,0.9,1.22,4.09,0.79,949.76,21.73,
6913465,-0.02,-0.07,0.92,1.16,3.72,0.79,949.77,21.76,
6913503,-0.03,-0.08,0.92,1.1,3.85,0.73,949.8,21.75,
6913541,-0.02,-0.08,0.93,1.28,4.33,0.67,949.84,21.75,
6913580,-0.02,-0.08,0.92,1.16,4.64,0.61,949.83,21.76,
6913618,-0.02,-0.08,0.92,0.98,4.64,0.67,949.79,21.75,
6913656,-0.02,-0.08,0.95,1.04,4.7,0.67,949.82,21.74,
6913694,-0.04,-0.08,0.88,0.85,5.07,0.67,949.85,21.76,
6913733,-0.02,-0.07,0.92,0.98,4.94,0.61,949.83,21.75,
6913783,-0.02,-0.08,0.9,0.73,5.25,0.49,949.82,21.74,
6913821,-0.04,-0.07,0.94,0.85,4.88,0.73,949.88,21.75,
6913859,-0.03,-0.08,0.92,0.92,5.62,0.67,949.82,21.74,
6913897,-0.03,-0.08,0.94,0.67,4.76,0.67,949.85,21.74,
6913936,-0.04,-0.07,0.94,0.55,5.19,0.98,949.89,21.74,
6913974,-0.04,-0.07,0.95,0.55,5.62,0.98,949.86,21.74,
6914012,-0.04,-0.07,1.0,0.73,5.49,0.85,949.84,21.75,
6914050,-0.04,-0.08,0.98,0.49,5.43,1.1,949.85,21.75,
6914089,-0.03,-0.07,1.02,0.55,4.27,1.04,949.9,21.75,
6914127,-0.04,-0.08,0.95,0.31,4.46,1.16,949.99,21.75,
6914177,-0.04,-0.07,0.95,0.67,3.42,1.46,949.93,21.74,
6914215,-0.02,-0.08,0.91,0.61,3.11,1.4,949.9,21.74,
6914253,-0.03,-0.07,0.92,0.98,2.01,1.34,949.95,21.74,
6914292,-0.04,-0.08,0.94,0.98,1.95,1.59,949.91,21.75,
6914330,-0.02,-0.08,0.95,1.16,1.53,1.59,949.93,21.73,
6914368,-0.03,-0.07,0.95,1.1,1.22,1.53,950.0,21.74,
6914406,-0.05,-0.07,0.93,0.98,0.92,1.71,949.95,21.74,
6914445,-0.03,-0.07,0.94,1.1,0.92,1.65,950.02,21.75,
6914483,-0.03,-0.07,0.95,0.98,0.92,1.59,949.99,21.75,
6914521,-0.03,-0.07,0.99,1.04,0.92,1.59,950.04,21.75,
6914597,-0.04,-0.07,1.02,1.04,1.95,1.65,950.05,21.72,
6914635,-0.02,-0.07,1.05,1.1,1.71,1.53,950.03,21.73,
6914674,-0.02,-0.07,1.05,1.22,1.83,1.71,950.05,21.73,
6914763,-0.03,-0.07,1.05,1.65,1.77,1.59,950.11,21.7,
6914802,-0.02,-0.07,1.03,1.83,1.16,1.4,950.14,21.72,
6914840,-0.03,-0.07,1.04,2.01,1.04,1.4,950.11,21.73,
6914878,-0.03,-0.07,1.03,1.95,1.22,1.34,950.15,21.73,
6914916,-0.02,-0.07,1.05,2.14,0.92,1.34,950.16,21.73,
6914955,-0.02,-0.07,1.04,2.2,1.04,1.46,950.13,21.73,
6915005,-0.03,-0.07,1.06,2.26,0.92,1.34,950.13,21.71,
6915043,-0.03,-0.07,1.05,2.26,1.16,1.22,950.25,21.73,
6915081,-0.03,-0.07,1.04,2.38,1.65,1.22,950.2,21.73,
6915119,-0.02,-0.07,1.09,2.87,1.22,1.28,950.24,21.73,
6915158,-0.03,-0.08,1.03,2.62,1.95,1.22,950.21,21.74,
6915196,-0.03,-0.06,1.06,3.05,1.1,1.34,950.23,21.74,
6915234,-0.03,-0.07,1.05,2.99,1.53,1.4,950.25,21.74,
6915272,-0.03,-0.07,1.05,2.87,1.28,1.34,950.24,21.75,
6915311,-0.04,-0.07,1.07,2.87,1.59,1.22,950.27,21.75,
6915349,-0.03,-0.07,1.01,2.5,2.26,1.34,950.26,21.76,
6915399,-0.03,-0.06,1.04,2.38,2.44,1.34,950.23,21.74,
6915437,-0.03,-0.07,1.01,2.01,2.56,1.46,950.31,21.74,
6915475,-0.03,-0.07,1.03,2.32,2.01,1.46,950.32,21.75,
6915514,-0.03,-0.07,1.02,2.14,2.62,1.59,950.28,21.75,
6915552,-0.02,-0.08,1.02,2.26,2.26,1.53,950.27,21.75,
6915590,-0.03,-0.07,1.0,1.83,2.26,1.53,950.34,21.75,
6915628,-0.03,-0.07,1.0,1.95,2.26,1.71,950.36,21.75,
6915667,-0.03,-0.07,0.99,1.89,2.56,1.65,950.33,21.75,
6915705,-0.03,-0.07,0.98,1.83,2.38,1.71,950.37,21.74,
6915743,-0.03,-0.07,0.99,1.89,2.32,1.65,950.31,21.75,
6915793,-0.02,-0.07,0.98,1.83,2.32,1.77,950.33,21.73,
6915831,-0.02,-0.07,0.99,1.71,2.32,1.77,950.35,21.74,
6915870,-0.03,-0.07,0.99,1.77,2.5,1.77,950.34,21.74,
6915908,-0.03,-0.07,0.98,1.65,2.93,1.77,950.41,21.75,
6915946,-0.02,-0.07,0.98,1.77,2.62,1.83,950.37,21.74,
6915984,-0.02,-0.08,0.98,1.65,2.75,1.95,950.43,21.75,
6916023,-0.03,-0.08,0.95,1.71,2.69,1.71,950.44,21.75,
6916061,-0.02,-0.07,0.95,1.77,2.38,1.83,950.42,21.75,
6916099,-0.02,-0.08,0.94,1.71,2.62,1.89,950.4,21.74,
6916149,-0.02,-0.08,0.96,1.83,2.08,1.77,950.43,21.75,
6916187,-0.02,-0.08,0.98,1.65,2.75,1.71,950.4,21.74,
6916226,-0.02,-0.08,0.99,1.34,2.01,1.83,950.5,21.74,
6916264,-0.02,-0.07,1.06,1.59,2.14,1.89,950.4,21.75,
6916302,-0.01,-0.08,1.04,1.16,1.95,1.77,950.47,21.75,
6916340,-0.01,-0.07,1.08,1.22,1.65,1.71,950.48,21.76,
6916379,-0.01,-0.07,1.02,0.98,2.38,1.77,950.43,21.74,
6916417,-0.01,-0.07,1.04,1.34,1.16,1.77,950.47,21.74,
6916455,-0.02,-0.08,1.02,1.1,2.2,1.83,950.47,21.75,
6916493,-0.01,-0.07,1.04,1.22,2.01,1.59,950.49,21.75,
6916543,-0.01,-0.08,1.04,1.04,2.26,1.59,950.51,21.74,
6916582,-0.02,-0.07,1.04,1.22,1.95,1.34,950.51,21.75,
6916620,-0.02,-0.08,1.05,1.16,2.75,1.4,950.47,21.74,
6916658,-0.01,-0.08,1.04,1.16,2.32,1.4,950.56,21.75,
6916696,-0.01,-0.07,1.04,1.22,2.56,1.46,950.56,21.75,
6916734,-0.02,-0.08,1.01,1.1,2.75,1.34,950.52,21.76,
6916773,-0.0,-0.07,1.05,1.28,2.56,1.16,950.59,21.76,
6916811,-0.0,-0.08,1.03,1.04,2.81,1.16,950.54,21.76,
6916849,-0.01,-0.07,1.03,1.22,2.38,1.16,950.59,21.75,
6916887,-0.02,-0.08,1.04,1.16,3.11,1.04,950.61,21.75,
6916937,-0.01,-0.07,1.03,1.16,2.87,1.04,950.53,21.74,
6916976,-0.01,-0.07,1.0,1.1,3.36,0.98,950.57,21.75,
6917014,-0.02,-0.08,0.98,0.98,3.23,0.98,950.56,21.75,
6917052,-0.02,-0.07,0.98,1.28,3.72,0.92,950.58,21.74,
6917090,-0.02,-0.08,0.97,1.22,3.72,0.98,950.59,21.75,
6917129,-0.02,-0.07,1.02,1.28,3.54,1.04,950.62,21.77,
6917167,-0.02,-0.08,1.02,1.28,4.09,1.16,950.58,21.76,
6917205,-0.02,-0.08,1.06,1.22,3.91,0.92,950.62,21.75,
6917243,-0.01,-0.07,1.11,1.1,3.85,1.1,950.58,21.75,
6917293,-0.02,-0.07,1.12,0.92,3.91,1.28,950.62,21.74,
6917332,-0.02,-0.07,1.14,1.04,3.66,1.04,950.61,21.75,
6917370,-0.02,-0.07,1.13,1.1,3.97,1.1,950.68,21.76,
6917408,-0.03,-0.07,1.13,1.28,3.05,1.22,950.73,21.76,
6917446,-0.03,-0.07,1.11,1.1,3.42,1.16,950.67,21.76,
6917485,-0.03,-0.07,1.1,1.46,3.36,1.22,950.66,21.76,
6917523,-0.03,-0.07,1.08,1.16,4.15,1.28,950.64,21.76,
6917561,-0.03,-0.07,1.09,1.53,4.15,1.34,950.65,21.76,
6917599,-0.02,-0.08,1.08,1.59,4.39,1.16,950.62,21.75,
6917638,-0.03,-0.07,1.09,1.59,4.15,1.22,950.71,21.76,
6917714,-0.01,-0.07,1.1,1.59,4.33,1.46,950.67,21.73,
6917752,-0.01,-0.08,1.08,1.46,4.58,1.4,950.67,21.74,
6917790,-0.03,-0.07,1.05,1.59,4.58,1.4,950.71,21.74,
6917880,-0.02,-0.07,1.05,1.59,4.52,1.46,950.8,21.71,
6917918,-0.02,-0.08,1.06,1.77,4.39,1.53,950.77,21.73,
6917957,-0.02,-0.07,1.03,1.77,4.39,1.65,950.75,21.72,
6917995,-0.03,-0.07,1.03,1.71,4.39,1.65,950.78,21.74,
6918033,-0.01,-0.07,1.04,1.59,4.03,1.53,950.79,21.73,
6918071,-0.02,-0.07,1.04,1.65,3.97,1.4,950.75,21.74,
6918109,-0.01,-0.07,1.05,1.46,3.97,1.53,950.78,21.75,
6918159,-0.01,-0.07,1.05,1.34,3.72,1.4,950.76,21.73,
6918198,-0.02,-0.07,1.05,1.53,3.36,1.4,950.77,21.74,
6918236,-0.02,-0.08,1.05,1.28,3.97,1.59,950.74,21.75,
6918274,-0.02,-0.08,1.04,1.4,3.6,1.4,950.74,21.74,
6918312,-0.02,-0.08,1.06,1.53,3.42,1.53,950.77,21.74,
6918351,-0.03,-0.08,1.02,1.46,3.48,1.4,950.77,21.75,
6918389,-0.02,-0.08,1.04,1.65,3.42,1.4,950.76,21.76,
6918427,-0.02,-0.08,1.02,1.71,3.66,1.53,950.74,21.75,
6918465,-0.03,-0.08,1.01,1.59,3.23,1.53,950.79,21.75,
6918515,-0.02,-0.08,1.01,1.4,3.3,1.71,950.78,21.74,
6918554,-0.03,-0.08,1.01,1.16,3.3,1.46,950.74,21.74,
6918592,-0.02,-0.07,1.01,1.1,3.05,1.77,950.81,21.74,
6918630,-0.02,-0.08,1.02,0.92,3.11,1.77,950.77,21.74,
6918668,-0.02,-0.07,1.03,1.16,3.17,1.77,950.8,21.76,
6918707,-0.02,-0.07,1.03,0.98,2.93,1.59,950.76,21.75,
6918745,-0.02,-0.08,1.02,1.1,2.26,1.77,950.78,21.77,
6918783,-0.02,-0.08,1.03,0.92,2.2,1.89,950.76,21.75,
6918821,-0.01,-0.07,1.03,0.73,2.08,1.71,950.77,21.74,
6918860,-0.01,-0.07,1.04,0.98,2.08,1.65,950.78,21.76,
6918910,-0.02,-0.07,1.04,0.73,2.14,1.59,950.8,21.75,
6918948,-0.02,-0.08,1.05,0.73,1.77,1.59,950.78,21.74,
6918986,-0.02,-0.08,1.06,0.67,1.89,1.65,950.78,21.76,
6919024,-0.02,-0.07,1.07,0.67,1.77,1.53,950.79,21.75,
6919063,-0.02,-0.07,1.09,0.85,1.59,1.59,950.82,21.76,
6919101,-0.02,-0.07,1.08,0.73,1.83,1.53,950.82,21.75,
6919139,-0.02,-0.08,1.09,0.79,1.83,1.46,950.73,21.76,
6919177,-0.02,-0.08,1.08,0.73,1.95,1.46,950.77,21.76,
6919216,-0.02,-0.08,1.07,0.73,2.26,1.4,950.81,21.75,
6919254,-0.02,-0.08,1.06,0.92,2.01,1.46,950.79,21.75,
6919304,-0.01,-0.07,1.05,0.79,2.08,1.34,950.79,21.75,
6919342,-0.02,-0.08,1.02,0.79,1.95,1.4,950.77,21.74,
6919380,-0.03,-0.07,1.02,0.92,1.77,1.53,950.82,21.75,
6919419,-0.02,-0.08,1.03,0.85,2.5,1.22,950.81,21.76,
6919457,-0.01,-0.08,1.03,0.85,2.75,1.28,950.83,21.76,
6919495,-0.02,-0.08,1.03,0.73,3.23,1.22,950.75,21.76,
6919533,-0.03,-0.08,1.01,0.92,3.6,1.1,950.74,21.75,
6919572,-0.02,-0.07,1.02,0.73,3.78,1.22,950.74,21.75,
6919610,-0.01,-0.07,1.03,0.67,4.15,1.16,950.81,21.77,
6919660,-0.02,-0.07,1.03,0.67,3.6,1.28,950.81,21.75,
6919698,-0.02,-0.07,1.02,0.79,3.91,0.98,950.83,21.76,
6919736,-0.02,-0.07,1.02,0.73,4.27,0.98,950.82,21.76,
6919775,-0.01,-0.08,1.03,1.1,4.27,1.04,950.87,21.75,
6919813,-0.02,-0.08,1.01,1.1,4.15,0.98,950.84,21.77,
6919851,-0.02,-0.07,1.02,1.16,4.33,0.92,950.81,21.76,
6919889,-0.02,-0.07,1.01,1.28,4.88,0.98,950.81,21.76,
6919928,-0.01,-0.07,1.03,1.59,4.7,0.98,950.8,21.76,
6919966,-0.01,-0.07,1.02,1.71,4.39,0.92,950.8,21.77,
6920004,-0.02,-0.07,1.02,1.83,3.72,0.85,950.77,21.75,
6920054,-0.0,-0.08,0.99,1.71,3.36,0.85,950.77,21.75,
6920092,-0.01,-0.07,1.02,1.89,2.69,0.73,950.8,21.75,
6920131,-0.02,-0.07,0.99,1.89,2.01,0.79,950.79,21.75,
6920169,-0.01,-0.07,0.98,2.08,1.34,0.79,950.82,21.76,
6920207,-0.01,-0.07,1.0,1.83,0.85,0.67,950.74,21.75,
6920245,-0.01,-0.08,0.98,2.01,0.61,0.73,950.8,21.76,
6920284,-0.0,-0.06,0.98,1.95,-0.43,0.61,950.76,21.76,
6920322,-0.02,-0.07,0.94,1.95,-1.1,0.67,950.84,21.76,
6920360,-0.03,-0.07,0.88,2.01,-1.71,0.61,950.84,21.77,
6920410,-0.02,-0.08,0.88,2.14,-1.46,0.67,950.76,21.74,
6920448,-0.02,-0.07,0.88,2.2,-1.71,0.55,950.76,21.75,
6920487,-0.03,-0.07,0.86,1.95,-1.46,0.61,950.75,21.76,
6920525,-0.04,-0.07,0.88,1.71,-0.55,0.55,950.73,21.75,
6920563,-0.03,-0.08,0.91,1.46,0.31,0.43,950.75,21.77,
6920601,-0.04,-0.07,0.9,1.22,0.49,0.37,950.8,21.77,
6920640,-0.05,-0.07,0.93,1.1,0.73,0.43,950.83,21.77,
6920678,-0.03,-0.08,0.92,1.1,1.59,0.49,950.77,21.77,
6920716,-0.02,-0.07,0.96,0.98,0.92,0.49,950.82,21.77,
6920754,-0.04,-0.07,0.96,0.92,1.34,0.73,950.81,21.77,
6920830,-0.04,-0.07,0.97,1.1,2.75,0.79,950.81,21.73,
6920869,-0.04,-0.07,0.99,1.22,2.2,1.04,950.81,21.75,
6920907,-0.03,-0.07,1.06,1.34,3.05,1.16,950.75,21.74,
6920997,-0.03,-0.05,1.09,1.53,1.89,1.65,950.79,21.72,
6921035,-0.03,-0.08,1.04,1.28,1.89,1.59,950.8,21.73,
6921073,-0.04,-0.07,1.06,1.59,0.37,1.83,950.86,21.75,
6921111,-0.02,-0.06,1.07,1.71,0.12,1.71,950.83,21.74,
6921150,-0.03,-0.06,1.0,1.59,0.24,1.77,950.85,21.75,
6921188,-0.03,-0.06,1.02,1.83,-0.24,1.89,950.81,21.75,
6921226,-0.04,-0.07,0.99,1.77,0.0,2.01,950.8,21.75,
6921276,-0.04,-0.06,1.01,1.77,-0.79,2.26,950.85,21.74,
6921314,-0.03,-0.06,1.0,1.65,-0.79,2.14,950.84,21.75,
6921353,-0.03,-0.06,1.01,1.71,-0.92,2.32,950.73,21.75,
6921391,-0.03,-0.07,1.01,1.77,-0.49,2.44,950.86,21.75,
6921429,-0.03,-0.07,1.04,1.95,-0.49,2.38,950.82,21.75,
6921467,-0.03,-0.07,1.01,1.95,0.0,2.44,950.86,21.75,
6921506,-0.03,-0.05,1.01,1.95,-0.06,2.56,950.87,21.76,
6921544,-0.04,-0.06,1.01,1.95,0.43,2.62,950.83,21.77,
6921582,-0.02,-0.07,1.03,2.08,0.43,2.44,950.88,21.75,
6921632,-0.02,-0.06,1.04,2.26,0.49,2.69,950.9,21.75,
6921670,-0.03,-0.06,1.03,2.08,1.16,2.69,950.87,21.75,
6921709,-0.02,-0.06,1.03,2.38,1.34,2.62,950.83,21.76,
6921747,-0.03,-0.06,1.01,2.56,1.34,2.81,950.9,21.76,
6921785,-0.02,-0.07,1.0,2.5,1.53,2.62,950.88,21.76,
6921823,-0.02,-0.06,1.0,2.5,1.34,2.56,950.9,21.77,
6921862,-0.01,-0.06,1.01,2.81,0.85,2.5,950.91,21.76,
6921900,-0.02,-0.07,0.99,2.5,1.34,2.75,950.86,21.76,
6921938,-0.02,-0.07,0.99,2.56,1.22,2.62,950.84,21.76,
6921976,-0.02,-0.07,0.98,2.5,1.22,2.62,950.87,21.77,
6922026,-0.02,-0.06,0.97,2.38,1.04,2.32,950.85,21.75,
6922065,-0.02,-0.07,0.96,2.44,1.34,2.32,950.86,21.76,
6922103,-0.02,-0.07,0.96,2.5,1.34,2.14,950.85,21.75,
6922141,-0.02,-0.07,0.97,2.44,1.28,2.26,950.89,21.77,
6922179,-0.01,-0.06,0.95,2.32,0.98,2.2,950.84,21.76,
6922218,-0.02,-0.06,0.97,2.32,0.61,2.2,950.82,21.76,
6922256,-0.01,-0.07,0.94,2.08,0.92,2.2,950.87,21.77,
6922294,-0.01,-0.06,0.96,2.2,0.67,1.95,950.8,21.76,
6922332,-0.02,-0.07,0.92,1.83,1.1,2.2,950.84,21.77,
6922371,-0.03,-0.06,0.93,1.83,0.79,2.01,950.83,21.76,
6922421,-0.02,-0.06,0.95,1.65,1.53,2.01,950.85,21.75,
6922459,-0.03,-0.07,0.95,1.65,1.34,1.65,950.78,21.77,
6922497,-0.02,-0.07,0.96,1.28,1.71,1.77,950.85,21.77,
6922535,-0.03,-0.06,0.93,1.1,2.2,1.71,950.87,21.77,
6922574,-0.02,-0.05,0.98,1.1,1.89,1.71,950.85,21.77,
6922612,-0.03,-0.07,0.97,0.92,3.17,1.89,950.81,21.77,
6922650,-0.04,-0.07,0.99,1.04,2.69,2.01,950.86,21.77,
6922688,-0.02,-0.06,0.99,0.73,3.42,1.95,950.83,21.77,
6922727,-0.03,-0.06,0.98,0.79,3.17,2.01,950.85,21.78,
6922777,-0.01,-0.06,0.97,0.85,2.69,2.32,950.82,21.75,
6922815,-0.04,-0.07,0.97,0.92,2.56,2.2,950.82,21.76,
6922853,-0.03,-0.06,0.93,1.16,3.3,2.2,950.84,21.77,
6922891,-0.02,-0.06,0.97,1.4,3.3,2.44,950.77,21.75,
6922930,-0.01,-0.07,0.97,0.92,3.85,2.38,950.82,21.77,
6922968,-0.02,-0.06,0.98,1.28,3.78,2.32,950.77,21.76,
6923006,-0.03,-0.05,1.02,1.46,4.15,2.44,950.8,21.77,
6923044,-0.02,-0.07,1.0,1.59,4.21,2.44,950.84,21.77,
6923083,-0.04,-0.06,1.04,1.65,3.91,2.38,950.8,21.77,
6923121,-0.03,-0.06,1.04,1.65,4.21,2.44,950.86,21.76,
6923171,-0.02,-0.05,1.04,2.01,3.97,2.44,950.87,21.76,
6923209,-0.03,-0.06,1.02,2.26,4.88,2.44,950.9,21.77,
6923247,-0.02,-0.07,1.01,2.32,4.39,2.62,950.91,21.76,
6923286,-0.03,-0.07,1.03,2.62,4.27,2.56,950.9,21.77,
6923324,-0.03,-0.06,0.97,2.75,5.13,2.56,950.9,21.78,
6923362,-0.03,-0.06,0.99,3.23,5.43,2.5,950.91,21.77,
6923400,-0.01,-0.07,0.92,3.23,5.86,2.69,950.87,21.77,
6923439,-0.01,-0.07,0.92,3.36,5.0,2.75,950.88,21.76,
6923477,-0.02,-0.07,0.91,3.36,5.55,2.81,950.84,21.77,
6923515,-0.01,-0.07,0.92,2.87,5.13,2.69,950.87,21.78,
6923565,-0.02,-0.06,0.91,2.81,5.25,2.81,950.91,21.77,
6923603,-0.02,-0.07,0.93,2.99,4.94,2.75,950.85,21.77,
6923642,-0.01,-0.07,0.94,2.87,5.25,2.87,950.83,21.77,
6923680,-0.02,-0.06,0.94,2.62,4.76,2.69,950.88,21.76,
6923718,-0.02,-0.07,0.97,2.81,5.0,2.87,950.88,21.77,
6923756,-0.01,-0.07,0.94,2.32,5.07,2.69,950.86,21.77,
6923795,-0.02,-0.07,0.95,2.75,4.7,2.62,950.91,21.78,
6923833,-0.02,-0.07,0.92,2.5,5.13,2.62,950.94,21.77,
6923871,-0.02,-0.07,0.94,2.44,5.62,2.62,950.86,21.77,
6923949,-0.01,-0.06,0.98,2.5,5.74,2.26,950.87,21.73,
6923987,-0.02,-0.06,1.02,2.5,5.55,2.2,950.87,21.76,
6924025,-0.01,-0.07,1.01,2.38,6.29,2.2,950.87,21.76,
6924115,-0.02,-0.07,1.01,2.38,5.68,2.38,950.91,21.72,
6924153,-0.03,-0.06,0.99,2.93,5.49,2.44,950.98,21.74,
6924192,-0.02,-0.06,0.97,2.93,5.49,2.44,950.92,21.75,
6924230,-0.02,-0.07,0.94,2.93,4.88,2.56,950.91,21.75,
6924268,-0.02,-0.07,0.94,3.05,4.21,2.5,950.89,21.75,
6924306,-0.02,-0.08,0.92,2.81,3.48,2.56,950.9,21.75,
6924345,-0.02,-0.07,0.93,2.56,2.81,2.69,950.96,21.76,
6924395,-0.02,-0.07,0.9,2.56,1.71,2.62,950.91,21.74,
6924433,-0.02,-0.07,0.88,2.5,1.71,2.62,950.95,21.75,
6924471,-0.02,-0.07,0.87,1.89,1.1,2.56,950.88,21.75,
6924509,-0.02,-0.07,0.89,2.14,0.98,2.62,950.91,21.75,
6924548,-0.02,-0.07,0.87,1.83,0.98,2.69,951.0,21.76,
6924586,-0.03,-0.07,0.89,1.89,1.22,2.69,950.93,21.76,
6924624,-0.02,-0.07,0.89,1.59,1.46,2.69,950.92,21.76,
6924662,-0.03,-0.07,0.93,1.53,1.16,2.38,950.94,21.77,
6924701,-0.03,-0.07,0.93,1.4,2.08,2.62,950.94,21.76,
6924751,-0.02,-0.07,0.95,1.4,2.01,2.44,951.0,21.77,
6924789,-0.02,-0.07,0.94,1.22,2.56,2.69,951.0,21.76,
6924827,-0.01,-0.06,0.97,1.34,2.5,2.5,950.98,21.76,
6924865,-0.02,-0.07,0.97,1.22,3.42,2.38,950.94,21.77,
6924904,-0.02,-0.06,0.98,1.53,2.75,2.44,951.0,21.76,
6924942,-0.01,-0.07,0.99,1.46,2.99,2.38,951.0,21.78,
6924980,-0.01,-0.07,0.97,1.46,3.23,2.38,950.99,21.77,
6925019,-0.01,-0.06,1.0,1.65,3.05,2.26,951.05,21.77,
6925057,-0.01,-0.07,1.0,1.59,3.17,2.2,950.95,21.77,
6925095,-0.01,-0.07,1.0,1.71,3.3,2.2,951.05,21.77,
6925145,-0.01,-0.07,0.99,1.59,3.78,2.01,951.02,21.76,
6925183,-0.02,-0.07,0.96,1.77,3.78,2.01,950.97,21.77,
6925221,-0.02,-0.07,0.98,2.01,3.54,1.89,951.04,21.76,
6925260,-0.01,-0.07,0.97,1.83,3.85,1.77,951.03,21.76,
6925298,-0.01,-0.07,0.97,1.95,3.3,1.89,951.05,21.77,
6925336,-0.01,-0.07,0.97,1.77,2.99,1.71,951.04,21.78,
6925374,-0.01,-0.07,0.95,1.83,2.81,1.83,951.06,21.78,
6925413,-0.02,-0.07,0.95,1.83,2.99,1.77,951.03,21.78,
6925451,-0.02,-0.07,0.93,1.77,2.99,1.89,951.05,21.77,
6925489,-0.01,-0.07,0.95,1.77,2.69,1.65,951.03,21.77,
6925539,-0.03,-0.07,0.93,1.65,2.32,1.77,951.07,21.77,
6925577,-0.02,-0.08,0.91,1.53,3.05,1.65,951.07,21.77,
6925616,-0.01,-0.07,0.92,1.83,3.3,1.65,951.05,21.77,
6925654,-0.02,-0.08,0.92,1.65,3.48,1.53,951.02,21.77,
6925692,-0.02,-0.07,0.94,1.83,3.78,1.53,951.06,21.77,
6925730,-0.02,-0.07,0.94,1.46,4.21,1.34,951.07,21.77,
6925768,-0.02,-0.06,0.94,1.71,4.21,1.46,951.12,21.78,
6925807,-0.02,-0.07,0.93,1.46,4.27,1.46,951.15,21.79,
6925845,-0.02,-0.07,0.92,1.46,4.15,1.4,951.09,21.78,
6925895,-0.02,-0.07,0.94,1.4,3.91,1.4,951.07,21.76,
6925933,-0.02,-0.07,0.93,1.4,3.91,1.34,951.16,21.77,
6925971,-0.02,-0.07,0.94,1.34,3.85,1.53,951.14,21.78,
6926009,-0.02,-0.07,0.96,1.4,3.3,1.4,951.1,21.77,
6926048,-0.02,-0.07,0.93,1.16,2.99,1.59,951.13,21.76,
6926086,-0.01,-0.07,0.97,1.46,2.32,1.34,951.09,21.78,
6926124,-0.02,-0.07,0.95,1.28,2.56,1.34,951.13,21.77,
6926162,-0.02,-0.06,0.99,1.59,1.77,1.46,951.13,21.78,
6926201,-0.01,-0.07,0.99,1.53,2.32,1.28,951.14,21.77,
6926239,-0.02,-0.06,0.96,1.46,2.08,1.22,951.08,21.78,
6926289,-0.03,-0.07,0.98,1.53,2.44,1.28,951.13,21.75,
6926327,-0.03,-0.06,0.97,1.59,2.08,1.28,951.18,21.77,
6926365,-0.02,-0.07,1.0,1.53,2.2,1.34,951.11,21.77,
6926404,-0.03,-0.07,0.99,1.28,2.26,1.22,951.21,21.78,
6926442,-0.03,-0.06,1.01,1.46,2.32,1.28,951.23,21.78,
6926480,-0.03,-0.07,1.0,1.22,3.36,1.16,951.25,21.77,
6926518,-0.02,-0.06,1.02,1.46,2.99,0.98,951.21,21.78,
6926557,-0.03,-0.07,1.04,1.65,3.3,0.98,951.2,21.77,
6926595,-0.02,-0.07,1.03,1.77,3.36,1.1,951.21,21.79,
6926633,-0.03,-0.06,1.06,1.95,3.11,0.98,951.24,21.77,
6926683,-0.04,-0.06,1.03,2.08,3.11,1.1,951.22,21.77,
6926721,-0.03,-0.07,1.04,2.08,3.17,1.16,951.25,21.78,
6926760,-0.04,-0.06,1.0,2.08,3.05,1.34,951.22,21.77,
6926798,-0.04,-0.06,1.03,2.26,2.75,1.28,951.23,21.78,
6926836,-0.04,-0.06,1.0,1.95,3.11,1.46,951.21,21.78,
6926874,-0.04,-0.06,1.0,2.08,2.62,1.34,951.25,21.79,
6926913,-0.04,-0.06,1.01,1.89,3.23,1.46,951.26,21.77,
6926951,-0.03,-0.07,0.99,1.83,4.03,1.46,951.26,21.77,
6926989,-0.03,-0.06,1.03,1.77,3.85,1.4,951.3,21.78,
6927065,-0.04,-0.07,0.98,1.77,3.78,1.59,951.31,21.76,
6927103,-0.02,-0.06,0.99,1.65,3.72,1.59,951.29,21.78,
6927142,-0.04,-0.06,0.99,1.46,3.66,1.77,951.27,21.77,
6927231,-0.02,-0.07,1.0,1.04,3.54,1.95,951.28,21.74,
6927270,-0.02,-0.06,1.0,0.98,3.17,1.83,951.31,21.75,
6927308,-0.03,-0.06,1.01,1.22,2.69,2.08,951.34,21.76,
6927346,-0.03,-0.06,1.0,1.4,3.17,2.01,951.33,21.76,
6927384,-0.03,-0.07,1.01,1.53,2.99,1.89,951.34,21.76,
6927423,-0.02,-0.07,1.0,1.46,2.75,2.14,951.32,21.76,
6927461,-0.02,-0.06,1.0,1.95,2.5,1.89,951.41,21.77,
6927511,-0.03,-0.06,0.95,1.89,2.81,1.83,951.38,21.76,
6927549,-0.02,-0.06,0.98,1.89,2.56,1.89,951.34,21.77,
6927587,-0.03,-0.07,0.96,1.77,2.81,1.83,951.36,21.77,
6927626,-0.03,-0.06,0.98,2.01,2.5,1.83,951.38,21.76,
6927664,-0.01,-0.07,0.99,2.08,2.99,1.71,951.38,21.75,
6927702,-0.02,-0.07,0.99,1.95,3.23,1.59,951.37,21.77,
6927740,-0.02,-0.06,1.01,2.08,3.11,1.59,951.37,21.78,
6927779,-0.03,-0.06,1.04,2.2,3.48,1.53,951.41,21.77,
6927817,-0.02,-0.07,1.02,2.01,3.23,1.53,951.42,21.78,
6927855,-0.03,-0.09,1.07,2.5,2.93,1.59,951.44,21.78,
6927905,-0.03,-0.06,1.0,2.14,3.23,1.53,951.43,21.75,
6927943,-0.02,-0.06,1.03,2.56,2.81,1.28,951.44,21.77,
6927982,-0.02,-0.07,1.01,1.83,3.3,1.34,951.39,21.78,
6928020,-0.02,-0.06,1.05,2.08,2.38,1.46,951.44,21.76,
6928058,-0.02,-0.06,1.03,1.95,2.2,1.34,951.44,21.77,
6928096,-0.01,-0.07,1.03,2.32,2.01,1.34,951.46,21.77,
6928135,-0.02,-0.06,1.06,2.38,0.98,1.4,951.39,21.78,
6928173,-0.02,-0.06,1.03,2.26,0.98,1.28,951.44,21.78,
6928211,-0.01,-0.06,1.03,2.01,1.34,0.92,951.44,21.78,
6928261,-0.03,-0.06,1.06,1.95,1.4,1.46,951.44,21.77,
6928299,-0.02,-0.06,1.05,1.83,0.92,1.04,951.43,21.77,
6928338,-0.03,-0.06,1.09,1.89,0.98,0.98,951.48,21.79,
6928376,-0.01,-0.06,1.07,1.83,1.04,1.04,951.41,21.77,
6928414,-0.03,-0.06,1.09,1.95,0.67,1.1,951.53,21.78,
6928452,-0.03,-0.06,1.08,2.08,1.22,1.04,951.45,21.77,
6928491,-0.03,-0.06,1.09,2.14,1.04,0.98,951.47,21.78,
6928529,-0.03,-0.06,1.07,2.14,1.22,0.98,951.5,21.79,
6928567,-0.04,-0.06,1.04,2.14,1.46,1.1,951.5,21.78,
6928605,-0.03,-0.06,1.05,2.2,1.71,0.98,951.52,21.78,
6928655,-0.02,-0.06,1.03,2.32,1.71,0.98,951.52,21.77,
6928694,-0.04,-0.06,1.01,2.44,2.26,1.04,951.55,21.79,
6928732,-0.02,-0.07,0.96,2.38,2.14,1.1,951.5,21.78,
6928770,-0.03,-0.05,1.0,2.56,1.34,1.1,951.48,21.77,
6928808,-0.04,-0.07,0.94,2.08,1.77,1.16,951.5,21.78,
6928847,-0.03,-0.06,0.99,2.26,1.65,1.04,951.49,21.78,
6928885,-0.03,-0.08,0.92,1.83,3.05,1.16,951.53,21.78,
6928923,-0.02,-0.06,0.99,2.01,1.89,1.04,951.55,21.79,
6928961,-0.03,-0.07,0.98,2.2,2.93,1.16,951.55,21.79,
6929000,-0.03,-0.06,0.94,1.65,2.93,1.1,951.56,21.78,
6929049,-0.02,-0.07,0.97,2.14,3.42,1.1,951.54,21.77,
6929088,-0.03,-0.07,0.94,1.83,2.81,1.1,951.53,21.77,
6929126,-0.03,-0.06,1.0,2.14,2.81,0.98,951.53,21.78,
6929164,-0.03,-0.06,0.98,1.95,4.15,1.04,951.54,21.77,
6929202,-0.03,-0.06,0.99,2.08,3.72,1.1,951.6,21.78,
6929241,-0.02,-0.07,0.98,1.83,4.27,0.92,951.55,21.78,
6929279,-0.04,-0.07,0.98,2.08,4.27,0.92,951.56,21.79,
6929317,-0.02,-0.06,0.97,1.77,5.07,0.98,951.55,21.78,
6929355,-0.04,-0.06,0.99,1.71,5.19,1.04,951.55,21.78,
6929405,-0.03,-0.06,1.0,2.01,5.43,1.1,951.55,21.77,
6929443,-0.03,-0.06,1.0,2.14,5.19,1.1,951.58,21.77,
6929482,-0.04,-0.06,1.01,2.2,5.13,1.1,951.59,21.78,
6929520,-0.03,-0.06,0.96,1.83,4.76,1.22,951.61,21.78,
6929558,-0.04,-0.06,0.99,2.2,4.82,1.34,951.61,21.79,
6929596,-0.02,-0.06,0.96,1.83,5.31,1.34,951.58,21.78,
6929635,-0.03,-0.06,1.0,1.95,4.09,1.28,951.59,21.78,
6929673,-0.04,-0.07,0.93,1.71,4.76,1.46,951.56,21.78,
6929711,-0.03,-0.06,0.98,2.14,3.85,1.53,951.56,21.79,
6929749,-0.02,-0.07,0.93,1.65,4.58,1.53,951.59,21.79,
6929799,-0.03,-0.06,0.95,1.89,2.81,1.59,951.61,21.78,
6929838,-0.03,-0.07,0.88,1.59,4.09,1.59,951.65,21.78,
6929876,-0.03,-0.06,0.91,1.46,3.05,1.53,951.56,21.78,
6929914,-0.03,-0.07,0.9,1.4,2.93,1.53,951.57,21.78,
6929952,-0.03,-0.07,0.89,1.16,2.38,1.65,951.64,21.78,
6929991,-0.02,-0.06,0.92,1.46,1.65,1.65,951.54,21.77,
6930029,-0.01,-0.07,0.89,1.04,1.46,1.4,951.66,21.78,
6930067,-0.01,-0.07,0.92,1.4,0.67,1.46,951.59,21.79,
6930105,-0.02,-0.06,0.92,1.1,0.43,1.22,951.63,21.79,
6930144,-0.02,-0.06,0.95,1.28,-0.43,1.22,951.63,21.79,
6930220,-0.02,-0.06,0.94,1.53,-0.98,1.1,951.63,21.75,
6930258,-0.02,-0.07,0.97,1.46,-1.16,1.16,951.62,21.78,
6930296,-0.02,-0.06,0.99,1.71,-1.34,0.85,951.7,21.78,
6930386,-0.03,-0.06,1.0,1.95,-0.98,0.92,951.64,21.74,
6930424,-0.03,-0.06,0.95,1.89,-0.31,0.61,951.71,21.76,
6930462,-0.03,-0.05,0.98,2.14,0.31,0.49,951.69,21.76,
6930500,-0.03,-0.07,0.95,2.08,1.59,0.55,951.72,21.78,
6930539,-0.04,-0.06,0.97,2.26,1.59,0.85,951.74,21.76,
6930577,-0.03,-0.06,1.0,2.5,1.77,0.61,951.68,21.77,
6930627,-0.05,-0.07,0.99,2.81,1.28,0.79,951.69,21.76,
6930665,-0.03,-0.06,1.0,2.56,1.46,0.67,951.7,21.77,
6930703,-0.02,-0.06,1.01,2.62,1.46,0.85,951.72,21.78,
6930741,-0.03,-0.07,0.97,2.62,1.16,0.98,951.79,21.77,
6930780,-0.03,-0.07,0.93,2.32,1.1,1.04,951.73,21.78,
6930818,-0.03,-0.06,0.95,2.26,0.06,1.04,951.72,21.79,
6930856,-0.03,-0.06,0.92,1.77,-0.18,1.16,951.78,21.78,
6930894,-0.02,-0.06,0.94,1.89,-1.34,1.1,951.74,21.78,
6930933,-0.03,-0.06,1.01,1.83,-0.92,1.16,951.73,21.77,
6930971,-0.02,-0.06,1.04,1.77,-0.92,1.28,951.81,21.78,
6931021,-0.06,-0.05,1.1,1.71,-1.1,1.59,951.77,21.78,
6931059,-0.04,-0.05,1.11,1.4,-0.49,1.34,951.75,21.78,
6931097,-0.04,-0.06,1.11,1.16,0.43,1.22,951.76,21.78,
6931136,-0.04,-0.05,1.12,1.28,1.04,1.28,951.83,21.78,
6931174,-0.04,-0.05,1.15,1.77,1.53,1.28,951.84,21.78,
6931212,-0.04,-0.06,1.11,1.89,2.81,1.22,951.82,21.79,
6931250,-0.04,-0.06,1.1,2.38,3.23,1.46,951.81,21.77,
6931289,-0.03,-0.05,1.07,2.44,4.09,1.59,951.81,21.78,
6931327,-0.03,-0.06,1.05,2.44,3.97,1.53,951.77,21.78,
6931377,-0.03,-0.06,1.01,2.56,4.88,1.71,951.82,21.77,
6931415,-0.03,-0.06,0.99,2.56,4.58,1.65,951.81,21.78,
6931453,-0.02,-0.07,0.98,2.81,4.46,1.83,951.8,21.77,
6931492,-0.02,-0.06,0.95,2.62,4.33,2.01,951.9,21.79,
6931530,-0.04,-0.06,0.94,2.75,4.27,1.89,951.88,21.79,
6931568,-0.03,-0.07,0.9,2.44,4.27,1.95,951.86,21.79,
6931606,-0.03,-0.06,0.93,2.5,3.78,2.14,951.87,21.79,
6931645,-0.02,-0.06,0.9,2.38,3.97,2.26,951.85,21.78,
6931683,-0.02,-0.07,0.91,2.32,3.72,1.95,951.87,21.78,
6931721,-0.02,-0.07,0.9,2.26,3.91,2.2,951.9,21.78,
6931771,-0.03,-0.07,0.86,2.32,4.21,2.38,951.88,21.76,
6931809,-0.02,-0.06,0.86,2.08,3.97,2.2,951.9,21.79,
6931848,-0.01,-0.07,0.84,1.95,4.15,2.08,951.94,21.78,
6931886,-0.02,-0.07,0.82,1.77,4.15,2.26,951.92,21.78,
6931924,-0.0,-0.06,0.86,1.95,4.03,2.01,951.9,21.79,
6931962,-0.02,-0.07,0.86,1.77,3.78,2.08,951.95,21.79,
6932001,-0.02,-0.07,0.87,1.65,3.42,2.26,951.96,21.79,
6932039,-0.02,-0.07,0.88,1.71,3.17,2.2,951.96,21.79,
6932077,-0.01,-0.06,0.89,1.71,3.3,1.95,951.96,21.79,
6932115,-0.01,-0.07,0.91,1.34,2.62,2.08,952.01,21.79,
6932165,-0.01,-0.07,0.91,1.4,2.93,2.01,951.97,21.78,
6932204,-0.01,-0.07,0.93,1.53,2.5,2.08,951.99,21.78,
6932242,-0.02,-0.06,0.95,1.46,2.69,2.01,952.04,21.79,
6932280,-0.02,-0.07,0.94,1.28,2.69,2.08,952.05,21.78,
6932318,-0.01,-0.07,0.97,1.28,2.56,1.83,952.0,21.79,
6932357,0.0,-0.07,0.97,1.4,2.93,1.89,952.1,21.79,
6932395,-0.01,-0.06,0.97,1.28,2.81,1.77,952.04,21.79,
6932433,-0.02,-0.07,0.98,1.53,3.05,1.77,952.09,21.79,
6932471,-0.02,-0.06,0.98,1.77,3.3,1.77,952.08,21.8,
6932521,-0.01,-0.06,1.0,1.71,3.17,1.46,952.03,21.78,
6932560,-0.02,-0.06,0.99,1.77,3.54,1.4,952.04,21.78,
6932598,-0.01,-0.06,0.99,1.83,3.6,1.46,952.02,21.78,
6932636,-0.01,-0.06,0.99,1.71,3.85,1.34,952.05,21.79,
6932674,-0.02,-0.06,0.98,1.77,3.85,1.53,952.09,21.78,
6932713,-0.02,-0.06,0.99,1.77,3.78,1.53,952.02,21.78,
6932751,-0.01,-0.06,0.99,1.71,3.6,1.28,952.08,21.79,
6932789,-0.02,-0.07,1.0,1.71,3.48,1.34,952.12,21.79,
6932827,-0.02,-0.06,0.99,1.71,2.99,1.4,952.14,21.8,
6932866,-0.01,-0.06,0.99,1.77,2.69,1.59,952.12,21.79,
6932916,-0.02,-0.06,0.97,1.59,2.2,1.4,952.1,21.77,
6932954,-0.01,-0.06,0.98,1.59,1.59,1.34,952.12,21.79,
6932992,-0.02,-0.06,0.98,1.53,1.4,1.22,952.08,21.79,
6933030,-0.02,-0.06,1.01,1.59,1.04,1.16,952.07,21.78,
6933069,-0.01,-0.06,0.99,1.65,0.85,1.16,952.09,21.79,
6933107,-0.02,-0.06,1.0,1.53,0.55,1.1,952.17,21.79,
6933145,-0.02,-0.06,0.99,1.53,0.73,0.98,952.14,21.79,
6933183,-0.02,-0.06,0.97,1.53,0.49,1.04,952.14,21.78,
6933222,-0.02,-0.06,0.96,1.77,0.43,0.85,952.16,21.79,
6933260,-0.02,-0.06,0.97,1.89,0.12,0.92,952.2,21.79,
6933336,-0.01,-0.06,0.97,1.95,0.18,0.85,952.23,21.77,
6933374,-0.03,-0.06,0.96,2.08,0.06,0.79,952.22,21.77,
6933412,-0.02,-0.06,0.95,2.08,0.06,0.92,952.19,21.77,
6933502,-0.02,-0.06,0.93,2.32,0.18,1.1,952.25,21.74,
6933541,-0.02,-0.06,0.94,2.32,0.06,0.92,952.22,21.76,
6933579,-0.02,-0.06,0.92,2.14,0.37,0.98,952.22,21.76,
6933617,-0.02,-0.07,0.93,2.32,0.37,1.04,952.24,21.76,
6933655,-0.02,-0.07,0.91,2.26,0.92,0.92,952.34,21.77,
6933693,-0.03,-0.06,0.9,2.14,0.92,0.85,952.25,21.75,
6933743,-0.02,-0.07,0.89,2.26,2.08,0.98,952.34,21.76,
6933782,-0.02,-0.06,0.88,2.14,2.5,0.85,952.34,21.76,
6933820,-0.03,-0.06,0.89,2.5,2.93,0.92,952.34,21.78,
6933858,-0.02,-0.06,0.86,2.2,3.17,1.04,952.28,21.77,
6933896,-0.02,-0.07,0.89,2.38,3.3,0.85,952.32,21.78,
6933935,-0.03,-0.08,0.88,2.2,3.78,0.98,952.31,21.78,
6933973,-0.02,-0.07,0.9,2.14,3.36,0.98,952.35,21.79,
6934011,-0.02,-0.06,0.89,2.08,3.72,0.85,952.37,21.79,
6934049,-0.02,-0.06,0.92,2.08,3.3,1.04,952.38,21.79,
6934088,-0.02,-0.07,0.94,2.14,3.6,0.92,952.39,21.79,
6934138,-0.02,-0.07,0.94,1.71,3.91,0.92,952.39,21.77,
6934176,-0.03,-0.06,0.98,1.83,4.21,1.16,952.39,21.78,
6934214,-0.03,-0.07,0.97,1.71,4.94,1.04,952.33,21.77,
6934252,-0.01,-0.07,0.99,2.01,4.33,0.98,952.43,21.79,
6934291,-0.02,-0.06,0.99,1.83,4.52,1.22,952.41,21.79,
6934329,-0.02,-0.06,0.98,1.77,4.15,1.04,952.43,21.78,
6934367,-0.02,-0.06,0.99,1.71,4.33,1.1,952.42,21.79,
6934405,-0.02,-0.07,0.99,1.71,4.09,1.16,952.49,21.79,
6934444,-0.02,-0.07,1.0,1.83,3.54,1.16,952.47,21.79,
6934482,-0.03,-0.07,1.0,1.71,3.6,1.22,952.51,21.8,
6934532,-0.01,-0.07,1.0,2.08,3.17,1.28,952.52,21.78,
6934570,-0.02,-0.06,1.0,1.95,3.05,1.1,952.54,21.78,
6934608,-0.03,-0.06,0.98,1.89,3.36,1.4,952.6,21.8,
6934647,-0.02,-0.07,0.98,1.89,3.42,1.28,952.46,21.79,
6934685,-0.03,-0.06,0.99,2.01,3.36,1.34,952.54,21.79,
6934723,-0.02,-0.07,0.99,1.89,3.54,1.28,952.5,21.79,
6934761,-0.03,-0.07,0.99,1.83,3.72,1.28,952.59,21.79,
6934800,-0.01,-0.06,1.0,1.65,3.6,1.28,952.58,21.79,
6934838,-0.02,-0.06,1.0,1.65,3.48,1.4,952.55,21.79,
6934888,-0.02,-0.06,1.0,1.59,3.72,1.34,952.65,21.79,
6934926,-0.03,-0.07,1.02,1.65,4.03,1.4,952.58,21.8,
6934964,-0.02,-0.06,1.02,1.71,3.97,1.53,952.59,21.79,
6935003,-0.03,-0.06,1.02,1.89,3.78,1.46,952.65,21.79,
6935041,-0.02,-0.06,1.01,1.65,3.78,1.46,952.63,21.79,
6935079,-0.02,-0.06,1.03,1.83,3.42,1.46,952.66,21.79,
6935117,-0.02,-0.07,1.02,1.71,3.17,1.59,952.62,21.79,
6935156,-0.02,-0.06,1.03,1.83,2.5,1.59,952.67,21.79,
6935194,-0.02,-0.07,1.02,1.65,2.5,1.71,952.61,21.79,
6935232,-0.01,-0.06,1.02,1.65,2.08,1.59,952.67,21.78,
6935282,-0.02,-0.06,1.0,1.65,1.89,1.71,952.72,21.79,
6935320,-0.02,-0.06,1.0,1.65,1.59,1.46,952.7,21.79,
6935359,-0.03,-0.06,1.0,1.59,1.22,1.59,952.7,21.78,
6935397,-0.02,-0.07,0.99,1.83,1.4,1.53,952.72,21.78,
6935435,-0.02,-0.07,0.99,1.59,1.46,1.53,952.74,21.8,
6935473,-0.03,-0.07,0.99,1.71,1.28,1.46,952.73,21.79,
6935512,-0.02,-0.07,0.98,1.65,1.53,1.34,952.73,21.79,
6935550,-0.03,-0.07,0.98,1.59,1.71,1.59,952.78,21.8,
6935588,-0.03,-0.07,0.99,1.4,1.83,1.46,952.8,21.8,
6935626,-0.02,-0.07,0.98,1.22,1.65,1.46,952.78,21.8,
6935676,-0.03,-0.07,0.99,1.16,1.95,1.4,952.86,21.79,
6935715,-0.02,-0.07,0.98,1.34,2.08,1.46,952.9,21.79,
6935753,-0.02,-0.06,0.98,1.28,2.5,1.46,952.79,21.8,
6935791,-0.02,-0.06,0.97,1.28,3.3,1.34,952.85,21.79,
6935829,-0.02,-0.06,0.96,1.4,3.36,1.22,952.8,21.8,
6935868,-0.03,-0.06,0.95,1.59,3.6,1.28,952.86,21.81,
6935906,-0.03,-0.06,0.95,1.4,3.91,1.34,952.85,21.8,
6935944,-0.01,-0.06,0.94,1.53,4.15,1.28,952.86,21.79,
6935982,-0.02,-0.07,0.93,1.71,3.17,1.46,952.92,21.8,
6936032,-0.02,-0.07,0.92,1.71,3.66,1.46,952.9,21.79,
6936071,-0.02,-0.07,0.91,1.71,3.23,1.65,952.9,21.78,
6936109,-0.02,-0.07,0.91,1.46,2.93,1.65,952.92,21.8,
6936147,-0.02,-0.07,0.89,1.28,2.44,1.46,952.96,21.78,
6936185,-0.03,-0.06,0.91,1.1,2.32,1.59,952.91,21.8,
6936224,-0.01,-0.06,0.95,0.85,2.44,1.65,952.95,21.8,
6936262,-0.02,-0.07,0.97,0.73,2.14,1.65,952.97,21.8,
6936300,-0.01,-0.05,1.02,1.16,1.89,1.65,952.98,21.8,
6936338,-0.02,-0.06,1.01,1.4,2.38,1.83,953.0,21.81,
6936377,-0.01,-0.06,1.03,1.71,2.14,1.77,952.98,21.79,
6936453,-0.01,-0.07,1.02,2.01,2.5,1.65,953.02,21.77,
6936491,-0.01,-0.06,1.01,2.01,2.2,1.71,953.08,21.78,
6936529,-0.01,-0.07,1.0,2.26,2.69,1.59,953.13,21.79,
6936619,-0.02,-0.06,0.97,2.2,2.81,1.28,953.11,21.76,
6936657,-0.01,-0.07,0.96,2.14,2.56,1.16,953.05,21.77,
6936696,-0.02,-0.07,0.95,2.32,2.93,1.22,953.14,21.79,
6936734,-0.01,-0.07,0.94,2.38,3.05,1.1,953.16,21.79,
6936772,-0.02,-0.07,0.94,2.14,3.66,0.98,953.11,21.77,
6936811,-0.02,-0.07,0.95,2.26,4.03,0.85,953.13,21.78,
6936849,-0.03,-0.08,0.92,2.08,4.03,0.92,953.14,21.78,
6936899,-0.03,-0.07,0.95,2.08,4.03,0.85,953.12,21.78,
6936937,-0.02,-0.07,0.94,1.65,4.09,0.92,953.18,21.78,
6936975,-0.02,-0.06,0.95,1.71,3.78,0.85,953.18,21.78,
6937014,-0.02,-0.07,0.93,1.59,3.97,0.92,953.22,21.78,
6937052,-0.02,-0.07,0.98,1.77,4.03,0.67,953.23,21.79,
6937090,-0.01,-0.07,0.98,1.59,4.33,0.79,953.22,21.79,
6937128,-0.03,-0.06,0.97,1.46,4.15,0.73,953.22,21.8,
6937167,-0.02,-0.09,0.98,1.65,4.64,0.61,953.27,21.79,
6937205,-0.02,-0.07,0.98,1.59,4.88,0.67,953.24,21.8,
6937255,-0.04,-0.06,1.02,1.65,4.88,0.73,953.27,21.79,
6937293,-0.03,-0.06,1.01,1.71,5.43,0.79,953.31,21.79,
6937331,-0.02,-0.06,1.01,1.59,5.68,0.73,953.26,21.79,
6937370,-0.03,-0.06,1.01,1.53,5.43,0.92,953.32,21.8,
6937408,-0.03,-0.06,1.02,1.71,5.0,0.92,953.38,21.81,
6937446,-0.03,-0.06,1.02,1.53,5.43,0.85,953.32,21.79,
6937484,-0.02,-0.06,1.01,1.34,5.25,0.92,953.32,21.81,
6937523,-0.03,-0.07,0.99,1.53,5.55,0.92,953.34,21.8,
6937561,-0.03,-0.07,1.0,1.46,5.19,1.04,953.37,21.8,
6937599,-0.03,-0.07,1.01,1.46,5.13,1.04,953.35,21.81,
6937649,-0.02,-0.06,1.0,1.28,4.03,0.98,953.39,21.79,
6937687,-0.02,-0.06,1.0,1.28,4.21,1.04,953.42,21.8,
6937726,-0.02,-0.06,0.98,1.1,3.6,1.1,953.44,21.8,
6937764,-0.03,-0.06,1.01,1.1,3.05,1.04,953.41,21.8,
6937802,-0.02,-0.07,0.99,1.1,2.81,1.22,953.47,21.79,
6937840,-0.03,-0.06,1.02,1.4,2.08,1.34,953.45,21.81,
6937879,-0.03,-0.06,1.03,1.22,1.77,1.16,953.41,21.8,
6937917,-0.02,-0.07,1.01,1.34,2.2,1.34,953.49,21.8,
6937955,-0.03,-0.06,1.03,1.71,2.14,1.28,953.48,21.81,
6937993,-0.02,-0.06,1.0,1.65,2.56,1.4,953.49,21.79,
6938043,-0.03,-0.07,1.0,1.77,2.08,1.1,953.52,21.78,
6938082,-0.02,-0.07,0.97,1.89,2.56,1.04,953.58,21.8,
6938120,-0.03,-0.07,0.96,1.89,2.32,1.16,953.51,21.79,
6938158,-0.02,-0.06,0.94,1.83,2.62,1.22,953.58,21.79,
6938196,-0.02,-0.06,0.94,2.08,2.56,1.22,953.55,21.8,
6938235,-0.03,-0.06,0.97,2.01,2.69,0.98,953.6,21.8,
6938273,-0.03,-0.07,0.96,1.89,2.75,1.04,953.6,21.8,
6938311,-0.03,-0.07,0.96,1.71,2.99,1.1,953.6,21.81,
6938350,-0.03,-0.07,0.97,1.89,2.87,1.04,953.6,21.8,
6938399,-0.03,-0.07,0.96,2.08,3.17,1.16,953.62,21.79,
6938438,-0.02,-0.06,0.97,1.95,2.81,1.1,953.64,21.8,
6938476,-0.03,-0.07,0.99,1.89,2.75,1.04,953.67,21.8,
6938514,-0.03,-0.07,0.95,1.95,2.87,1.1,953.64,21.8,
6938552,-0.03,-0.06,0.99,2.14,2.32,1.16,953.69,21.8,
6938591,-0.03,-0.07,0.96,1.89,2.44,1.1,953.66,21.81,
6938629,-0.03,-0.06,1.0,2.38,1.71,1.16,953.65,21.8,
6938667,-0.03,-0.06,0.99,2.08,2.32,1.16,953.72,21.81,
6938705,-0.03,-0.07,0.99,2.2,2.38,1.34,953.71,21.8,
6938744,-0.02,-0.07,0.98,2.2,2.56,1.1,953.7,21.8,
6938794,-0.04,-0.07,0.97,2.26,2.87,1.28,953.77,21.79,
6938832,-0.03,-0.07,0.93,2.26,2.93,1.16,953.75,21.81,
6938870,-0.02,-0.07,0.93,2.44,1.59,1.34,953.8,21.8,
6938908,-0.04,-0.07,0.86,2.2,2.14,1.4,953.74,21.81,
6938947,-0.03,-0.06,0.86,2.01,1.28,1.22,953.75,21.81,
6938985,-0.04,-0.07,0.86,1.77,2.08,1.4,953.76,21.8,
6939023,-0.04,-0.08,0.86,1.46,1.95,1.46,953.8,21.81,
6939061,-0.03,-0.08,0.87,1.28,1.83,1.53,953.82,21.81,
6939100,-0.04,-0.06,0.82,0.98,2.62,1.53,953.79,21.81,
6939138,-0.04,-0.06,0.88,0.92,2.08,1.53,953.76,21.81,
6939188,-0.05,-0.06,0.88,0.67,2.99,1.59,953.77,21.8,
6939226,-0.04,-0.06,0.97,0.98,3.72,1.4,953.84,21.8,
6939264,-0.04,-0.07,0.94,0.61,4.7,1.77,953.89,21.8,
6939303,-0.04,-0.06,1.03,0.85,3.6,1.65,953.92,21.81,
6939341,-0.06,-0.07,0.99,0.67,4.21,1.95,953.93,21.81,
6939379,-0.03,-0.07,0.97,1.4,3.23,2.26,953.95,21.79,
6939417,-0.04,-0.06,0.96,1.77,2.87,2.14,953.97,21.81,
6939456,-0.05,-0.06,0.93,1.65,1.95,2.44,953.98,21.81,
6939494,-0.02,-0.06,0.99,2.08,1.59,2.56,953.92,21.81,
6939570,-0.04,-0.07,0.98,2.26,1.65,2.99,953.99,21.78,
6939608,-0.05,-0.07,0.97,2.01,1.34,2.87,953.96,21.79,
6939646,-0.03,-0.06,0.95,2.01,1.59,2.81,954.08,21.79,
6939736,-0.03,-0.06,0.95,2.08,1.89,2.93,954.08,21.75,
6939775,-0.04,-0.07,0.95,2.14,2.56,2.87,954.05,21.77,
6939813,-0.04,-0.06,0.97,2.26,2.69,2.75,954.1,21.78,
6939851,-0.03,-0.06,0.99,2.26,2.69,2.93,954.11,21.78,
6939889,-0.03,-0.06,0.98,2.26,2.5,2.81,954.18,21.79,
6939928,-0.03,-0.06,0.97,2.38,2.81,2.99,954.17,21.8,
6939966,-0.02,-0.06,0.96,2.26,2.38,2.93,954.14,21.78,
6940016,-0.02,-0.06,0.97,2.32,2.87,3.05,954.24,21.8,
6940054,-0.02,-0.06,0.95,2.26,2.32,2.99,954.22,21.79,
6940092,-0.02,-0.07,1.0,2.5,2.44,2.99,954.2,21.79,
6940131,-0.01,-0.07,0.96,2.38,2.2,2.81,954.24,21.81,
6940169,-0.02,-0.05,1.01,2.56,1.71,2.93,954.19,21.78,
6940207,-0.01,-0.05,1.0,2.62,2.26,2.99,954.29,21.79,
6940245,-0.01,-0.06,1.02,2.81,2.08,2.93,954.31,21.8,
6940284,-0.02,-0.07,1.0,2.87,2.2,2.87,954.27,21.79,
6940322,-0.01,-0.06,1.0,2.93,1.77,2.75,954.4,21.8,
6940360,-0.01,-0.06,0.99,3.05,2.01,2.93,954.36,21.81,
6940410,-0.01,-0.06,0.97,2.93,1.71,2.75,954.35,21.79,
6940448,-0.02,-0.06,0.97,2.99,2.38,2.56,954.38,21.81,
6940487,-0.01,-0.07,0.95,2.93,2.5,2.44,954.4,21.81,
6940525,-0.0,-0.06,0.97,2.99,2.62,2.32,954.37,21.8,
6940563,-0.01,-0.07,0.97,3.17,2.62,2.2,954.42,21.81,
6940601,-0.0,-0.07,0.98,3.11,2.26,2.08,954.42,21.8,
6940640,-0.0,-0.06,0.98,3.17,2.62,2.14,954.44,21.81,
6940678,0.0,-0.07,0.97,2.99,2.87,1.95,954.49,21.81,
6940716,-0.01,-0.06,0.99,2.93,2.87,1.71,954.49,21.81,
6940766,-0.0,-0.06,0.99,2.75,3.36,1.77,954.46,21.79,
6940804,-0.01,-0.06,1.02,2.81,3.42,1.59,954.51,21.8,
6940843,-0.01,-0.06,1.02,2.75,3.6,1.46,954.52,21.81,
6940881,-0.0,-0.06,1.04,2.69,3.54,1.34,954.55,21.8,
6940919,-0.01,-0.07,1.05,2.75,3.6,1.46,954.6,21.8,
6940957,-0.02,-0.07,1.03,2.44,3.48,1.22,954.53,21.8,
6940995,-0.02,-0.04,1.03,2.32,3.78,1.1,954.59,21.81,
6941034,-0.01,-0.07,1.03,2.08,4.39,1.04,954.61,21.81,
6941072,-0.01,-0.06,1.02,1.71,4.21,0.85,954.6,21.81,
6941110,-0.01,-0.06,1.04,1.89,3.78,0.98,954.61,21.8,
6941160,-0.02,-0.07,1.0,1.83,4.39,0.67,954.64,21.81,
6941198,-0.02,-0.06,1.04,1.89,3.78,0.79,954.65,21.81,
6941237,-0.02,-0.06,1.03,1.83,3.6,0.85,954.67,21.8,
6941275,-0.02,-0.07,1.03,1.95,3.17,0.79,954.7,21.81,
6941313,-0.02,-0.06,1.02,2.01,3.42,0.85,954.75,21.81,
6941351,-0.02,-0.07,1.0,2.08,2.93,0.79,954.71,21.82,
6941390,-0.02,-0.06,0.98,1.95,2.32,0.85,954.71,21.82,
6941428,-0.02,-0.07,0.94,1.95,2.56,0.73,954.76,21.81,
6941466,-0.01,-0.06,0.94,2.08,1.46,0.73,954.76,21.81,
6941504,-0.02,-0.07,0.96,1.95,0.92,0.79,954.74,21.81,
6941554,-0.02,-0.06,0.98,2.01,0.49,0.61,954.79,21.79,
6941593,-0.02,-0.06,1.0,1.77,0.92,0.61,954.76,21.81,
6941631,-0.03,-0.06,1.0,1.83,1.34,0.61,954.8,21.81,
6941669,-0.01,-0.07,1.03,1.71,1.53,0.55,954.81,21.81,
6941707,-0.02,-0.07,1.01,1.53,1.16,0.49,954.8,21.81,
6941746,-0.03,-0.06,1.04,1.83,1.1,0.49,954.88,21.83,
6941784,-0.03,-0.07,1.0,1.89,1.65,0.43,954.93,21.82,
6941822,-0.02,-0.06,1.02,2.08,1.4,0.43,954.83,21.81,
6941860,-0.02,-0.07,1.01,1.95,1.83,0.43,954.91,21.81,
6941910,-0.03,-0.06,1.01,2.01,1.22,0.43,954.9,21.81,
6941949,-0.02,-0.06,1.03,1.89,1.46,0.61,954.89,21.8,
6941987,-0.02,-0.06,1.0,1.95,0.85,0.49,955.0,21.82,
6942025,-0.03,-0.06,1.03,2.01,0.85,0.55,954.92,21.8,
6942063,-0.03,-0.07,1.0,1.77,1.28,0.55,954.99,21.81,
6942102,-0.03,-0.06,1.02,1.95,1.46,0.43,955.03,21.82,
6942140,-0.03,-0.06,1.02,2.01,1.77,0.73,954.95,21.82,
6942178,-0.04,-0.06,1.0,2.08,1.53,0.55,955.01,21.82,
6942216,-0.03,-0.07,1.0,2.08,1.83,0.79,955.07,21.82,
6942255,-0.02,-0.07,1.03,2.38,1.4,0.67,955.06,21.82,
6942305,-0.04,-0.07,1.01,2.2,1.89,0.79,955.09,21.8,
6942343,-0.02,-0.06,1.05,2.38,1.77,0.79,955.06,21.8,
6942381,-0.02,-0.07,1.06,2.14,2.38,0.92,955.13,21.8,
6942419,-0.02,-0.07,1.07,2.14,2.01,1.04,955.12,21.81,
6942458,-0.03,-0.06,1.09,2.26,2.2,0.98,955.15,21.82,
6942496,-0.02,-0.07,1.07,2.32,2.14,1.04,955.14,21.82,
6942534,-0.02,-0.06,1.08,2.38,1.28,1.16,955.16,21.81,
6942572,-0.03,-0.06,1.06,2.2,1.46,0.98,955.15,21.81,
6942611,-0.03,-0.06,1.04,2.26,1.04,0.98,955.19,21.81,
6942649,-0.02,-0.07,1.03,2.14,1.16,1.16,955.18,21.81,
6942725,-0.02,-0.07,1.01,1.89,1.53,1.1,955.23,21.79,
6942763,-0.02,-0.07,1.01,1.89,1.4,1.1,955.21,21.79,
6942801,-0.01,-0.07,1.0,1.65,1.65,1.16,955.22,21.81,
6942891,-0.02,-0.07,0.97,1.4,1.95,0.98,955.28,21.77,
6942930,-0.01,-0.07,0.98,1.53,1.83,1.04,955.27,21.78,
6942968,-0.01,-0.07,0.97,1.53,1.77,0.98,955.34,21.79,
6943006,-0.01,-0.07,0.96,1.34,1.83,0.85,955.29,21.79,
6943044,-0.02,-0.08,0.96,1.59,2.2,0.79,955.31,21.78,
6943083,-0.01,-0.08,0.92,1.22,2.2,0.73,955.36,21.8,
6943133,-0.02,-0.07,0.94,1.34,2.01,0.73,955.34,21.78,
6943171,-0.02,-0.08,0.93,1.1,2.69,0.85,955.35,21.79,
6943209,-0.03,-0.08,0.93,1.22,2.69,0.61,955.39,21.81,
6943247,-0.02,-0.08,0.93,1.22,2.99,0.67,955.39,21.8,
6943286,-0.02,-0.07,0.92,1.16,2.87,0.73,955.37,21.8,
6943324,-0.03,-0.07,0.9,1.16,2.99,0.73,955.42,21.81,
6943362,-0.03,-0.07,0.89,1.04,2.32,0.85,955.4,21.8,
6943400,-0.02,-0.08,0.93,0.92,2.01,0.79,955.46,21.81,
6943439,-0.03,-0.08,0.92,0.43,2.08,0.85,955.45,21.81,
6943477,-0.03,-0.06,0.94,0.73,1.59,0.79,955.48,21.82,
6943527,-0.03,-0.08,0.96,0.61,1.53,1.16,955.44,21.8,
6943565,-0.03,-0.07,1.0,0.37,1.22,0.79,955.48,21.8,
6943603,-0.04,-0.06,1.0,0.43,1.95,0.98,955.44,21.8,
6943642,-0.03,-0.07,1.03,0.43,2.01,1.1,955.46,21.8,
6943680,-0.03,-0.07,1.06,0.49,2.14,1.04,955.52,21.81,
6943718,-0.03,-0.07,1.07,0.55,2.44,1.16,955.52,21.81,
6943756,-0.05,-0.07,1.07,0.67,2.99,1.22,955.54,21.81,
6943795,-0.04,-0.07,1.08,0.85,2.87,1.22,955.56,21.81,
6943833,-0.03,-0.06,1.07,0.98,2.87,1.53,955.59,21.82,
6943871,-0.03,-0.07,1.04,0.85,3.42,1.53,955.59,21.81,
6943921,-0.03,-0.06,1.06,1.16,3.3,1.53,955.67,21.81,
6943959,-0.03,-0.07,1.04,1.22,3.54,1.46,955.72,21.82,
6943998,-0.02,-0.06,1.04,1.34,3.23,1.59,955.7,21.81,
6944036,-0.01,-0.06,1.03,1.16,3.78,1.46,955.67,21.81,
6944074,-0.02,-0.07,1.02,1.34,3.54,1.4,955.69,21.82,
6944112,-0.02,-0.08,0.99,1.28,3.54,1.53,955.74,21.82,
6944151,-0.02,-0.07,1.01,1.53,3.23,1.4,955.73,21.81,
6944189,-0.02,-0.07,1.01,1.16,3.11,1.4,955.76,21.82,
6944227,-0.01,-0.06,1.02,1.16,3.05,1.53,955.81,21.82,
6944277,-0.01,-0.07,1.04,1.16,2.5,1.34,955.8,21.8,
6944315,-0.03,-0.08,1.04,1.04,2.81,1.59,955.77,21.81,
6944354,-0.0,-0.08,1.06,1.4,2.69,1.22,955.84,21.82,
6944392,-0.01,-0.07,1.06,1.04,3.66,1.28,955.78,21.81,
6944430,-0.03,-0.07,1.06,1.16,3.36,1.1,955.84,21.82,
6944468,-0.02,-0.07,1.04,0.98,3.66,0.98,955.8,21.82,
6944507,-0.01,-0.07,1.02,1.28,2.99,1.1,955.89,21.82,
6944545,-0.02,-0.07,1.03,1.46,2.75,1.16,955.87,21.82,
6944583,-0.03,-0.07,0.99,1.28,2.87,1.22,955.85,21.82,
6944621,-0.01,-0.07,1.0,1.65,3.23,0.92,955.89,21.82,
6944671,-0.01,-0.08,0.95,1.4,3.78,0.98,955.86,21.8,
6944710,-0.01,-0.08,0.94,1.4,3.66,0.92,955.84,21.81,
6944748,-0.02,-0.08,0.95,1.53,3.97,0.85,955.87,21.82,
6944786,-0.01,-0.08,0.95,1.4,3.78,0.85,955.94,21.83,
6944824,-0.02,-0.07,0.96,1.53,3.6,0.79,955.97,21.82,
6944863,-0.04,-0.07,0.94,1.46,3.97,0.73,955.94,21.82,
6944901,-0.03,-0.07,0.95,1.46,3.72,0.85,955.92,21.81,
6944939,-0.02,-0.08,0.95,1.04,3.85,0.92,955.95,21.83,
6944977,-0.02,-0.08,0.96,1.04,3.97,0.85,955.97,21.82,
6945016,-0.03,-0.07,0.95,1.16,3.72,0.98,955.95,21.83,
6945066,-0.02,-0.09,0.95,0.92,3.3,0.98,955.93,21.81,
6945104,-0.02,-0.07,0.96,0.85,3.3,1.04,955.98,21.81,
6945142,-0.02,-0.06,0.98,0.79,4.21,0.98,956.02,21.83,
6945180,-0.02,-0.07,0.96,0.55,3.85,0.98,956.02,21.83,
6945219,-0.02,-0.08,1.0,0.79,3.85,0.98,956.01,21.82,
6945257,-0.02,-0.08,1.01,0.55,4.09,1.04,956.07,21.83,
6945295,-0.03,-0.07,1.01,0.79,4.21,0.98,956.06,21.81,
6945333,-0.01,-0.06,1.03,0.79,4.46,1.04,956.06,21.83,
6945372,-0.03,-0.08,1.02,1.04,4.52,1.04,956.1,21.83,
6945422,-0.02,-0.07,1.07,1.16,3.6,1.16,956.13,21.82,
6945460,-0.02,-0.08,1.04,1.1,4.39,1.1,956.14,21.82,
6945498,-0.02,-0.07,1.07,0.98,3.48,0.98,956.16,21.81,
6945536,-0.02,-0.08,1.1,1.04,4.03,1.22,956.14,21.82,
6945575,-0.02,-0.08,1.04,0.73,4.39,0.98,956.17,21.81,
6945613,0.0,-0.06,1.06,1.1,4.46,0.85,956.22,21.81,
6945651,-0.01,-0.08,1.06,1.04,5.07,0.98,956.17,21.82,
6945689,-0.02,-0.08,1.08,1.28,4.21,0.92,956.17,21.81,
6945728,-0.01,-0.07,1.13,1.53,3.91,1.04,956.17,21.81,
6945766,-0.02,-0.07,1.14,1.34,2.69,0.98,956.24,21.82,
6945843,-0.01,-0.07,1.22,1.16,0.79,1.1,956.2,21.78,
6945881,-0.02,-0.06,1.16,0.49,1.34,1.16,956.27,21.81,
6945920,-0.02,-0.05,1.26,1.34,0.12,1.34,956.23,21.81,
6946010,-0.03,-0.06,1.17,1.4,0.49,0.98,956.32,21.77,
6946048,-0.01,-0.04,1.14,0.92,1.22,1.16,956.29,21.79,
6946087,-0.01,-0.05,1.16,1.4,0.79,0.98,956.3,21.79,
6946125,-0.02,-0.05,1.1,0.61,2.44,1.04,956.27,21.79,
6946163,-0.03,-0.06,1.15,0.98,2.5,0.92,956.35,21.81,
6946201,-0.01,-0.08,1.14,0.67,3.85,0.85,956.35,21.8,
6946239,-0.02,-0.07,1.12,1.1,3.23,1.16,956.32,21.81,
6946289,-0.02,-0.07,1.03,1.46,4.88,0.92,956.41,21.8,
6946328,-0.03,-0.05,0.99,2.01,4.76,0.92,956.42,21.81,
6946366,-0.03,-0.07,0.99,2.08,5.31,0.79,956.42,21.81,
6946404,-0.02,-0.07,1.01,1.95,6.23,0.98,956.4,21.8,
6946442,-0.02,-0.08,0.99,1.77,7.39,1.1,956.4,21.81,
6946481,-0.01,-0.05,1.06,1.71,7.26,0.92,956.35,21.82,
6946519,-0.03,-0.06,1.11,1.65,8.12,0.79,956.41,21.83,
6946557,-0.01,-0.08,1.03,0.73,9.03,0.92,956.43,21.82,
6946595,0.0,-0.07,1.08,0.73,9.09,0.55,956.44,21.81,
6946645,-0.0,-0.06,1.0,0.12,10.86,0.67,956.46,21.81,
6946684,0.01,-0.05,0.97,0.43,10.07,0.55,956.48,21.82,
6946722,-0.01,-0.07,0.96,0.49,10.13,0.49,956.47,21.82,
6946760,-0.01,-0.07,0.94,0.24,8.85,0.61,956.47,21.83,
6946798,0.02,-0.07,1.06,0.98,7.81,0.61,956.42,21.82,
6946837,0.01,-0.07,1.03,0.24,7.93,0.49,956.47,21.82,
6946875,-0.01,-0.05,1.14,1.22,4.33,0.79,956.49,21.83,
6946913,-0.01,-0.07,1.09,0.79,4.09,0.73,956.46,21.82,
6946951,-0.0,-0.05,1.18,0.85,1.83,0.73,956.5,21.82,
6946990,-0.01,-0.07,1.16,0.67,2.14,0.79,956.54,21.83,
6947040,-0.01,-0.05,1.14,0.98,-1.04,0.73,956.5,21.81,
6947078,-0.03,-0.06,1.08,0.92,0.31,0.61,956.48,21.82,
6947116,-0.01,-0.06,1.08,1.16,0.92,0.49,956.48,21.83,
6947154,-0.01,-0.06,1.09,1.46,1.4,0.49,956.42,21.82,
6947193,-0.05,-0.06,1.02,1.59,2.14,0.49,956.52,21.83,
6947231,-0.04,-0.06,1.04,2.01,2.5,0.37,956.51,21.82,
6947269,-0.03,-0.07,1.0,1.83,4.39,0.43,956.53,21.83,
6947307,-0.04,-0.08,0.96,1.83,4.15,0.43,956.62,21.83,
6947346,-0.05,-0.07,0.96,2.32,5.25,0.31,956.54,21.83,
6947384,-0.02,-0.08,0.89,2.5,6.84,0.12,956.59,21.82,
6947434,-0.03,-0.05,0.8,2.2,6.35,0.49,956.55,21.82,
6947472,-0.02,-0.06,0.76,1.95,6.47,0.12,956.55,21.83,
6947510,-0.05,-0.06,0.88,1.77,6.29,0.18,956.56,21.83,
6947549,-0.02,-0.08,0.87,0.85,7.2,0.55,956.49,21.82,
6947587,-0.01,-0.06,0.95,1.04,5.92,0.24,956.5,21.82,
6947625,-0.03,-0.06,0.98,0.73,6.9,0.24,956.51,21.82,
6947663,-0.01,-0.07,1.0,0.79,5.43,0.43,956.54,21.83,
6947702,-0.04,-0.07,1.01,0.98,4.21,0.37,956.58,21.83,
6947740,-0.03,-0.06,0.97,0.24,3.91,0.24,956.52,21.82,
6947790,-0.03,-0.07,1.07,0.61,2.99,0.18,956.54,21.81,
6947828,-0.03,-0.06,1.02,0.73,2.56,0.43,956.55,21.83,
6947866,-0.01,-0.07,1.02,1.53,1.53,0.18,956.6,21.82,
6947905,-0.04,-0.05,0.99,1.16,2.14,0.0,956.52,21.81,
6947943,-0.02,-0.05,1.06,1.65,1.4,0.24,956.66,21.84,
6947981,-0.03,-0.07,1.03,1.4,0.98,0.18,956.55,21.83,
6948019,-0.05,-0.06,1.04,2.2,0.55,0.12,956.54,21.83,
6948058,-0.02,-0.06,0.99,1.71,0.79,0.06,956.59,21.83,
6948096,-0.01,-0.05,1.02,1.71,-0.18,0.06,956.64,21.83,
6948134,-0.04,-0.07,1.0,2.08,-0.61,0.18,956.61,21.83,
6948184,-0.06,-0.07,0.99,2.38,-0.98,0.06,956.61,21.82,
6948222,-0.04,-0.07,1.0,2.2,-0.24,0.06,956.6,21.82,
6948261,-0.04,-0.06,0.98,2.56,-0.43,0.0,956.56,21.82,
6948299,-0.05,-0.06,0.98,2.44,-0.61,0.06,956.62,21.82,
6948337,-0.05,-0.06,1.0,2.38,-0.24,-0.06,956.61,21.82,
6948375,-0.03,-0.07,1.0,2.56,0.24,0.0,956.64,21.83,
6948414,-0.02,-0.07,1.02,2.5,0.37,0.0,956.62,21.83,
6948452,-0.06,-0.04,1.05,2.99,-0.12,0.0,956.69,21.83,
6948490,-0.05,-0.06,1.06,3.3,0.85,0.06,956.65,21.83,
6948540,-0.02,-0.06,1.07,2.75,1.59,0.12,956.6,21.81,
6948578,-0.05,-0.05,1.1,2.75,2.2,0.06,956.69,21.82,
6948617,-0.04,-0.07,1.09,2.87,3.48,0.0,956.69,21.82,
6948655,-0.04,-0.05,1.12,2.69,4.21,0.06,956.69,21.82,
6948693,-0.04,-0.05,1.13,3.11,3.97,0.24,956.69,21.83,
6948731,-0.05,-0.07,1.01,2.87,4.82,0.31,956.76,21.83,
6948770,-0.05,-0.05,1.02,3.23,4.88,0.12,956.72,21.82,
6948808,-0.04,-0.07,0.97,3.05,5.19,0.06,956.7,21.82,
6948846,-0.03,-0.07,0.97,3.6,4.33,0.31,956.76,21.83,
6948884,-0.03,-0.07,0.94,3.54,4.82,0.37,956.67,21.82,
6948960,-0.04,-0.06,0.98,3.36,2.32,0.43,956.62,21.8,
6948998,-0.06,-0.08,0.94,2.81,1.65,0.49,956.68,21.82,
6949037,-0.03,-0.07,0.97,2.75,1.46,0.55,956.67,21.82,
6949126,-0.05,-0.06,0.96,2.08,0.18,0.79,956.67,21.78,
6949165,-0.05,-0.07,0.97,1.89,0.06,0.92,956.68,21.8,
6949203,-0.03,-0.07,0.97,1.77,-0.43,0.85,956.78,21.81,
6949241,-0.04,-0.06,0.98,1.65,-0.92,0.92,956.72,21.82,
6949279,-0.03,-0.07,1.01,2.2,-1.59,0.85,956.76,21.81,
6949318,-0.01,-0.07,1.0,1.77,-1.46,0.79,956.69,21.81,
6949356,-0.02,-0.07,1.04,1.95,-2.56,0.98,956.75,21.82,
6949406,-0.03,-0.07,0.99,1.71,-2.2,0.92,956.72,21.81,
6949444,-0.02,-0.06,1.03,2.14,-2.26,0.73,956.82,21.82,
6949482,-0.02,-0.07,1.0,1.83,-2.75,0.61,956.72,21.82,
6949521,-0.02,-0.07,1.01,2.14,-3.78,0.55,956.77,21.82,
6949559,-0.03,-0.07,1.01,1.89,-3.23,0.61,956.75,21.82,
6949597,-0.02,-0.05,1.01,1.89,-3.78,0.55,956.84,21.83,
6949635,-0.02,-0.06,1.04,2.2,-4.33,0.49,956.78,21.82,
6949674,-0.04,-0.07,1.02,2.2,-4.21,0.49,956.86,21.83,
6949712,-0.04,-0.07,1.02,2.26,-4.09,0.24,956.84,21.82,
6949762,-0.03,-0.07,1.02,2.2,-3.85,0.43,956.9,21.81,
6949800,-0.03,-0.06,1.02,2.32,-3.78,0.31,956.87,21.82,
6949838,-0.04,-0.06,1.0,2.38,-2.99,0.31,956.86,21.82,
6949877,-0.05,-0.07,0.98,2.2,-2.75,0.37,956.96,21.83,
6949915,-0.03,-0.07,0.98,2.32,-2.5,0.43,956.91,21.82,
6949953,-0.05,-0.06,0.96,2.32,-2.08,0.49,956.9,21.81,
6949991,-0.04,-0.07,0.95,2.14,-1.04,0.61,956.98,21.84,
6950030,-0.03,-0.07,0.98,2.08,-0.37,0.49,956.93,21.83,
6950068,-0.04,-0.06,1.02,1.89,1.1,0.85,956.88,21.81,
6950106,-0.03,-0.05,0.99,1.53,1.71,0.79,957.0,21.83,
6950156,-0.05,-0.06,1.03,1.59,2.93,0.85,956.99,21.83,
6950194,-0.03,-0.07,1.02,1.4,3.91,0.73,956.97,21.83,
6950233,-0.02,-0.05,1.08,1.83,4.03,0.73,957.01,21.82,
6950271,-0.03,-0.06,1.04,1.71,4.58,1.04,957.0,21.83,
6950309,-0.04,-0.07,0.98,1.65,4.39,1.16,957.07,21.82,
6950347,-0.03,-0.05,1.01,1.95,3.91,1.22,957.04,21.83,
6950386,-0.03,-0.06,0.98,1.95,3.85,1.22,957.03,21.83,
6950424,-0.03,-0.06,0.97,2.2,3.05,1.34,957.04,21.83,
6950462,-0.01,-0.06,0.99,2.01,3.6,1.4,957.06,21.83,
6950512,-0.03,-0.06,1.01,1.95,3.6,1.59,957.05,21.83,
6950550,-0.02,-0.06,1.05,1.59,3.54,1.59,957.01,21.82,
6950589,-0.04,-0.06,1.06,1.59,3.6,1.65,957.09,21.83,
6950627,-0.03,-0.06,1.07,1.28,4.15,1.59,957.06,21.83,
6950665,-0.02,-0.06,1.08,1.4,3.72,1.77,957.09,21.84,
6950703,-0.03,-0.06,1.07,1.4,3.66,1.89,957.14,21.83,
6950742,-0.03,-0.06,1.07,1.46,3.3,1.83,957.11,21.83,
6950780,-0.02,-0.05,1.09,1.65,3.42,1.83,957.1,21.83,
6950818,-0.02,-0.06,1.08,1.65,3.3,1.95,957.09,21.84,
6950856,-0.03,-0.06,1.08,1.59,3.48,2.01,957.11,21.84,
6950906,-0.03,-0.06,1.08,1.77,3.17,2.2,957.09,21.82,
6950945,-0.03,-0.06,1.07,1.95,2.56,2.2,957.11,21.83,
6950983,-0.03,-0.06,1.07,2.01,2.2,2.44,957.13,21.84,
6951021,-0.03,-0.06,1.05,1.95,1.71,2.44,957.13,21.83,
6951059,-0.03,-0.06,1.02,2.14,1.83,2.5,957.16,21.83,
6951098,-0.03,-0.06,1.0,2.14,1.59,2.62,957.11,21.83,
6951136,-0.03,-0.06,1.01,2.01,1.53,2.69,957.14,21.83,
6951174,-0.03,-0.07,0.98,1.77,1.95,3.11,957.1,21.84,
6951212,-0.03,-0.06,1.0,1.71,1.95,2.69,957.16,21.84,
6951251,-0.02,-0.06,1.03,1.4,2.14,2.75,957.11,21.83,
6951301,-0.02,-0.06,1.05,1.4,2.32,2.87,957.17,21.82,
6951339,-0.03,-0.06,1.05,1.16,2.75,2.81,957.11,21.84,
6951377,-0.02,-0.06,1.1,1.4,2.38,2.81,957.14,21.83,
6951415,-0.02,-0.06,1.09,1.34,2.87,2.93,957.24,21.84,
6951453,-0.02,-0.06,1.1,1.53,3.3,2.87,957.15,21.84,
6951492,-0.01,-0.06,1.1,1.4,3.48,2.81,957.15,21.84,
6951530,-0.01,-0.06,1.11,1.77,2.75,2.87,957.17,21.83,
6951568,-0.02,-0.06,1.1,1.77,2.5,2.81,957.15,21.84,
6951606,-0.02,-0.06,1.1,2.08,2.5,2.81,957.17,21.84,
6951656,-0.01,-0.06,1.05,2.26,2.44,2.69,957.21,21.83,
6951695,-0.01,-0.06,1.03,2.2,1.95,2.75,957.19,21.84,
6951733,0.0,-0.07,1.0,2.08,2.38,2.69,957.19,21.83,
6951771,-0.01,-0.07,0.97,1.89,2.93,2.62,957.18,21.84,
6951809,-0.01,-0.07,0.99,2.14,1.83,2.62,957.16,21.83,
6951847,-0.01,-0.07,0.98,2.01,2.38,2.26,957.13,21.83,
6951886,-0.0,-0.06,1.0,1.95,1.28,2.5,957.18,21.83,
6951924,-0.01,-0.08,0.94,1.95,2.44,2.44,957.1,21.82,
6951962,0.01,-0.07,0.89,1.77,2.5,2.14,957.17,21.83,
6952000,-0.03,-0.07,0.93,2.2,1.16,2.08,957.15,21.83,
6952076,-0.03,-0.07,0.92,2.38,2.69,1.89,957.1,21.81,
6952115,-0.02,-0.08,0.83,1.65,4.21,2.2,957.14,21.82,
6952153,-0.02,-0.07,0.89,1.46,1.1,2.01,957.17,21.83,
6952243,-0.01,-0.06,0.94,1.22,2.81,2.01,957.09,21.79,
6952281,-0.05,-0.07,0.96,1.83,3.48,2.26,957.21,21.82,
6952319,-0.06,-0.08,0.91,1.34,3.72,2.38,957.12,21.82,
6952357,-0.03,-0.07,1.01,1.71,4.21,2.14,957.14,21.81,
6952395,-0.02,-0.08,0.99,1.4,5.43,2.26,957.18,21.82,
6952434,-0.05,-0.07,1.0,1.53,4.46,2.93,957.21,21.82,
6952472,-0.04,-0.07,1.04,1.53,5.0,2.75,957.1,21.82,
6952522,-0.0,-0.07,1.06,1.16,4.21,2.87,957.17,21.82,
6952560,-0.02,-0.08,1.09,1.04,3.36,3.05,957.14,21.82,
6952598,-0.02,-0.07,1.08,0.55,3.11,3.17,957.15,21.82,
6952637,-0.01,-0.06,1.13,0.55,2.87,3.42,957.16,21.82,
6952675,-0.01,-0.07,1.12,0.24,2.5,3.3,957.19,21.83,
6952713,-0.0,-0.07,1.15,-0.18,1.71,3.6,957.16,21.83,
6952751,-0.02,-0.07,1.16,-0.43,1.28,3.66,957.15,21.83,
6952790,-0.02,-0.06,1.2,-0.49,0.24,3.54,957.19,21.83,
6952828,0.03,-0.07,1.22,-0.61,0.55,3.17,957.25,21.84,
6952878,0.0,-0.06,1.19,-0.49,0.49,3.42,957.23,21.82,
6952916,0.0,-0.07,1.2,-0.43,0.12,3.42,957.22,21.84,
6952954,-0.01,-0.07,1.15,-0.24,0.43,3.05,957.21,21.83,
6952993,-0.01,-0.06,1.13,-0.18,0.18,2.99,957.24,21.83,
6953031,0.01,-0.07,1.11,-0.49,0.73,2.93,957.25,21.84,
6953069,-0.0,-0.07,1.1,-0.73,0.49,2.81,957.21,21.84,
6953107,-0.0,-0.07,1.11,-0.98,0.73,2.87,957.23,21.83,
6953146,-0.01,-0.07,1.12,-1.04,0.43,2.81,957.26,21.84,
6953184,-0.0,-0.06,1.12,-0.98,0.49,2.99,957.2,21.84,
6953222,-0.0,-0.06,1.11,-0.98,0.24,2.81,957.2,21.83,
6953272,-0.0,-0.07,1.09,-1.1,0.37,2.75,957.22,21.82,
6953310,-0.0,-0.06,1.08,-0.92,0.06,2.62,957.2,21.83,
6953349,0.0,-0.06,1.07,-1.1,0.0,2.38,957.22,21.84,
6953387,0.01,-0.06,1.07,-1.04,0.43,2.56,957.26,21.83,
6953425,-0.01,-0.07,1.06,-1.16,1.16,2.38,957.21,21.83,
6953463,0.0,-0.06,1.05,-1.28,1.34,2.08,957.25,21.83,
6953502,-0.02,-0.06,1.05,-1.22,1.89,2.08,957.21,21.84,
6953540,-0.01,-0.06,1.05,-1.1,2.38,1.95,957.21,21.83,
6953578,-0.01,-0.07,1.02,-1.04,3.48,1.95,957.19,21.84,
6953628,-0.01,-0.06,1.04,-0.85,4.88,2.14,957.19,21.83,
6953666,-0.0,-0.06,1.01,-0.92,6.04,1.83,957.16,21.84,
6953704,-0.01,-0.05,1.06,-0.49,5.92,1.83,957.14,21.83,
6953743,-0.0,-0.07,1.01,-0.79,7.02,1.83,957.18,21.83,
6953781,0.0,-0.06,1.06,-0.43,6.59,1.83,957.09,21.83,
6953819,-0.0,-0.06,1.06,-0.31,7.2,1.83,957.13,21.85,
6953857,-0.0,-0.06,1.06,0.24,7.02,1.83,957.18,21.85,
6953896,-0.0,-0.06,1.08,0.24,7.81,1.83,957.2,21.85,
6953934,0.01,-0.07,1.11,0.73,6.59,1.71,957.18,21.84,
6953972,-0.01,-0.06,1.09,0.85,6.16,1.83,957.18,21.85,
6954022,0.01,-0.05,1.14,1.28,5.43,1.77,957.19,21.83,
6954060,0.03,-0.05,1.13,1.22,4.94,1.65,957.21,21.85,
6954099,-0.0,-0.06,1.09,1.28,3.48,1.65,957.12,21.83,
6954137,-0.0,-0.06,1.12,1.46,3.05,1.71,957.15,21.84,
6954175,-0.0,-0.05,1.05,1.22,3.42,1.65,957.15,21.84,
6954213,-0.0,-0.04,1.06,1.65,2.75,1.59,957.2,21.85,
6954252,0.01,-0.05,1.04,1.46,2.93,1.59,957.13,21.83,
6954290,0.02,-0.06,1.05,1.71,2.75,1.28,957.16,21.85,
6954328,-0.0,-0.06,1.04,1.65,3.17,1.28,957.12,21.85,
6954366,0.0,-0.06,1.06,1.71,2.75,1.28,957.07,21.83,
