timestamp,acc_x,acc_y,acc_z,rot_x,rot_y,rot_z,qfe,temp
5157523,-0.03,-0.05,0.97,0.85,2.99,8.18,882.21,30.8
5157561,-0.04,-0.06,0.91,0.67,3.66,8.18,882.14,30.79
5157611,-0.03,-0.06,0.86,0.24,4.21,7.75,882.14,30.78
5157649,-0.05,-0.06,0.88,0.24,3.66,7.69,882.21,30.79
5157687,-0.04,-0.08,0.87,0.0,4.52,7.69,882.2,30.78
5157725,-0.04,-0.06,0.83,-0.37,4.09,7.57,882.16,30.79
5157764,-0.05,-0.06,0.88,-0.92,3.85,7.81,882.18,30.79
5157802,-0.04,-0.07,0.9,-1.71,4.33,7.69,882.18,30.8
5157840,-0.04,-0.05,0.99,-2.08,4.15,7.69,882.23,30.8
5157878,-0.04,-0.06,1.01,-2.32,4.46,7.87,882.15,30.79
5157916,-0.04,-0.05,1.08,-2.62,4.33,7.93,882.25,30.8
5157954,-0.05,-0.04,1.11,-2.5,5.0,7.81,882.27,30.79
5158004,-0.02,-0.04,1.15,-2.32,4.88,7.75,882.18,30.77
5158042,-0.04,-0.04,1.17,-2.14,5.13,7.69,882.23,30.79
5158080,-0.02,-0.04,1.18,-2.01,4.94,7.51,882.21,30.78
5158119,-0.03,-0.04,1.21,-1.59,5.49,7.57,882.22,30.8
5158157,-0.03,-0.04,1.2,-1.34,5.19,7.45,882.25,30.79
5158195,-0.03,-0.04,1.19,-1.1,5.13,7.32,882.26,30.79
5158233,-0.03,-0.04,1.21,-0.79,4.39,7.2,882.29,30.8
5158271,-0.03,-0.05,1.17,-0.55,4.52,7.2,882.29,30.8
5158309,-0.03,-0.04,1.16,-0.37,4.33,7.14,882.38,30.81
5158359,-0.03,-0.04,1.16,-0.12,4.21,7.26,882.28,30.78
5158397,-0.04,-0.05,1.14,0.12,4.27,7.08,882.31,30.79
5158436,-0.03,-0.04,1.13,0.18,4.09,7.02,882.32,30.79
5158474,-0.04,-0.04,1.11,0.37,4.27,6.9,882.33,30.79
5158512,-0.04,-0.04,1.1,0.43,4.27,7.02,882.38,30.79
5158550,-0.03,-0.05,1.1,0.31,4.76,7.02,882.35,30.78
5158588,-0.04,-0.05,1.09,0.31,4.39,7.14,882.36,30.78
5158626,-0.04,-0.05,1.08,0.31,4.09,7.14,882.37,30.79
5158664,-0.05,-0.06,1.03,0.31,4.52,6.96,882.37,30.78
5158702,-0.05,-0.05,1.02,0.37,4.39,6.9,882.4,30.8
5158778,-0.04,-0.06,0.99,0.24,5.19,7.08,882.43,30.76
5158816,-0.04,-0.05,1.01,0.31,5.19,6.96,882.43,30.77
5158854,-0.04,-0.05,1.0,0.18,5.43,6.96,882.44,30.77
5158944,-0.05,-0.05,1.09,0.06,5.07,6.9,882.4,30.73
5158982,-0.06,-0.06,1.12,-0.06,5.19,6.84,882.32,30.75
5159020,-0.04,-0.06,1.11,-0.18,4.88,6.84,882.38,30.75
5159058,-0.04,-0.04,1.16,-0.18,4.27,6.84,882.42,30.76
5159097,-0.04,-0.04,1.17,-0.31,3.85,6.96,882.42,30.75
5159135,-0.05,-0.04,1.23,-0.43,2.44,7.02,882.43,30.76
5159185,-0.04,-0.04,1.24,-0.37,1.71,7.14,882.37,30.73
5159223,-0.04,-0.04,1.23,-0.43,1.04,7.2,882.48,30.75
5159261,-0.04,-0.04,1.24,-0.18,0.61,7.39,882.44,30.75
5159299,-0.03,-0.06,1.18,-0.24,-0.06,7.32,882.44,30.77
5159337,-0.05,-0.04,1.2,-0.06,0.12,7.08,882.48,30.76
5159375,-0.04,-0.04,1.15,0.12,0.98,7.08,882.46,30.76
5159413,-0.05,-0.04,1.16,-0.12,0.49,7.02,882.46,30.77
5159452,-0.04,-0.05,1.15,-0.06,1.1,6.96,882.5,30.76
5159490,-0.05,-0.05,1.15,-0.18,0.98,7.02,882.53,30.78
5159528,-0.05,-0.05,1.19,-0.06,1.4,6.96,882.53,30.77
5159578,-0.03,-0.05,1.16,-0.24,1.46,6.9,882.57,30.75
5159616,-0.04,-0.05,1.17,0.06,2.08,6.84,882.48,30.77
5159654,-0.04,-0.06,1.16,0.0,2.44,6.84,882.49,30.75
5159692,-0.06,-0.05,1.15,0.31,2.81,6.71,882.5,30.76
5159730,-0.06,-0.05,1.13,0.37,3.78,6.59,882.45,30.77
5159768,-0.04,-0.05,1.17,0.37,4.58,6.59,882.5,30.77
5159806,-0.04,-0.06,1.15,0.24,5.86,6.41,882.49,30.76
5159844,-0.06,-0.05,1.17,0.79,6.59,6.59,882.48,30.76
5159883,-0.05,-0.06,1.18,1.53,8.3,6.53,882.52,30.77
5159932,-0.05,-0.05,1.18,1.77,8.48,6.59,882.44,30.76
5159970,-0.06,-0.04,1.17,2.2,9.95,6.65,882.45,30.77
5160009,-0.07,-0.05,1.18,2.44,10.31,6.65,882.48,30.77
5160047,-0.04,-0.06,1.15,2.56,11.17,6.77,882.48,30.77
5160085,-0.05,-0.06,1.12,3.11,12.27,6.96,882.46,30.77
5160123,-0.06,-0.06,1.05,3.11,12.51,7.02,882.48,30.77
5160161,-0.05,-0.05,1.06,3.3,12.21,7.26,882.5,30.77
5160199,-0.05,-0.07,1.0,3.6,12.45,7.32,882.51,30.77
5160237,-0.05,-0.06,0.99,3.91,11.96,7.63,882.52,30.76
5160276,-0.05,-0.06,0.96,4.03,12.45,7.87,882.54,30.77
5160325,-0.05,-0.07,0.91,3.66,11.29,8.3,882.47,30.75
5160363,-0.05,-0.06,0.92,3.48,11.23,8.24,882.52,30.77
5160402,-0.05,-0.08,0.91,2.99,11.11,8.36,882.49,30.76
5160440,-0.03,-0.08,0.92,2.69,11.11,8.54,882.51,30.76
5160478,-0.06,-0.07,0.9,2.44,10.8,8.67,882.54,30.75
5160516,-0.04,-0.07,0.89,2.08,10.99,8.97,882.59,30.77
5160554,-0.03,-0.07,0.9,1.89,11.35,9.03,882.56,30.75
5160592,-0.03,-0.07,0.91,1.95,11.35,8.85,882.54,30.76
5160630,-0.03,-0.06,0.94,1.71,10.68,9.16,882.56,30.76
5160680,-0.01,-0.07,0.93,1.46,10.86,9.28,882.49,30.74
5160718,-0.02,-0.08,0.95,1.16,10.5,9.09,882.58,30.75
5160756,-0.01,-0.08,0.98,0.61,9.95,9.34,882.61,30.75
5160794,-0.01,-0.08,0.96,0.24,8.54,9.22,882.63,30.75
5160833,0.01,-0.07,0.99,-0.37,7.87,9.09,882.66,30.74
5160871,0.0,-0.07,0.99,-0.79,6.96,8.85,882.68,30.75
5160909,-0.01,-0.07,1.04,-0.98,6.29,9.03,882.63,30.75
5160947,-0.01,-0.08,1.03,-1.1,6.47,8.54,882.59,30.75
5160985,-0.0,-0.07,1.04,-0.98,5.68,8.3,882.66,30.75
5161023,0.0,-0.08,1.04,-0.73,6.84,8.3,882.68,30.75
5161073,-0.0,-0.07,1.07,-0.67,6.35,7.57,882.66,30.73
5161111,-0.02,-0.07,1.12,0.0,6.84,7.51,882.65,30.74
5161149,-0.01,-0.09,1.07,-0.12,7.08,7.51,882.72,30.74
5161187,-0.01,-0.06,1.15,-0.12,7.08,7.02,882.7,30.75
5161225,-0.0,-0.08,1.11,0.31,8.18,6.77,882.74,30.75
5161264,0.01,-0.07,1.13,0.24,7.63,6.47,882.73,30.75
5161302,0.01,-0.07,1.09,0.31,8.73,6.23,882.71,30.75
5161340,0.01,-0.07,1.11,0.67,8.54,6.1,882.71,30.76
5161378,0.01,-0.07,1.09,0.98,8.42,5.68,882.74,30.77
5161416,-0.01,-0.07,1.08,1.1,8.06,5.92,882.76,30.76
5161466,0.0,-0.08,1.05,1.16,8.97,5.31,882.72,30.75
5161504,-0.01,-0.07,1.07,1.16,8.24,5.19,882.71,30.75
5161542,0.01,-0.08,1.08,1.59,8.67,5.0,882.71,30.76
5161580,0.0,-0.08,1.05,1.65,8.54,4.76,882.78,30.76
5161618,-0.02,-0.07,1.06,1.46,8.91,4.82,882.75,30.76
5161656,-0.01,-0.09,1.06,1.59,9.64,4.58,882.73,30.75
5161695,-0.02,-0.07,1.06,1.53,9.58,4.27,882.73,30.75
5161733,-0.01,-0.08,1.04,1.53,9.7,4.21,882.73,30.75
5161771,0.0,-0.09,1.06,1.22,9.46,4.03,882.72,30.76
5161847,-0.01,-0.08,1.05,0.67,10.25,3.91,882.74,30.72
5161885,-0.01,-0.08,1.07,0.67,9.89,3.78,882.74,30.74
5161923,-0.01,-0.08,1.09,0.37,9.7,3.66,882.81,30.74
5162012,0.0,-0.07,1.14,-0.18,9.77,3.54,882.79,30.71
5162051,-0.01,-0.08,1.12,-0.37,9.58,3.23,882.73,30.72
5162089,-0.02,-0.08,1.13,-0.49,9.28,3.36,882.8,30.74
5162127,-0.02,-0.08,1.12,-0.67,9.89,3.42,882.79,30.73
5162165,-0.02,-0.07,1.13,-0.79,9.09,3.11,882.81,30.71
5162203,-0.01,-0.06,1.19,-0.79,8.85,3.36,882.84,30.72
5162241,-0.02,-0.07,1.18,-0.67,8.61,3.05,882.86,30.72
5162291,-0.02,-0.07,1.23,-0.61,7.39,3.11,882.83,30.71
5162329,-0.01,-0.07,1.23,-0.49,7.14,2.99,882.78,30.73
5162367,0.0,-0.07,1.21,-0.49,6.96,2.87,882.86,30.73
5162405,-0.0,-0.06,1.27,-0.37,5.98,2.87,882.85,30.73
5162443,-0.0,-0.07,1.29,-0.18,6.47,2.69,882.78,30.71
5162482,-0.01,-0.07,1.26,0.0,6.35,2.5,882.83,30.74
5162520,-0.01,-0.07,1.28,0.37,5.07,2.38,882.83,30.74
5162558,0.0,-0.07,1.22,0.06,6.04,2.26,882.82,30.74
5162596,-0.01,-0.06,1.23,0.55,5.86,2.14,882.85,30.74
5162634,-0.0,-0.08,1.2,0.98,6.29,1.83,882.82,30.73
5162684,-0.02,-0.07,1.19,1.16,5.62,1.77,882.82,30.74
5162722,-0.02,-0.07,1.17,1.34,5.68,1.71,882.83,30.74
5162760,-0.0,-0.08,1.16,1.53,5.92,1.46,882.85,30.74
5162798,0.0,-0.08,1.11,1.59,6.16,1.16,882.81,30.74
5162836,0.0,-0.07,1.12,1.77,5.25,1.1,882.84,30.76
5162874,0.0,-0.09,1.05,1.77,5.8,0.98,882.85,30.77
5162912,0.0,-0.08,0.99,1.83,5.49,0.79,882.81,30.75
5162951,-0.02,-0.08,0.99,2.14,5.37,0.49,882.81,30.74
5162989,-0.01,-0.09,0.94,2.14,5.19,0.49,882.83,30.75
5163039,-0.0,-0.09,0.91,1.95,5.98,0.06,882.83,30.73
5163077,0.02,-0.08,0.87,1.65,5.07,-0.06,882.88,30.76
5163115,0.01,-0.09,0.9,1.22,4.76,-0.06,882.71,30.73
5163153,0.01,-0.1,0.91,0.79,4.03,-0.31,882.73,30.75
5163191,-0.01,-0.09,0.93,0.37,3.3,-0.49,882.73,30.73
5163229,0.0,-0.09,0.93,0.31,3.05,-0.43,882.8,30.74
5163267,-0.01,-0.08,0.93,-0.06,2.69,-0.79,882.74,30.75
5163305,-0.01,-0.09,0.95,-0.12,3.05,-0.98,882.7,30.74
5163343,-0.02,-0.09,0.96,-0.06,3.3,-1.16,882.79,30.76
5163382,-0.03,-0.09,0.89,-0.18,3.3,-1.22,882.74,30.75
5163432,-0.03,-0.08,1.01,-0.06,2.69,-1.34,882.71,30.73
5163470,-0.03,-0.08,0.99,0.12,3.23,-1.59,882.79,30.75
5163508,-0.04,-0.08,1.01,0.18,3.54,-1.46,882.8,30.75
5163546,-0.04,-0.09,1.02,1.1,4.27,-1.65,882.7,30.74
5163584,-0.05,-0.08,0.97,1.28,4.58,-1.65,882.74,30.75
5163622,-0.02,-0.07,1.01,0.98,5.62,-1.59,882.75,30.75
5163660,-0.03,-0.08,1.01,0.79,6.04,-1.71,882.75,30.74
5163698,-0.05,-0.08,1.11,1.1,5.25,-1.65,882.7,30.74
5163736,-0.04,-0.09,1.08,1.04,4.64,-1.59,882.78,30.74
5163786,-0.05,-0.07,1.1,0.73,3.85,-1.4,882.75,30.73
5163824,-0.04,-0.07,1.07,1.04,3.48,-1.34,882.71,30.73
5163862,-0.05,-0.08,1.03,0.73,3.36,-1.46,882.65,30.75
5163900,-0.05,-0.07,1.09,1.1,2.62,-1.46,882.7,30.74
5163939,-0.03,-0.09,1.09,1.46,2.99,-1.4,882.64,30.73
5163977,-0.06,-0.08,1.05,1.28,3.54,-1.1,882.67,30.74
5164015,-0.07,-0.07,1.11,1.4,3.11,-1.16,882.64,30.74
5164053,-0.06,-0.09,1.05,1.34,3.36,-0.85,882.66,30.75
5164091,-0.07,-0.08,1.12,1.34,2.75,-0.73,882.67,30.74
5164129,-0.06,-0.08,1.11,1.46,3.91,-0.73,882.64,30.75
5164179,-0.08,-0.07,1.11,1.59,2.81,-0.61,882.67,30.74
5164217,-0.07,-0.08,1.11,1.65,4.09,-0.43,882.66,30.76
5164255,-0.06,-0.09,1.05,1.77,3.66,-0.49,882.61,30.75
5164294,-0.07,-0.08,1.11,1.83,3.23,-0.37,882.54,30.75
5164332,-0.05,-0.09,1.09,1.71,3.48,-0.24,882.58,30.75
5164370,-0.06,-0.07,1.09,1.4,3.72,-0.12,882.56,30.75
5164408,-0.08,-0.07,1.07,1.34,3.91,0.0,882.54,30.76
5164446,-0.09,-0.09,1.04,0.98,4.82,0.12,882.57,30.75
5164484,-0.05,-0.09,1.04,0.98,5.43,0.18,882.59,30.75
5164534,-0.07,-0.08,1.01,1.22,6.41,0.49,882.67,30.76
5164572,-0.06,-0.09,0.97,0.98,7.32,0.61,882.58,30.75
5164610,-0.06,-0.08,0.95,1.16,7.87,0.37,882.55,30.75
5164649,-0.06,-0.09,0.91,1.16,8.12,0.79,882.59,30.76
5164687,-0.04,-0.1,0.87,0.79,7.45,0.85,882.55,30.75
5164725,-0.06,-0.08,0.85,0.55,7.87,0.73,882.56,30.75
5164763,-0.04,-0.08,0.9,0.31,6.41,1.04,882.55,30.75
5164801,-0.03,-0.1,0.89,0.31,6.29,0.92,882.59,30.76
5164839,-0.06,-0.08,0.88,-0.06,6.04,0.85,882.53,30.75
5164877,-0.03,-0.09,0.9,-0.24,5.8,1.04,882.56,30.76
5164955,-0.05,-0.08,0.94,-0.24,4.76,0.98,882.49,30.73
5164993,-0.04,-0.09,0.93,-0.31,4.64,1.22,882.45,30.73
5165031,-0.04,-0.07,1.05,-0.43,3.17,1.1,882.46,30.73
5165121,-0.05,-0.08,1.18,-0.12,2.38,1.34,882.47,30.7
5165159,-0.05,-0.08,1.19,-0.37,3.54,1.34,882.48,30.72
5165197,-0.05,-0.07,1.2,-0.06,2.87,1.34,882.55,30.72
5165235,-0.05,-0.08,1.19,0.31,3.3,1.4,882.53,30.74
5165274,-0.03,-0.08,1.12,0.55,3.6,1.04,882.54,30.73
5165312,-0.04,-0.08,1.13,0.98,3.42,1.22,882.48,30.73
5165362,-0.03,-0.09,1.06,1.28,3.11,1.1,882.5,30.72
5165400,-0.06,-0.08,1.05,1.46,3.23,1.04,882.43,30.72
5165438,-0.05,-0.09,1.05,1.4,4.03,1.22,882.46,30.73
5165476,-0.05,-0.09,1.07,1.4,5.13,1.16,882.39,30.73
5165514,-0.06,-0.08,1.06,1.59,6.65,1.04,882.46,30.74
5165552,-0.07,-0.08,1.06,2.08,8.85,1.16,882.35,30.73
5165590,-0.05,-0.08,1.1,2.5,10.13,1.28,882.35,30.74
5165629,-0.06,-0.09,1.06,2.81,12.63,1.34,882.34,30.74
5165667,-0.05,-0.07,1.08,3.05,14.77,1.53,882.31,30.75
5165705,-0.06,-0.09,1.03,3.42,16.11,1.65,882.34,30.75
5165755,-0.04,-0.08,1.03,3.72,16.17,1.83,882.31,30.75
5165793,-0.06,-0.08,1.01,3.85,16.78,2.01,882.32,30.76
5165831,-0.04,-0.09,1.02,3.97,17.64,2.14,882.28,30.76
5165869,-0.03,-0.09,1.03,4.15,17.82,2.44,882.24,30.77
5165907,-0.03,-0.08,1.04,4.15,17.94,2.69,882.21,30.76
5165945,-0.04,-0.09,1.02,4.21,18.07,2.69,882.28,30.79
5165984,-0.04,-0.08,1.05,4.21,17.94,2.81,882.22,30.76
5166022,-0.02,-0.09,1.03,4.27,18.49,2.87,882.22,30.76
5166060,-0.03,-0.08,1.05,4.03,18.13,3.05,882.21,30.76
5166098,-0.04,-0.08,1.08,3.97,18.8,3.17,882.17,30.75
5166148,-0.04,-0.07,1.1,3.72,18.31,3.3,882.22,30.75
5166186,-0.03,-0.08,1.07,3.42,17.4,3.36,882.2,30.77
5166224,-0.03,-0.07,1.12,3.05,16.17,3.54,882.16,30.77
5166262,-0.03,-0.08,1.08,2.75,16.24,3.72,882.26,30.76
5166300,-0.02,-0.07,1.1,2.32,13.85,3.97,882.22,30.77
5166339,-0.02,-0.08,1.15,2.38,13.79,3.91,882.19,30.76
5166377,-0.02,-0.08,1.09,2.14,12.88,4.15,882.18,30.76
5166415,-0.02,-0.06,1.14,2.38,12.76,4.21,882.21,30.77
5166453,-0.01,-0.09,1.07,3.23,12.7,4.09,882.27,30.75
5166503,-0.02,-0.07,1.03,3.42,11.47,4.46,882.13,30.74
5166541,-0.02,-0.11,0.93,3.97,12.63,4.27,882.17,30.74
5166579,-0.01,-0.08,0.84,3.78,12.15,4.15,882.17,30.75
5166618,-0.03,-0.07,0.9,3.85,11.41,4.09,882.17,30.75
5166656,0.01,-0.1,0.82,3.85,12.39,4.15,882.09,30.74
5166694,0.02,-0.08,0.84,3.3,11.84,3.97,882.1,30.75
5166732,-0.02,-0.09,0.81,3.3,12.08,3.78,882.12,30.75
5166770,0.01,-0.1,0.78,2.93,12.21,3.6,882.1,30.74
5166808,0.03,-0.1,0.8,2.5,12.02,3.36,882.07,30.76
5166847,0.02,-0.09,0.77,2.32,11.72,3.11,882.08,30.75
5166896,0.02,-0.09,0.77,1.89,11.23,2.99,882.02,30.75
5166935,0.05,-0.1,0.78,1.83,10.8,2.62,881.99,30.73
5166973,0.03,-0.1,0.81,1.53,10.13,2.2,882.08,30.75
5167011,0.02,-0.1,0.78,1.4,10.13,1.95,881.99,30.74
5167049,0.04,-0.09,0.8,1.46,9.58,1.53,882.02,30.75
5167087,0.03,-0.1,0.78,1.16,10.07,0.98,882.05,30.76
5167125,0.03,-0.1,0.78,0.98,9.89,0.92,882.05,30.75
5167163,0.03,-0.09,0.84,0.92,10.25,0.61,882.02,30.75
5167201,0.02,-0.1,0.81,0.67,9.95,0.18,882.01,30.75
5167251,0.01,-0.09,0.89,0.37,9.34,0.0,882.04,30.74
5167289,0.04,-0.1,0.9,0.55,10.19,-0.31,881.93,30.73
5167328,0.03,-0.09,0.92,0.31,9.7,-0.55,881.99,30.75
5167366,0.02,-0.08,0.92,0.43,10.44,-0.55,882.01,30.74
5167404,0.04,-0.11,0.91,0.37,10.25,-0.98,881.98,30.75
5167442,0.05,-0.09,0.91,-0.06,11.47,-1.34,882.04,30.76
5167480,0.04,-0.09,0.9,-0.31,11.66,-1.53,881.93,30.75
5167518,0.03,-0.09,0.88,-0.73,12.39,-1.89,882.03,30.76
5167556,0.04,-0.09,0.89,-1.1,12.39,-2.14,881.98,30.75
5167595,0.05,-0.1,0.9,-1.4,11.54,-2.38,881.93,30.74
5167644,0.05,-0.09,0.94,-2.2,10.19,-2.93,881.93,30.73
5167683,0.04,-0.09,0.97,-2.44,9.89,-3.42,881.94,30.73
5167721,0.04,-0.1,1.0,-2.87,8.54,-3.42,881.95,30.75
5167759,0.03,-0.09,1.06,-3.42,7.32,-3.72,881.93,30.75
5167797,0.02,-0.08,1.07,-3.72,6.35,-4.03,882.02,30.76
5167835,0.02,-0.08,1.11,-4.09,5.43,-4.21,881.94,30.74
5167873,0.01,-0.07,1.16,-4.09,5.0,-4.46,882.01,30.75
5167912,0.0,-0.08,1.15,-4.21,5.86,-4.7,881.91,30.75
5167950,0.0,-0.06,1.25,-3.91,5.62,-5.0,881.95,30.75
5168026,0.0,-0.06,1.3,-3.91,7.08,-5.37,881.95,30.72
5168064,-0.0,-0.07,1.31,-3.85,8.42,-5.55,882.03,30.74
5168102,0.0,-0.06,1.31,-3.54,7.69,-5.92,881.99,30.74
5168191,-0.01,-0.06,1.34,-2.93,7.45,-5.98,881.95,30.7
5168230,-0.0,-0.06,1.34,-2.56,8.12,-6.29,881.96,30.72
5168268,-0.02,-0.05,1.3,-2.08,7.93,-6.23,881.95,30.73
5168306,-0.01,-0.05,1.31,-2.14,7.81,-6.53,881.94,30.73
5168344,-0.02,-0.06,1.29,-1.59,7.63,-6.59,881.96,30.74
5168382,-0.02,-0.06,1.28,-1.59,7.39,-6.53,881.95,30.74
5168420,-0.01,-0.06,1.26,-1.65,7.63,-6.65,882.05,30.75
5168470,-0.01,-0.07,1.23,-1.4,7.69,-6.65,882.0,30.73
5168508,-0.0,-0.06,1.23,-1.46,7.63,-6.9,881.92,30.73
5168547,-0.01,-0.06,1.25,-1.4,7.69,-6.9,881.91,30.74
5168585,-0.01,-0.07,1.2,-1.53,7.51,-6.96,881.96,30.74
5168623,-0.02,-0.06,1.22,-1.53,7.14,-6.96,881.87,30.75
5168661,-0.02,-0.07,1.17,-1.59,7.63,-7.14,881.89,30.74
5168699,-0.02,-0.06,1.16,-1.77,6.59,-6.84,881.88,30.74
5168737,-0.03,-0.07,1.14,-1.53,6.84,-7.02,881.92,30.75
5168775,-0.02,-0.07,1.14,-1.83,6.23,-6.96,881.83,30.75
5168825,-0.02,-0.06,1.17,-1.59,6.41,-7.08,881.9,30.75
5168863,-0.02,-0.07,1.14,-1.65,5.98,-7.02,881.87,30.74
5168902,-0.02,-0.06,1.15,-1.77,6.29,-7.14,881.85,30.74
5168940,-0.03,-0.07,1.11,-1.65,6.16,-7.08,881.83,30.74
5168978,-0.03,-0.06,1.15,-1.83,5.25,-6.9,881.87,30.76
5169016,-0.02,-0.06,1.11,-1.65,5.86,-7.08,881.79,30.75
5169054,-0.03,-0.07,1.11,-1.83,5.13,-6.9,881.84,30.74
5169092,-0.04,-0.06,1.13,-1.77,5.37,-6.96,881.83,30.74
5169131,-0.03,-0.07,1.12,-1.77,5.31,-7.08,881.86,30.76
5169181,-0.03,-0.06,1.12,-1.59,5.31,-7.02,881.81,30.73
5169219,-0.04,-0.06,1.12,-1.77,5.55,-6.84,881.8,30.73
5169257,-0.03,-0.07,1.1,-1.77,5.62,-6.9,881.8,30.74
5169295,-0.03,-0.06,1.1,-1.95,5.13,-6.96,881.78,30.74
5169333,-0.03,-0.05,1.12,-2.01,4.64,-6.9,881.75,30.73
5169371,-0.04,-0.06,1.09,-1.89,5.0,-6.71,881.8,30.73
5169410,-0.02,-0.06,1.12,-1.83,4.88,-6.71,881.75,30.74
5169448,-0.04,-0.06,1.1,-1.71,5.37,-6.71,881.76,30.74
5169486,-0.04,-0.06,1.1,-1.89,5.55,-6.53,881.78,30.74
5169536,-0.04,-0.06,1.12,-1.53,5.98,-6.65,881.73,30.72
5169574,-0.04,-0.06,1.09,-1.59,6.16,-6.71,881.71,30.73
5169612,-0.05,-0.06,1.1,-1.71,6.23,-6.59,881.71,30.73
5169650,-0.03,-0.06,1.1,-1.4,6.35,-6.59,881.71,30.74
5169688,-0.03,-0.06,1.11,-1.53,6.16,-6.53,881.72,30.74
5169726,-0.04,-0.06,1.1,-1.53,5.92,-6.23,881.73,30.74
5169765,-0.05,-0.06,1.08,-1.4,5.68,-6.1,881.7,30.73
5169803,-0.04,-0.06,1.05,-1.34,5.62,-6.16,881.66,30.73
5169841,-0.04,-0.05,1.07,-1.4,4.58,-5.98,881.67,30.74
5169879,-0.05,-0.06,1.03,-1.28,4.76,-5.98,881.68,30.74
5169929,-0.04,-0.06,1.05,-1.53,4.39,-5.74,881.66,30.72
5169967,-0.05,-0.07,1.02,-1.4,4.39,-5.74,881.64,30.74
5170005,-0.04,-0.05,1.05,-1.46,3.97,-5.62,881.65,30.74
5170043,-0.05,-0.05,1.03,-1.59,4.27,-5.55,881.65,30.74
5170082,-0.04,-0.06,1.03,-1.59,4.03,-5.55,881.65,30.74
5170120,-0.05,-0.06,1.0,-1.59,4.39,-5.43,881.68,30.75
5170158,-0.04,-0.06,0.99,-1.4,4.21,-5.31,881.67,30.74
5170196,-0.04,-0.07,1.01,-1.65,5.13,-5.31,881.64,30.74
5170234,-0.04,-0.06,1.0,-1.65,5.68,-5.62,881.64,30.75
5170284,-0.05,-0.06,1.04,-1.53,7.32,-5.37,881.61,30.73
5170322,-0.05,-0.06,1.07,-1.71,8.12,-5.49,881.57,30.74
5170360,-0.05,-0.05,1.09,-1.59,8.85,-5.43,881.61,30.74
5170398,-0.05,-0.05,1.11,-1.65,9.7,-5.74,881.54,30.75
5170436,-0.05,-0.05,1.13,-1.46,10.99,-5.49,881.54,30.76
5170475,-0.04,-0.05,1.15,-1.16,11.47,-5.37,881.53,30.74
5170513,-0.05,-0.05,1.17,-1.16,11.35,-5.43,881.56,30.75
5170551,-0.06,-0.04,1.18,-1.04,11.9,-5.37,881.5,30.74
5170589,-0.04,-0.05,1.18,-1.04,11.6,-5.25,881.55,30.75
5170639,-0.03,-0.03,1.18,-0.67,12.39,-5.13,881.54,30.73
5170677,-0.04,-0.04,1.14,-0.61,12.08,-5.07,881.52,30.75
5170715,-0.05,-0.04,1.16,-0.73,12.21,-5.0,881.49,30.74
5170753,-0.03,-0.05,1.14,-0.55,11.96,-4.94,881.48,30.74
5170792,-0.03,-0.05,1.12,-0.61,11.6,-4.82,881.49,30.75
5170830,-0.04,-0.05,1.09,-0.73,10.93,-4.76,881.49,30.73
5170868,-0.03,-0.05,1.08,-1.04,10.19,-4.94,881.46,30.73
5170906,-0.02,-0.05,1.08,-1.1,9.58,-4.7,881.47,30.73
5170944,-0.02,-0.05,1.06,-1.46,8.3,-4.82,881.44,30.75
5170982,-0.03,-0.06,1.04,-1.46,7.87,-4.64,881.5,30.75
5171058,-0.03,-0.06,1.04,-1.95,6.71,-4.64,881.44,30.72
5171096,-0.02,-0.06,1.02,-2.32,6.23,-4.82,881.38,30.72
5171135,-0.02,-0.06,1.0,-2.81,5.07,-4.88,881.44,30.75
5171224,-0.02,-0.06,1.03,-3.72,4.03,-5.13,881.42,30.7
5171262,-0.0,-0.05,1.06,-4.09,3.42,-5.25,881.43,30.72
5171300,-0.03,-0.05,1.06,-4.21,3.17,-5.31,881.39,30.73
5171339,-0.01,-0.06,1.03,-4.7,2.93,-5.55,881.38,30.72
5171377,-0.03,-0.05,1.09,-5.0,2.5,-5.74,881.36,30.72
5171415,-0.02,-0.06,1.05,-5.19,2.38,-5.68,881.4,30.74
5171465,-0.03,-0.04,1.11,-5.55,1.65,-5.86,881.35,30.71
5171503,-0.03,-0.05,1.1,-5.62,2.32,-6.04,881.42,30.72
5171541,-0.02,-0.04,1.14,-5.74,1.28,-6.16,881.31,30.72
5171579,-0.03,-0.04,1.17,-5.68,1.4,-6.29,881.37,30.73
5171617,-0.03,-0.04,1.17,-5.74,1.28,-6.29,881.35,30.72
5171655,-0.03,-0.03,1.19,-5.62,1.28,-6.41,881.31,30.71
5171694,-0.03,-0.03,1.2,-5.49,1.65,-6.35,881.4,30.74
5171732,-0.03,-0.03,1.22,-5.37,1.46,-6.65,881.36,30.73
5171770,-0.03,-0.03,1.22,-5.07,1.95,-6.65,881.42,30.72
5171820,-0.02,-0.02,1.23,-4.7,1.89,-6.84,881.4,30.72
5171858,-0.02,-0.03,1.22,-4.46,2.5,-7.2,881.4,30.73
5171896,-0.02,-0.03,1.22,-4.27,2.56,-7.14,881.4,30.73
5171934,-0.02,-0.03,1.22,-3.97,2.62,-7.32,881.43,30.74
5171972,-0.03,-0.03,1.19,-3.91,2.99,-7.51,881.4,30.74
5172010,-0.03,-0.03,1.18,-3.66,3.05,-7.57,881.37,30.73
5172049,-0.02,-0.03,1.17,-3.6,3.11,-7.87,881.41,30.74
5172087,-0.01,-0.03,1.15,-3.66,3.42,-7.93,881.4,30.73
5172125,-0.02,-0.04,1.13,-3.6,3.54,-8.12,881.46,30.74
5172175,-0.03,-0.03,1.16,-3.66,3.36,-8.3,881.4,30.72
5172213,-0.02,-0.03,1.15,-3.6,3.66,-8.48,881.48,30.74
5172251,-0.02,-0.02,1.17,-3.66,3.85,-8.67,881.33,30.72
5172289,-0.02,-0.03,1.16,-3.72,4.15,-8.54,881.35,30.72
5172328,-0.02,-0.03,1.15,-3.78,3.78,-8.85,881.43,30.72
5172366,-0.03,-0.02,1.16,-3.72,4.09,-8.85,881.43,30.74
5172404,-0.03,-0.02,1.16,-3.72,3.72,-8.97,881.43,30.73
5172442,-0.03,-0.02,1.17,-3.72,4.15,-8.85,881.43,30.74
5172480,-0.03,-0.02,1.16,-3.66,4.27,-8.97,881.45,30.73
5172519,-0.03,-0.02,1.16,-3.3,4.27,-9.16,881.42,30.74
5172569,-0.03,-0.02,1.15,-3.3,4.33,-9.09,881.44,30.73
5172607,-0.03,-0.02,1.15,-3.23,4.39,-9.22,881.42,30.73
5172645,-0.03,-0.02,1.16,-3.17,4.09,-9.16,881.45,30.73
5172683,-0.03,-0.03,1.14,-3.36,4.33,-9.03,881.45,30.74
5172721,-0.04,-0.03,1.12,-3.36,4.27,-9.22,881.45,30.75
5172759,-0.03,-0.02,1.14,-3.6,3.66,-9.34,881.49,30.74
5172798,-0.03,-0.03,1.12,-3.6,3.66,-9.22,881.44,30.74
5172836,-0.03,-0.03,1.12,-3.72,3.85,-9.28,881.48,30.74
5172874,-0.04,-0.03,1.13,-3.72,4.15,-9.34,881.49,30.75
5172924,-0.03,-0.02,1.12,-3.54,3.78,-9.16,881.45,30.73
5172962,-0.04,-0.02,1.14,-3.42,3.72,-9.34,881.47,30.75
5173000,-0.04,-0.02,1.14,-3.54,3.78,-9.22,881.43,30.74
5173038,-0.04,-0.02,1.15,-3.6,3.54,-9.22,881.48,30.75
5173076,-0.04,-0.02,1.14,-3.3,3.78,-9.4,881.48,30.75
5173114,-0.04,-0.02,1.13,-3.42,3.54,-9.16,881.5,30.75
5173153,-0.03,-0.02,1.14,-3.42,3.78,-9.28,881.52,30.74
5173191,-0.04,-0.02,1.14,-3.42,3.48,-9.34,881.42,30.75
5173229,-0.05,-0.02,1.15,-3.17,2.99,-9.16,881.48,30.75
5173279,-0.05,-0.02,1.14,-3.3,3.23,-9.22,881.48,30.74
5173317,-0.04,-0.02,1.14,-3.3,2.93,-9.28,881.47,30.74
5173355,-0.05,-0.02,1.13,-3.11,3.05,-9.16,881.52,30.75
5173393,-0.04,-0.02,1.13,-3.3,3.17,-9.28,881.45,30.74
5173431,-0.05,-0.02,1.11,-3.23,3.05,-9.28,881.49,30.75
5173470,-0.05,-0.02,1.11,-3.17,2.81,-9.09,881.46,30.74
5173508,-0.06,-0.02,1.12,-3.17,2.75,-9.03,881.52,30.74
5173546,-0.05,-0.02,1.12,-2.99,2.87,-8.91,881.47,30.74
5173584,-0.05,-0.01,1.13,-2.87,2.5,-8.91,881.53,30.75
5173622,-0.05,-0.02,1.11,-2.75,2.5,-8.91,881.52,30.74
5173672,-0.05,-0.02,1.09,-2.75,1.77,-8.79,881.57,30.74
5173710,-0.04,-0.02,1.11,-2.75,1.1,-8.61,881.53,30.74
5173748,-0.05,-0.02,1.06,-2.69,0.61,-8.54,881.54,30.76
5173786,-0.05,-0.02,1.06,-2.62,0.43,-8.61,881.51,30.74
5173825,-0.04,-0.02,1.07,-2.5,0.0,-8.61,881.47,30.75
5173863,-0.04,-0.03,1.05,-2.87,-0.43,-8.67,881.51,30.76
5173901,-0.04,-0.02,1.06,-2.69,-0.31,-8.61,881.51,30.74
5173939,-0.05,-0.02,1.06,-2.81,0.18,-8.73,881.56,30.75
5173977,-0.05,-0.02,1.09,-2.93,0.06,-8.79,881.57,30.76
5174053,-0.06,-0.02,1.09,-2.93,0.92,-8.61,881.57,30.71
5174091,-0.06,-0.01,1.09,-2.81,1.46,-8.73,881.53,30.74
5174129,-0.06,-0.02,1.1,-2.69,1.34,-8.79,881.57,30.73
5174219,-0.05,-0.02,1.11,-2.5,1.59,-8.36,881.58,30.71
5174257,-0.06,-0.02,1.1,-2.56,1.59,-8.36,881.61,30.72
5174295,-0.06,-0.01,1.09,-2.38,1.83,-8.36,881.64,30.72
5174333,-0.06,-0.02,1.07,-2.32,1.77,-8.36,881.59,30.72
5174371,-0.05,-0.02,1.08,-2.38,1.83,-8.3,881.6,30.73
5174410,-0.06,-0.02,1.07,-2.26,1.65,-8.18,881.64,30.73
5174459,-0.06,-0.01,1.08,-2.26,1.83,-8.06,881.71,30.72
5174497,-0.05,-0.02,1.09,-2.26,1.71,-7.93,881.66,30.74
5174536,-0.05,-0.02,1.09,-2.2,1.4,-8.06,881.69,30.74
5174574,-0.06,-0.02,1.07,-2.2,1.22,-7.75,881.67,30.73
5174612,-0.06,-0.02,1.08,-2.08,1.22,-7.75,881.71,30.74
5174650,-0.06,-0.02,1.06,-2.2,0.61,-7.93,881.68,30.75
5174688,-0.06,-0.02,1.07,-2.14,0.43,-7.69,881.64,30.75
5174726,-0.06,-0.02,1.07,-1.95,0.37,-7.75,881.65,30.74
5174764,-0.06,-0.02,1.06,-2.2,0.18,-7.69,881.69,30.74
5174803,-0.07,-0.02,1.08,-2.08,0.37,-7.63,881.68,30.74
5174852,-0.07,-0.02,1.08,-2.08,0.67,-7.57,881.68,30.73
5174891,-0.07,-0.02,1.09,-1.89,1.04,-7.39,881.8,30.75
5174929,-0.07,-0.02,1.08,-1.89,1.1,-7.45,881.79,30.75
5174967,-0.07,-0.02,1.1,-1.77,1.1,-7.32,881.77,30.75
5175005,-0.07,-0.02,1.07,-1.65,0.79,-7.2,881.71,30.75
5175043,-0.07,-0.03,1.05,-1.71,0.31,-6.9,881.82,30.76
5175081,-0.08,-0.03,1.03,-1.53,0.61,-6.84,881.84,30.74
5175120,-0.07,-0.03,1.02,-1.46,0.61,-6.65,881.8,30.74
5175158,-0.06,-0.03,1.03,-1.4,0.55,-6.47,881.78,30.74
5175208,-0.08,-0.03,1.0,-1.22,0.92,-6.1,881.8,30.74
5175246,-0.07,-0.04,1.01,-1.16,1.65,-6.29,881.89,30.75
5175284,-0.07,-0.03,1.04,-1.53,1.46,-6.1,881.91,30.75
5175322,-0.07,-0.02,1.04,-1.65,2.08,-5.98,881.93,30.74
5175360,-0.07,-0.02,1.04,-1.65,2.32,-5.98,881.95,30.75
5175399,-0.08,-0.03,1.07,-1.77,2.99,-5.8,881.95,30.74
5175437,-0.06,-0.03,1.08,-1.83,3.17,-5.62,881.94,30.74
5175475,-0.06,-0.02,1.11,-1.95,3.42,-5.55,881.94,30.74
5175513,-0.07,-0.02,1.1,-1.77,3.78,-5.43,881.99,30.74
5175563,-0.06,-0.02,1.12,-1.65,3.85,-5.31,881.97,30.73
5175601,-0.06,-0.03,1.1,-1.59,4.03,-5.19,882.02,30.74
5175639,-0.06,-0.02,1.11,-1.59,3.6,-5.0,881.99,30.73
5175677,-0.05,-0.02,1.1,-1.71,3.72,-4.7,882.06,30.73
5175715,-0.06,-0.02,1.11,-1.65,3.72,-4.76,882.0,30.73
5175754,-0.06,-0.03,1.09,-1.71,4.09,-4.76,882.09,30.75
5175792,-0.06,-0.03,1.1,-1.77,3.48,-4.52,882.04,30.74
5175830,-0.06,-0.03,1.08,-1.89,3.91,-4.46,882.12,30.75
5175868,-0.05,-0.02,1.09,-2.2,3.48,-4.27,882.13,30.75
5175918,-0.06,-0.03,1.08,-2.44,3.97,-4.33,882.14,30.74
5175956,-0.05,-0.03,1.13,-2.38,3.54,-4.39,882.15,30.75
5175994,-0.04,-0.03,1.14,-2.75,3.78,-4.27,882.2,30.74
5176032,-0.05,-0.03,1.12,-2.69,4.21,-4.03,882.23,30.74
5176070,-0.05,-0.03,1.12,-2.62,4.52,-4.03,882.22,30.75
5176109,-0.05,-0.03,1.11,-2.75,4.58,-3.97,882.16,30.73
5176147,-0.04,-0.03,1.12,-2.75,4.76,-3.91,882.13,30.74
5176185,-0.05,-0.03,1.13,-2.75,5.13,-4.09,882.25,30.75
5176223,-0.05,-0.02,1.15,-2.75,4.82,-3.72,882.26,30.74
5176261,-0.04,-0.02,1.17,-2.75,5.07,-3.66,882.25,30.75
5176311,-0.04,-0.02,1.18,-3.05,5.55,-3.66,882.25,30.73
5176349,-0.04,-0.02,1.21,-2.87,5.49,-3.66,882.3,30.75
5176387,-0.05,-0.02,1.2,-3.05,5.92,-3.54,882.31,30.75
5176425,-0.04,-0.01,1.2,-3.05,5.86,-3.66,882.26,30.74
5176463,-0.04,-0.01,1.22,-3.05,6.16,-3.48,882.34,30.74
5176502,-0.04,-0.01,1.22,-2.87,6.29,-3.36,882.35,30.75
5176540,-0.04,-0.01,1.21,-2.87,6.35,-3.36,882.33,30.75
5176578,-0.04,-0.01,1.21,-2.81,5.98,-3.36,882.35,30.75
5176616,-0.04,-0.02,1.21,-2.81,6.04,-3.11,882.4,30.76
5176666,-0.03,-0.02,1.22,-2.69,5.68,-2.93,882.32,30.74
5176704,-0.03,-0.02,1.22,-2.56,5.49,-2.87,882.39,30.75
5176742,-0.03,-0.02,1.21,-2.56,5.74,-2.62,882.42,30.75
5176780,-0.03,-0.01,1.22,-2.56,5.62,-2.81,882.38,30.75
5176819,-0.03,-0.02,1.2,-2.56,5.55,-2.56,882.42,30.74
5176857,-0.03,-0.02,1.2,-2.62,5.07,-2.69,882.43,30.75
5176895,-0.03,-0.02,1.19,-2.56,5.19,-2.69,882.41,30.76
5176933,-0.02,-0.02,1.18,-2.69,5.0,-2.5,882.47,30.77
5176971,-0.02,-0.02,1.2,-2.62,4.64,-2.56,882.49,30.76
5177047,-0.02,-0.02,1.19,-2.62,4.52,-2.56,882.46,30.72
5177085,-0.03,-0.02,1.19,-2.75,4.88,-2.62,882.52,30.75
5177123,-0.02,-0.03,1.19,-3.05,4.15,-2.69,882.5,30.75
5177213,-0.02,-0.02,1.19,-2.81,3.97,-2.62,882.49,30.7
5177251,-0.02,-0.02,1.21,-2.93,3.54,-2.62,882.49,30.72
5177289,-0.02,-0.02,1.21,-2.93,3.36,-2.5,882.55,30.72
5177328,-0.03,-0.02,1.2,-2.87,3.42,-2.62,882.53,30.73
5177366,-0.01,-0.02,1.21,-2.87,2.81,-2.69,882.58,30.73
5177404,-0.02,-0.01,1.23,-2.87,2.99,-2.69,882.54,30.74
5177442,-0.01,-0.01,1.24,-2.69,2.99,-2.69,882.58,30.74
5177492,-0.01,-0.01,1.25,-2.93,3.48,-2.93,882.58,30.73
5177530,-0.02,-0.01,1.27,-2.75,3.72,-2.99,882.55,30.73
5177568,-0.01,-0.01,1.29,-2.62,4.46,-3.05,882.6,30.74
5177606,-0.01,-0.02,1.29,-2.32,4.52,-3.11,882.59,30.74
5177644,-0.02,-0.01,1.27,-2.14,4.64,-3.3,882.64,30.74
5177682,-0.0,-0.02,1.24,-2.2,5.0,-3.42,882.68,30.74
5177721,-0.01,-0.01,1.24,-2.2,4.88,-3.48,882.71,30.74
5177759,-0.0,-0.02,1.22,-1.83,4.82,-3.54,882.61,30.74
5177797,0.0,-0.02,1.22,-2.01,4.27,-3.54,882.7,30.74
5177847,-0.01,-0.03,1.2,-1.71,4.15,-3.85,882.63,30.73
5177885,-0.01,-0.03,1.2,-1.77,4.46,-3.78,882.66,30.73
5177923,-0.0,-0.03,1.2,-1.89,4.21,-3.91,882.72,30.72
5177961,-0.01,-0.03,1.2,-1.89,3.91,-3.91,882.68,30.74
5177999,-0.01,-0.02,1.18,-2.01,4.27,-4.15,882.69,30.74
5178037,-0.0,-0.02,1.19,-2.01,4.09,-4.46,882.71,30.74
5178075,-0.01,-0.03,1.16,-2.01,4.03,-4.39,882.73,30.73
5178114,-0.0,-0.03,1.18,-1.83,4.15,-4.52,882.72,30.75
5178152,-0.0,-0.03,1.17,-1.83,4.33,-4.52,882.7,30.76
5178201,-0.0,-0.03,1.16,-1.71,4.46,-4.7,882.73,30.73
5178240,0.0,-0.02,1.16,-1.83,4.21,-4.82,882.73,30.74
5178278,-0.01,-0.03,1.17,-1.77,4.15,-4.82,882.75,30.74
5178316,-0.01,-0.03,1.17,-1.65,4.27,-4.94,882.8,30.74
5178354,0.0,-0.03,1.2,-1.65,4.58,-5.13,882.76,30.75
5178392,0.01,-0.03,1.18,-1.4,5.43,-5.07,882.73,30.73
5178430,0.02,-0.03,1.21,-1.34,5.43,-5.19,882.82,30.75
5178469,0.0,-0.03,1.21,-0.98,5.98,-5.31,882.77,30.73
5178507,0.01,-0.03,1.18,-1.04,5.92,-5.25,882.84,30.75
5178545,-0.0,-0.02,1.22,-1.16,5.92,-5.31,882.8,30.74
5178595,0.01,-0.03,1.21,-1.4,5.92,-5.43,882.78,30.73
5178633,0.0,-0.02,1.25,-1.46,5.68,-5.74,882.81,30.73
5178671,0.0,-0.02,1.24,-1.46,6.16,-5.8,882.78,30.75
5178709,0.01,-0.02,1.26,-1.89,6.1,-5.86,882.78,30.75
5178747,0.0,-0.02,1.24,-1.77,6.59,-5.98,882.81,30.75
5178785,0.0,-0.03,1.22,-2.2,6.71,-6.1,882.79,30.75
5178823,-0.0,-0.03,1.2,-2.08,6.84,-6.1,882.86,30.75
5178862,0.0,-0.03,1.17,-2.01,6.65,-6.16,882.81,30.75
5178900,0.0,-0.03,1.17,-2.32,6.65,-6.47,882.85,30.76
5178949,0.01,-0.03,1.17,-2.01,6.59,-6.65,882.87,30.73
5178988,0.01,-0.0,1.18,-2.2,6.23,-6.77,882.83,30.74
5179026,-0.0,-0.03,1.17,-2.44,6.23,-6.84,882.84,30.76
5179064,-0.0,-0.03,1.16,-2.69,5.55,-6.84,882.88,30.76
5179102,0.0,-0.03,1.16,-2.69,4.88,-7.14,882.87,30.75
5179140,0.0,-0.03,1.15,-2.93,4.21,-7.14,882.85,30.75
5179178,-0.0,-0.02,1.15,-2.99,3.3,-7.14,882.82,30.75
5179216,-0.01,-0.03,1.17,-3.3,2.56,-7.08,882.82,30.75
5179255,-0.01,-0.03,1.18,-3.3,2.01,-7.08,882.86,30.76
5179293,-0.01,-0.03,1.19,-3.23,1.4,-7.14,882.86,30.76
5179343,-0.01,-0.03,1.19,-3.23,0.79,-7.14,882.85,30.74
5179381,-0.01,-0.02,1.19,-3.3,0.67,-7.2,882.84,30.74
5179419,-0.02,-0.02,1.18,-3.42,0.61,-7.51,882.85,30.76
5179457,-0.01,-0.02,1.19,-3.05,0.61,-7.45,882.84,30.75
5179495,-0.02,-0.02,1.2,-3.11,0.37,-7.45,882.86,30.76
5179533,-0.02,-0.02,1.2,-2.81,-0.37,-7.75,882.86,30.76
5179572,-0.03,-0.02,1.21,-2.87,-0.31,-7.69,882.84,30.75
5179610,-0.03,-0.02,1.22,-2.56,-0.43,-7.63,882.75,30.75
5179648,-0.03,-0.02,1.21,-2.32,-0.55,-7.63,882.82,30.75
5179698,-0.05,-0.01,1.21,-2.14,-0.49,-7.57,882.87,30.75
5179736,-0.05,-0.02,1.19,-2.14,-0.79,-7.51,882.75,30.76
5179774,-0.04,-0.02,1.2,-1.83,-1.04,-7.32,882.91,30.76
5179812,-0.04,-0.02,1.19,-1.53,-1.22,-7.2,882.82,30.73
5179850,-0.04,-0.02,1.16,-1.34,-1.34,-7.26,882.84,30.74
5179889,-0.04,-0.02,1.15,-0.98,-1.4,-7.32,882.81,30.74
5179927,-0.05,-0.02,1.12,-0.85,-1.59,-7.32,882.87,30.75
5179965,-0.05,-0.02,1.13,-0.43,-1.89,-7.26,882.8,30.74
5180003,-0.04,-0.03,1.12,-0.24,-1.83,-7.2,882.85,30.74
5180079,-0.05,-0.03,1.09,-0.24,-2.62,-7.02,882.8,30.72
5180117,-0.05,-0.04,1.01,0.0,-2.44,-7.02,882.88,30.72
5180155,-0.03,-0.03,1.01,-0.18,-3.48,-6.96,882.82,30.73
5180244,-0.05,-0.04,0.96,-0.12,-3.42,-6.84,882.84,30.71
5180283,-0.06,-0.04,0.97,0.06,-3.6,-6.96,882.84,30.72
5180321,-0.06,-0.05,0.94,0.0,-3.48,-6.77,882.9,30.72
5180359,-0.05,-0.04,0.96,-0.12,-2.75,-6.65,882.88,30.73
5180397,-0.05,-0.05,0.94,0.0,-1.89,-6.47,882.94,30.74
5180435,-0.05,-0.05,0.96,-0.24,-1.16,-6.53,882.97,30.73
5180485,-0.08,-0.04,0.97,-0.43,-0.06,-6.41,882.92,30.72
5180523,-0.07,-0.04,1.0,-0.37,1.83,-6.41,882.97,30.73
5180561,-0.05,-0.03,1.05,-0.55,2.99,-6.65,882.99,30.75
5180599,-0.06,-0.04,1.08,-0.73,4.21,-6.53,882.96,30.74
5180637,-0.06,-0.04,1.06,-0.98,5.74,-6.41,882.98,30.74
5180675,-0.06,-0.03,1.06,-1.04,6.77,-6.47,882.96,30.75
5180714,-0.06,-0.02,1.07,-1.22,7.26,-6.35,882.99,30.74
5180752,-0.06,-0.03,1.03,-1.34,7.02,-6.04,883.01,30.75
5180790,-0.06,-0.03,1.06,-1.46,7.51,-5.98,882.95,30.73
5180828,-0.06,-0.04,1.04,-1.4,7.69,-5.68,883.01,30.75
5180878,-0.05,-0.03,1.06,-1.53,6.71,-5.43,883.02,30.74
5180916,-0.07,-0.03,1.09,-1.46,5.92,-5.19,883.02,30.73
5180954,-0.05,-0.03,1.12,-1.71,5.62,-5.07,883.01,30.75
5180992,-0.04,-0.02,1.15,-1.65,5.55,-5.0,882.93,30.74
5181030,-0.05,-0.02,1.17,-1.53,4.21,-4.76,883.02,30.75
5181068,-0.07,-0.02,1.16,-1.34,3.17,-4.39,882.94,30.74
5181107,-0.06,-0.02,1.2,-1.04,2.62,-4.52,883.0,30.75
5181145,-0.04,-0.02,1.23,-0.92,1.4,-4.27,882.93,30.75
5181183,-0.04,-0.03,1.23,-0.85,0.61,-4.09,882.95,30.75
5181233,-0.05,-0.02,1.23,-0.49,-0.12,-4.03,882.93,30.74
5181271,-0.04,-0.02,1.22,-0.31,-0.55,-4.15,882.95,30.74
5181309,-0.05,-0.01,1.21,-0.06,-1.16,-3.91,882.93,30.74
5181347,-0.05,-0.02,1.21,0.0,-1.46,-3.91,882.96,30.75
5181385,-0.05,-0.03,1.19,0.12,-1.28,-3.97,882.99,30.75
5181423,-0.04,-0.02,1.22,0.24,-1.77,-3.97,882.92,30.75
5181461,-0.04,-0.02,1.22,0.24,-1.95,-3.97,882.95,30.74
5181500,-0.04,-0.03,1.2,0.37,-2.01,-3.97,882.96,30.75
5181538,-0.04,-0.02,1.21,0.31,-2.2,-3.97,882.94,30.75
5181588,-0.05,-0.03,1.2,0.43,-2.62,-3.97,882.97,30.74
5181626,-0.05,-0.03,1.18,0.12,-2.5,-4.09,882.96,30.75
5181664,-0.04,-0.02,1.15,0.18,-2.38,-4.21,883.05,30.75
5181702,-0.05,-0.03,1.17,0.18,-2.62,-4.09,883.03,30.76
5181740,-0.06,-0.04,1.11,0.18,-2.26,-4.03,883.01,30.75
5181778,-0.06,-0.03,1.13,0.31,-2.38,-4.21,882.95,30.75
5181817,-0.04,-0.04,1.11,0.31,-1.77,-4.15,882.99,30.75
5181855,-0.05,-0.04,1.1,0.12,-2.81,-4.27,882.97,30.75
5181893,-0.06,-0.04,1.09,0.12,-2.14,-4.21,882.99,30.74
5181943,-0.05,-0.04,1.06,-0.12,-2.56,-4.21,882.98,30.74
5181981,-0.05,-0.04,1.07,-0.18,-3.54,-4.09,882.96,30.75
5182019,-0.05,-0.04,1.06,-0.55,-4.88,-3.97,882.96,30.74
5182057,-0.08,-0.04,1.05,-0.73,-3.91,-3.97,882.96,30.75
5182095,-0.05,-0.04,1.06,-0.73,-5.25,-3.91,882.96,30.74
5182133,-0.06,-0.04,1.08,-0.49,-5.37,-4.03,883.0,30.75
5182172,-0.06,-0.04,1.03,-0.55,-5.31,-3.97,882.91,30.75
5182210,-0.06,-0.04,1.05,-0.67,-5.13,-3.91,882.94,30.75
5182248,-0.05,-0.05,1.04,-0.49,-5.55,-3.97,882.95,30.75
5182286,-0.07,-0.05,1.04,-0.49,-6.04,-3.78,882.97,30.75
5182336,-0.06,-0.05,1.01,-0.61,-5.55,-3.78,882.93,30.74
5182374,-0.05,-0.04,1.05,-0.79,-6.35,-3.97,882.96,30.76
5182412,-0.06,-0.05,1.03,-0.85,-6.9,-3.66,882.93,30.76
5182450,-0.07,-0.05,1.0,-1.04,-7.51,-3.6,882.96,30.75
5182488,-0.07,-0.04,1.01,-1.04,-7.51,-3.72,882.96,30.76
5182527,-0.06,-0.04,1.02,-1.22,-8.54,-3.48,882.94,30.76
5182565,-0.07,-0.04,1.04,-1.22,-8.79,-3.36,882.88,30.76
5182603,-0.06,-0.04,1.04,-1.22,-8.48,-3.42,882.93,30.75
5182641,-0.07,-0.04,1.05,-1.1,-7.69,-3.48,882.99,30.74
5182691,-0.06,-0.03,1.09,-1.04,-7.75,-3.48,882.95,30.73
5182729,-0.07,-0.03,1.11,-0.61,-6.96,-3.66,883.01,30.75
5182767,-0.07,-0.03,1.15,-0.67,-6.29,-3.6,882.91,30.75
5182805,-0.06,-0.03,1.18,-0.61,-5.98,-3.6,882.99,30.75
5182843,-0.07,-0.02,1.18,-0.67,-5.74,-3.72,882.96,30.74
5182882,-0.07,-0.01,1.2,-0.61,-5.98,-3.6,882.97,30.75
5182920,-0.07,-0.02,1.18,-0.55,-5.07,-3.72,882.99,30.75
5182958,-0.06,-0.02,1.18,-0.67,-5.43,-3.66,882.94,30.75
5182996,-0.06,-0.01,1.16,-0.73,-5.19,-3.54,882.97,30.75
5183146,-0.07,-0.03,1.15,0.67,-4.64,-3.42,882.98,30.69
5183184,-0.07,-0.03,1.12,0.85,-4.09,-3.54,883.03,30.71
5183222,-0.08,-0.02,1.13,1.28,-3.78,-3.54,883.01,30.71
5183312,-0.08,-0.03,1.14,1.95,-2.14,-3.36,883.03,30.68
5183350,-0.09,-0.04,1.09,2.01,-1.71,-3.11,883.03,30.7
5183388,-0.1,-0.02,1.13,2.5,-0.92,-2.81,883.13,30.71
5183426,-0.09,-0.04,1.07,2.99,0.73,-2.93,883.06,30.71
5183464,-0.11,-0.03,1.05,3.17,1.71,-2.56,883.11,30.71
5183503,-0.09,-0.04,1.0,3.66,3.6,-2.44,883.17,30.71
5183552,-0.07,-0.05,0.92,4.03,4.76,-2.26,883.17,30.71
5183591,-0.08,-0.04,0.91,4.21,4.09,-2.01,883.17,30.73
5183629,-0.08,-0.05,0.87,4.15,5.43,-1.53,883.14,30.71
5183667,-0.07,-0.05,0.85,3.78,5.37,-1.46,883.11,30.71
5183705,-0.08,-0.03,0.92,3.78,3.72,-1.34,883.14,30.73
5183743,-0.07,-0.06,0.91,3.6,5.13,-0.98,883.14,30.72
5183781,-0.04,-0.06,0.96,3.42,5.13,-0.98,883.16,30.74
5183819,-0.06,-0.05,0.97,3.66,5.43,-0.73,883.17,30.72
5183857,-0.05,-0.06,0.91,3.48,5.0,-0.67,883.13,30.74
5183896,-0.05,-0.05,0.85,3.11,5.92,-0.61,883.09,30.74
5183945,-0.06,-0.06,0.83,3.11,5.62,-0.43,883.16,30.71
5183983,-0.05,-0.08,0.79,2.75,5.07,-0.43,883.12,30.72
5184022,-0.06,-0.06,0.81,2.69,4.7,-0.43,883.18,30.73
5184060,-0.05,-0.06,0.8,2.38,4.58,-0.37,883.14,30.73
5184098,-0.07,-0.06,0.82,2.62,5.37,-0.24,883.12,30.73
5184136,-0.03,-0.06,0.83,2.26,4.58,-0.12,883.09,30.73
5184174,-0.07,-0.06,0.82,1.95,4.52,-0.12,883.14,30.73
5184212,-0.07,-0.05,0.79,1.71,4.46,-0.06,883.14,30.75
5184250,-0.05,-0.07,0.81,1.53,3.42,0.24,883.14,30.73
5184300,-0.05,-0.06,0.79,1.22,2.99,0.37,883.13,30.73
5184338,-0.06,-0.06,0.79,1.04,3.05,0.49,883.09,30.73
5184377,-0.07,-0.06,0.77,1.22,3.05,0.55,883.14,30.74
5184415,-0.07,-0.06,0.83,1.04,1.59,0.55,883.19,30.75
5184453,-0.08,-0.06,0.79,0.67,3.17,0.85,883.1,30.74
5184491,-0.06,-0.04,0.93,0.55,1.28,0.85,883.07,30.74
5184529,-0.05,-0.05,0.98,0.55,3.36,1.04,883.09,30.74
5184567,-0.04,-0.04,1.0,0.31,3.11,0.98,882.97,30.74
5184605,-0.07,-0.02,1.14,0.67,3.97,1.46,883.1,30.75
5184644,-0.06,-0.05,1.11,0.49,4.09,1.28,883.02,30.75
5184693,-0.07,-0.01,1.27,0.85,5.25,1.22,883.04,30.73
5184731,-0.05,-0.03,1.22,1.4,5.43,1.34,883.05,30.75
5184770,-0.05,-0.02,1.27,2.08,4.7,1.28,883.1,30.75
5184808,-0.06,-0.04,1.16,2.62,5.49,1.46,883.14,30.74
5184846,-0.04,-0.03,1.15,3.23,4.39,1.65,883.17,30.74
5184884,-0.05,-0.04,1.08,3.78,4.76,1.77,883.06,30.73
5184922,-0.07,-0.05,1.03,3.91,4.03,1.71,883.09,30.74
5184960,-0.06,-0.05,1.01,4.03,4.39,1.83,883.13,30.74
5184999,-0.04,-0.05,1.0,3.91,3.3,1.71,883.05,30.74
5185048,-0.01,-0.04,1.04,3.66,3.42,1.89,883.09,30.73
5185086,-0.04,-0.06,1.01,3.48,2.93,2.01,883.09,30.73
5185125,-0.05,-0.06,0.99,3.6,2.75,2.08,883.14,30.73
5185163,-0.04,-0.06,0.92,3.36,3.3,1.95,883.17,30.73
5185201,-0.04,-0.06,0.91,3.36,2.26,2.08,883.16,30.74
5185239,-0.02,-0.07,0.86,3.11,2.93,1.95,883.17,30.74
5185277,-0.03,-0.07,0.83,2.87,2.87,1.77,883.09,30.73
5185315,-0.01,-0.08,0.87,2.75,3.72,1.83,883.15,30.74
5185353,-0.01,-0.07,0.82,2.56,3.48,1.53,883.08,30.74
5185391,-0.04,-0.06,0.88,2.2,3.85,1.46,883.15,30.74
5185441,-0.03,-0.06,0.88,1.83,4.21,1.46,883.16,30.73
5185479,-0.02,-0.06,0.92,1.46,4.33,1.16,883.11,30.73
5185518,-0.01,-0.07,0.93,1.1,4.33,1.28,883.06,30.73
5185556,-0.02,-0.06,1.0,1.1,4.09,0.92,883.12,30.72
5185594,-0.02,-0.06,1.01,1.1,4.76,0.98,883.14,30.73
5185632,-0.03,-0.06,1.06,0.92,4.21,0.79,883.12,30.73
5185670,-0.03,-0.06,1.05,1.1,4.82,0.61,883.14,30.73
5185708,-0.03,-0.05,1.09,0.92,5.07,0.43,883.16,30.74
5185746,-0.02,-0.05,1.1,1.16,5.25,0.18,883.08,30.73
5185784,-0.02,-0.05,1.07,1.22,4.7,0.12,883.12,30.74
5185834,-0.04,-0.05,1.08,1.46,5.92,0.12,883.14,30.73
5185872,-0.04,-0.06,1.06,1.46,5.49,0.12,883.14,30.75
5185910,-0.03,-0.03,1.11,1.53,5.49,0.0,883.04,30.74
5185949,-0.03,-0.05,1.07,1.53,5.74,-0.18,883.16,30.74
5185987,-0.03,-0.04,1.1,1.83,5.98,-0.18,883.13,30.75
5186025,-0.02,-0.05,1.1,2.08,6.65,-0.18,883.12,30.75
5186063,-0.03,-0.04,1.09,2.01,5.43,-0.18,883.07,30.74
5186101,-0.04,-0.04,1.1,2.14,6.04,-0.31,883.11,30.75
5186139,-0.05,-0.05,1.07,2.08,5.98,-0.31,883.1,30.75
5186215,-0.03,-0.05,1.11,2.2,6.04,-0.37,883.04,30.72
5186253,-0.04,-0.04,1.12,2.14,5.86,-0.31,883.08,30.73
5186291,-0.04,-0.04,1.13,2.32,6.29,-0.24,883.09,30.74
5186381,-0.05,-0.04,1.11,2.44,6.41,-0.24,883.12,30.71
5186419,-0.04,-0.04,1.1,2.56,6.53,-0.31,883.03,30.7
5186457,-0.04,-0.04,1.1,2.56,6.35,-0.37,883.1,30.72
5186495,-0.04,-0.04,1.1,2.69,6.77,-0.24,883.06,30.73
5186533,-0.05,-0.05,1.07,2.56,6.9,-0.24,883.02,30.72
5186571,-0.04,-0.04,1.1,2.75,7.02,-0.37,883.05,30.74
5186609,-0.04,-0.04,1.1,2.81,6.9,-0.24,883.05,30.74
5186659,-0.04,-0.04,1.1,2.81,6.04,-0.12,883.05,30.74
5186697,-0.03,-0.05,1.08,3.11,5.92,-0.12,883.1,30.74
5186735,-0.04,-0.05,1.09,2.87,5.74,0.0,883.09,30.75
5186773,-0.03,-0.05,1.07,2.87,5.07,-0.12,883.03,30.75
5186812,-0.05,-0.05,1.05,2.99,4.88,0.06,883.05,30.74
5186850,-0.05,-0.04,1.01,2.75,5.07,-0.06,882.96,30.74
5186888,-0.02,-0.05,1.02,2.81,4.76,-0.06,883.02,30.76
5186926,-0.05,-0.06,1.02,2.87,4.46,-0.06,883.03,30.74
5186964,-0.05,-0.05,0.99,2.62,3.85,-0.06,882.99,30.73
5187014,-0.05,-0.05,1.0,2.32,4.27,-0.24,882.97,30.72
5187052,-0.04,-0.05,1.0,1.95,4.21,0.0,883.0,30.73
5187090,-0.05,-0.05,1.03,1.89,4.33,-0.12,883.02,30.75
5187128,-0.06,-0.06,1.01,1.46,4.52,-0.18,882.99,30.74
5187166,-0.05,-0.05,1.03,1.04,4.39,-0.12,883.02,30.74
5187205,-0.03,-0.04,1.04,0.43,4.94,-0.06,882.99,30.74
5187243,-0.04,-0.05,1.04,0.18,4.58,-0.12,882.99,30.73
5187281,-0.04,-0.05,1.06,0.18,4.7,0.06,882.94,30.73
5187319,-0.03,-0.05,1.08,0.18,4.33,-0.18,883.01,30.74
5187357,-0.03,-0.05,1.08,0.12,4.03,-0.24,882.97,30.75
5187407,-0.04,-0.04,1.09,0.0,3.6,-0.18,882.97,30.72
5187445,-0.04,-0.05,1.09,0.06,3.6,-0.37,882.99,30.73
5187483,-0.03,-0.05,1.09,-0.12,2.44,-0.43,882.93,30.72
5187521,-0.04,-0.04,1.1,0.18,2.62,-0.37,883.0,30.74
5187559,-0.04,-0.05,1.09,0.18,2.5,-0.37,882.93,30.75
5187598,-0.03,-0.04,1.11,0.55,1.77,-0.49,882.88,30.74
5187636,-0.04,-0.05,1.09,0.37,1.59,-0.61,882.96,30.74
5187674,-0.04,-0.05,1.08,0.61,1.46,-0.55,882.92,30.75
5187712,-0.03,-0.05,1.05,0.73,2.08,-0.73,882.94,30.73
5187762,-0.04,-0.05,1.04,0.73,1.71,-0.79,882.93,30.74
5187800,-0.04,-0.05,1.02,0.98,2.08,-0.92,882.9,30.73
5187838,-0.05,-0.05,1.02,0.92,2.32,-0.92,882.88,30.74
5187876,-0.04,-0.05,1.03,1.28,2.99,-1.1,882.86,30.73
5187914,-0.06,-0.05,1.03,1.28,2.87,-0.98,882.96,30.74
5187952,-0.06,-0.04,1.04,1.28,2.99,-1.22,882.88,30.73
5187990,-0.05,-0.05,1.06,1.34,4.09,-0.98,882.87,30.74
5188028,-0.03,-0.04,1.07,1.28,3.85,-1.1,882.92,30.74
5188067,-0.04,-0.04,1.08,1.34,4.09,-1.04,882.82,30.74
5188105,-0.05,-0.05,1.06,1.46,4.88,-1.22,882.86,30.74
5188155,-0.04,-0.05,1.06,1.4,5.25,-0.98,882.83,30.72
5188193,-0.04,-0.04,1.05,1.4,4.15,-1.16,882.82,30.72
5188231,-0.05,-0.04,1.03,1.46,4.09,-1.16,882.83,30.74
5188269,-0.04,-0.05,1.04,1.46,4.21,-1.16,882.84,30.72
5188307,-0.02,-0.05,1.05,1.59,3.97,-1.1,882.9,30.74
5188345,-0.04,-0.05,1.06,1.59,3.97,-1.04,882.86,30.74
5188383,-0.04,-0.05,1.04,1.46,4.58,-1.1,882.74,30.72
5188421,-0.05,-0.04,1.07,1.59,4.7,-1.22,882.77,30.73
5188460,-0.05,-0.05,1.06,1.46,5.43,-1.22,882.83,30.74
5188509,-0.04,-0.05,1.06,1.28,5.55,-1.28,882.77,30.72
5188547,-0.05,-0.04,1.07,1.22,6.23,-1.28,882.76,30.72
5188586,-0.04,-0.05,1.06,1.28,5.74,-1.34,882.81,30.74
5188624,-0.05,-0.05,1.09,1.34,5.8,-1.34,882.8,30.73
5188662,-0.04,-0.05,1.07,1.53,6.16,-1.46,882.76,30.74
5188700,-0.04,-0.05,1.1,1.34,5.68,-1.4,882.75,30.74
5188738,-0.03,-0.04,1.11,1.46,5.55,-1.22,882.77,30.74
5188776,-0.04,-0.04,1.09,1.4,5.43,-1.22,882.74,30.74
5188814,-0.05,-0.04,1.08,1.53,5.49,-1.46,882.74,30.74
5188852,-0.04,-0.04,1.09,1.71,5.0,-1.28,882.69,30.74
5188902,-0.02,-0.04,1.12,1.89,3.85,-1.28,882.71,30.75
5188940,-0.03,-0.04,1.13,2.08,2.99,-1.34,882.7,30.74
5188979,-0.03,-0.04,1.13,2.14,2.26,-1.28,882.66,30.74
5189017,-0.01,-0.05,1.14,2.14,1.22,-1.22,882.65,30.75
5189055,-0.02,-0.05,1.05,1.95,0.06,-1.53,882.55,30.74
5189093,-0.03,-0.05,1.0,1.65,-0.92,-1.65,882.55,30.74
5189131,-0.03,-0.05,0.96,1.65,-0.85,-1.71,882.54,30.74
5189169,-0.02,-0.05,0.93,1.71,-2.14,-2.08,882.49,30.74
5189207,-0.03,-0.04,0.97,1.71,-2.87,-2.01,882.51,30.74
5189283,-0.04,-0.04,1.0,1.22,-3.85,-2.14,882.49,30.71
5189321,-0.05,-0.05,1.01,0.85,-4.33,-2.26,882.56,30.73
5189359,-0.06,-0.05,1.08,0.92,-5.07,-2.2,882.55,30.72
5189449,-0.04,-0.04,1.07,0.98,-3.85,-2.32,882.5,30.7
5189487,-0.07,-0.05,1.0,0.67,-4.21,-2.08,882.49,30.71
5189525,-0.07,-0.04,0.99,0.55,-4.7,-1.95,882.46,30.71
5189563,-0.06,-0.04,1.03,0.43,-4.27,-2.14,882.51,30.73
5189601,-0.06,-0.05,1.03,0.43,-4.58,-2.14,882.45,30.72
5189640,-0.06,-0.04,1.05,0.24,-4.27,-2.14,882.41,30.73
5189690,-0.07,-0.05,1.04,-0.12,-3.3,-2.14,882.41,30.71
5189728,-0.07,-0.03,1.06,-0.06,-2.26,-2.14,882.43,30.72
5189766,-0.09,-0.03,1.06,0.49,-1.89,-2.01,882.45,30.73
5189804,-0.08,-0.05,1.08,0.79,-1.59,-1.83,882.41,30.71
5189842,-0.08,-0.04,1.06,1.04,-0.37,-1.83,882.37,30.72
5189880,-0.1,-0.02,1.12,1.4,0.06,-1.53,882.37,30.72
5189918,-0.09,-0.04,1.11,1.83,1.28,-1.4,882.36,30.72
5189956,-0.1,-0.02,1.14,2.14,0.92,-1.16,882.39,30.71
5189995,-0.11,-0.03,1.12,2.38,2.01,-0.92,882.32,30.72
5190033,-0.09,-0.03,1.11,2.32,2.38,-0.49,882.28,30.72
5190083,-0.07,-0.03,1.11,2.81,3.23,-0.24,882.3,30.7
5190121,-0.08,-0.03,1.08,2.69,2.56,-0.12,882.32,30.72
5190159,-0.08,-0.03,1.08,2.87,2.69,0.24,882.28,30.72
5190197,-0.06,-0.05,1.06,3.3,2.87,0.24,882.31,30.72
5190235,-0.07,-0.04,1.05,3.23,2.56,0.37,882.32,30.71
5190273,-0.09,-0.04,1.04,3.48,2.93,0.79,882.33,30.73
5190311,-0.07,-0.05,1.02,3.66,2.62,0.85,882.25,30.71
5190349,-0.07,-0.05,1.0,3.54,3.66,0.85,882.31,30.72
5190388,-0.06,-0.04,1.0,3.6,2.62,1.04,882.29,30.72
5190437,-0.06,-0.06,0.98,3.42,2.38,1.34,882.24,30.72
5190476,-0.07,-0.05,0.96,3.23,1.71,1.53,882.3,30.71
5190514,-0.07,-0.04,1.02,3.23,1.89,1.71,882.23,30.72
5190552,-0.06,-0.06,0.96,2.81,1.71,1.83,882.28,30.73
5190590,-0.06,-0.05,1.0,2.93,1.1,1.89,882.17,30.72
5190628,-0.04,-0.06,0.95,2.69,2.14,1.83,882.27,30.74
5190666,-0.05,-0.05,0.95,2.56,1.95,1.95,882.19,30.74
5190704,-0.06,-0.06,0.91,2.5,2.69,2.14,882.2,30.74
5190743,-0.06,-0.05,0.87,2.56,2.08,1.89,882.22,30.74
5190781,-0.05,-0.05,0.9,2.26,1.83,2.01,882.17,30.75
5190830,-0.04,-0.05,0.92,2.2,1.59,2.14,882.12,30.72
5190869,-0.04,-0.06,0.97,2.08,1.65,2.08,882.11,30.73
5190907,-0.04,-0.06,0.95,2.08,1.71,2.32,882.07,30.72
5190945,-0.04,-0.05,0.99,1.89,1.46,2.26,882.08,30.72
5190983,-0.05,-0.05,0.98,1.95,1.83,2.2,882.06,30.7
5191021,-0.05,-0.04,1.0,2.01,1.95,2.32,882.02,30.71
5191059,-0.04,-0.05,1.0,2.32,3.6,2.32,882.06,30.72
5191097,-0.06,-0.05,0.99,2.81,4.09,2.26,881.98,30.72
5191136,-0.07,-0.05,1.0,3.3,4.76,2.44,881.99,30.7
5191174,-0.07,-0.05,1.01,3.48,6.1,2.32,881.94,30.72
5191224,-0.06,-0.04,1.0,3.72,7.87,2.44,881.99,30.7
5191262,-0.06,-0.05,0.98,4.27,7.93,2.56,881.96,30.72
5191300,-0.06,-0.05,0.98,4.82,8.97,2.56,882.0,30.7
5191338,-0.04,-0.05,0.92,4.7,10.44,2.5,881.94,30.71
5191376,-0.05,-0.04,0.96,4.64,10.07,2.62,881.92,30.72
5191414,-0.04,-0.06,0.9,4.76,11.17,2.81,881.95,30.72
5191453,-0.04,-0.05,0.93,4.39,10.07,2.69,881.92,30.71
5191491,-0.05,-0.06,0.91,4.46,11.11,2.75,881.92,30.72
5191529,-0.04,-0.06,0.91,4.58,10.25,2.75,881.92,30.72
5191579,-0.04,-0.06,0.87,4.46,11.66,2.99,881.9,30.71
5191617,-0.05,-0.05,0.89,4.52,12.63,3.17,881.86,30.72
5191655,-0.05,-0.06,0.84,5.0,14.95,3.17,881.79,30.72
5191693,-0.03,-0.06,0.85,5.13,15.56,3.11,881.8,30.72
5191731,-0.05,-0.06,0.83,5.31,17.58,3.54,881.74,30.71
5191769,-0.04,-0.06,0.8,5.43,18.25,3.6,881.76,30.71
5191807,-0.04,-0.05,0.84,5.37,17.82,3.6,881.74,30.7
5191846,-0.04,-0.07,0.83,5.25,18.13,3.97,881.71,30.7
5191884,-0.03,-0.08,0.85,4.82,17.82,4.15,881.69,30.7
5191922,-0.03,-0.07,0.87,4.33,17.27,4.21,881.73,30.7
5191972,-0.02,-0.03,0.86,3.85,15.99,4.52,881.78,30.7
5192010,-0.01,-0.06,0.85,3.6,15.2,4.46,881.75,30.69
5192048,-0.03,-0.06,0.91,3.17,14.16,4.52,881.68,30.7
5192086,-0.02,-0.05,0.95,2.99,14.22,4.58,881.66,30.71
5192124,-0.03,-0.06,0.96,2.38,13.43,4.82,881.69,30.7
5192162,-0.01,-0.05,1.01,1.95,13.49,4.7,881.63,30.72
5192201,0.01,-0.05,1.04,1.65,13.79,4.94,881.66,30.71
5192239,-0.01,-0.05,1.0,1.77,12.57,5.13,881.69,30.7
5192277,-0.03,-0.05,0.98,1.65,12.27,5.19,881.66,30.69
5192353,0.01,-0.06,0.95,1.83,13.24,5.25,881.63,30.67
5192391,0.01,-0.07,0.97,2.14,12.21,5.31,881.62,30.67
5192429,-0.01,-0.07,0.91,2.08,12.94,5.07,881.53,30.7
5192518,0.01,-0.07,0.91,1.95,14.4,5.0,881.56,30.67
5192557,0.0,-0.08,0.92,1.53,14.34,4.76,881.53,30.67
5192595,0.01,-0.06,0.97,1.28,15.44,4.64,881.55,30.68
5192633,0.03,-0.06,1.0,1.28,15.01,4.52,881.51,30.69
5192671,0.01,-0.05,1.04,1.59,15.14,4.39,881.51,30.68
5192709,0.03,-0.05,1.02,1.89,16.3,4.46,881.42,30.69
5192747,0.02,-0.05,1.03,2.08,16.97,4.27,881.44,30.7
5192797,0.03,-0.06,1.0,2.08,17.21,4.33,881.45,30.7
5192835,0.03,-0.06,1.02,2.01,16.66,4.21,881.38,30.7
5192874,0.05,-0.07,1.01,1.83,17.4,3.91,881.36,30.7
5192912,0.04,-0.06,1.02,1.1,15.93,3.91,881.4,30.71
5192950,0.05,-0.06,1.04,0.98,14.65,3.97,881.44,30.72
5192988,0.03,-0.06,1.04,0.37,13.61,3.6,881.45,30.7
5193026,0.04,-0.06,1.04,-0.06,13.31,3.42,881.45,30.7
5193064,0.06,-0.07,1.06,-0.43,12.45,3.17,881.46,30.72
5193102,0.05,-0.06,1.03,-0.61,11.17,2.99,881.4,30.72
5193141,0.04,-0.07,1.04,-0.98,10.38,2.75,881.37,30.71
5193190,0.08,-0.07,1.05,-1.71,10.38,2.14,881.35,30.71
5193228,0.08,-0.05,1.12,-2.14,9.03,1.77,881.34,30.7
5193267,0.04,-0.06,1.09,-2.5,9.09,1.65,881.33,30.72
5193305,0.08,-0.06,1.16,-2.81,9.03,1.1,881.33,30.71
5193343,0.08,-0.07,1.14,-3.05,9.7,0.67,881.27,30.72
5193381,0.04,-0.06,1.15,-3.36,8.67,0.24,881.31,30.71
5193419,0.08,-0.05,1.19,-3.17,9.09,-0.24,881.22,30.71
5193457,0.08,-0.06,1.16,-3.05,9.22,-0.49,881.26,30.71
5193495,0.07,-0.05,1.18,-2.87,9.28,-0.49,881.26,30.7
