timestamp,acc_x,acc_y,acc_z,rot_x,rot_y,rot_z,qfe,temp,Unnamed: 10
4443503,-0.01,-0.1,0.78,0.18,2.32,2.56,894.95,22.69,
4443541,-0.02,-0.09,0.87,0.24,0.43,2.44,894.94,22.71,
4443579,-0.02,-0.1,0.84,-0.49,1.34,2.44,894.97,22.7,
4443629,-0.01,-0.08,0.97,-0.49,0.85,2.32,894.97,22.69,
4443668,-0.0,-0.1,1.0,-0.85,1.04,2.14,894.93,22.69,
4443706,-0.02,-0.09,1.02,-0.73,1.1,1.89,894.96,22.69,
4443744,-0.03,-0.09,1.07,-0.37,1.77,1.89,894.92,22.68,
4443782,-0.01,-0.1,1.06,-0.24,1.59,1.65,894.96,22.69,
4443821,-0.02,-0.08,1.1,0.18,1.22,1.65,894.94,22.69,
4443859,-0.03,-0.09,1.08,0.31,2.44,1.65,894.97,22.69,
4443897,0.0,-0.09,1.12,0.31,2.75,1.4,894.91,22.7,
4443936,-0.01,-0.08,1.17,1.22,2.5,1.4,894.97,22.7,
4443974,-0.03,-0.1,1.12,1.04,3.72,1.28,894.99,22.71,
4444024,-0.01,-0.08,1.11,1.53,3.48,1.16,894.94,22.7,
4444062,-0.01,-0.09,1.06,1.53,3.85,1.04,895.0,22.69,
4444100,-0.01,-0.09,1.05,2.14,3.23,1.04,894.93,22.7,
4444139,-0.02,-0.1,1.03,2.26,4.09,1.1,894.89,22.7,
4444177,0.0,-0.08,1.04,2.08,2.26,0.98,894.94,22.7,
4444215,-0.03,-0.09,1.08,2.56,2.14,0.92,894.93,22.71,
4444253,-0.01,-0.1,1.0,1.53,2.38,1.04,894.87,22.69,
4444292,-0.01,-0.09,1.08,2.32,0.49,0.85,894.84,22.7,
4444330,-0.02,-0.1,1.0,1.77,0.92,0.85,894.89,22.7,
4444368,-0.02,-0.08,1.01,1.89,0.49,0.73,894.77,22.69,
4444418,-0.02,-0.1,1.03,2.26,1.71,0.73,894.85,22.7,
4444456,-0.04,-0.09,0.99,2.14,0.98,0.55,894.91,22.71,
4444495,-0.04,-0.1,1.03,2.38,2.62,0.43,894.88,22.69,
4444533,-0.02,-0.1,0.97,1.28,2.99,0.49,894.85,22.7,
4444571,0.01,-0.07,1.04,1.77,2.93,0.43,894.87,22.7,
4444609,-0.02,-0.09,0.78,0.31,2.87,0.61,894.86,22.7,
4444648,-0.06,-0.07,0.79,1.04,1.53,0.43,894.82,22.7,
4444686,-0.05,-0.09,0.76,1.71,1.89,0.55,894.81,22.71,
4444724,-0.03,-0.09,0.73,1.04,2.62,0.49,894.84,22.7,
4444774,-0.03,-0.08,0.78,1.59,3.36,0.43,894.84,22.69,
4444812,-0.03,-0.1,0.81,1.34,4.09,0.67,894.83,22.69,
4444851,-0.04,-0.09,0.83,1.89,3.91,0.49,894.78,22.71,
4444889,-0.04,-0.08,0.83,1.4,4.7,0.43,894.74,22.7,
4444927,-0.04,-0.09,0.89,1.46,4.64,0.49,894.81,22.71,
4444966,-0.03,-0.1,0.92,1.4,4.7,0.67,894.8,22.69,
4445004,-0.03,-0.09,0.99,1.59,4.03,0.31,894.77,22.69,
4445042,-0.03,-0.1,0.96,1.59,5.07,0.55,894.79,22.7,
4445080,-0.03,-0.09,0.97,1.71,4.39,0.55,894.76,22.69,
4445118,-0.06,-0.09,0.97,2.2,4.39,0.55,894.76,22.71,
4445195,-0.02,-0.09,1.03,2.32,5.68,0.73,894.79,22.67,
4445233,-0.03,-0.09,0.99,2.08,6.35,0.61,894.77,22.68,
4445271,-0.05,-0.08,0.95,2.2,5.86,0.67,894.77,22.68,
4445361,-0.03,-0.09,1.02,2.01,5.49,0.92,894.73,22.65,
4445399,-0.04,-0.08,1.01,1.95,4.94,0.92,894.72,22.64,
4445437,-0.08,-0.08,1.02,2.2,5.37,0.98,894.73,22.66,
4445476,-0.03,-0.09,1.1,2.38,6.41,0.92,894.66,22.66,
4445514,-0.04,-0.09,1.12,2.2,7.02,0.92,894.71,22.68,
4445552,-0.07,-0.09,1.16,2.93,7.45,1.16,894.72,22.68,
4445591,-0.05,-0.09,1.22,3.11,7.39,1.16,894.62,22.66,
4445641,-0.03,-0.09,1.27,2.44,9.77,1.28,894.75,22.65,
4445679,-0.02,-0.08,1.24,2.5,8.0,1.34,894.68,22.66,
4445717,-0.05,-0.07,1.19,2.62,8.61,1.34,894.76,22.67,
4445756,-0.04,-0.09,1.14,2.32,8.61,1.34,894.7,22.67,
4445794,-0.05,-0.09,1.23,2.93,9.22,1.46,894.7,22.68,
4445832,-0.03,-0.08,1.16,2.32,10.99,1.4,894.62,22.67,
4445871,-0.05,-0.09,1.2,2.5,10.99,1.16,894.68,22.68,
4445909,-0.03,-0.09,1.17,1.95,13.61,1.16,894.67,22.68,
4445947,-0.02,-0.09,1.22,2.75,12.15,1.1,894.74,22.68,
4445997,-0.05,-0.1,1.12,2.62,13.31,1.4,894.69,22.66,
4446035,-0.02,-0.08,1.15,2.99,12.15,1.04,894.65,22.68,
4446074,-0.01,-0.08,1.17,2.56,11.96,1.16,894.66,22.68,
4446112,-0.01,-0.1,1.13,2.32,10.86,1.1,894.66,22.68,
4446150,-0.01,-0.09,1.16,2.44,9.4,0.92,894.61,22.67,
4446188,-0.03,-0.1,1.08,2.75,9.09,0.79,894.55,22.68,
4446227,-0.01,-0.09,1.04,2.14,7.63,0.79,894.57,22.68,
4446265,-0.01,-0.07,1.11,2.01,6.84,0.43,894.57,22.68,
4446303,-0.01,-0.1,1.06,1.95,6.29,0.37,894.59,22.68,
4446342,-0.02,-0.1,1.09,1.59,4.21,0.18,894.54,22.69,
4446391,-0.04,-0.08,1.11,1.34,3.78,0.24,894.58,22.66,
4446430,-0.01,-0.1,1.07,1.53,1.04,0.24,894.53,22.67,
4446468,-0.03,-0.1,1.12,1.4,1.04,0.24,894.5,22.67,
4446506,-0.01,-0.1,1.07,1.65,0.67,-0.12,894.56,22.68,
4446545,-0.03,-0.09,1.09,1.89,0.18,0.12,894.54,22.68,
4446583,-0.01,-0.09,1.0,1.34,-0.55,0.12,894.54,22.68,
4446621,-0.04,-0.09,0.96,1.53,-1.04,-0.12,894.53,22.68,
4446659,-0.07,-0.09,0.83,0.98,0.06,0.0,894.44,22.67,
4446698,-0.01,-0.09,0.86,0.98,-0.67,0.0,894.44,22.68,
4446748,-0.03,-0.09,0.87,1.28,-0.98,-0.31,894.4,22.66,
4446786,-0.03,-0.08,0.96,1.77,-1.59,-0.12,894.46,22.66,
4446824,-0.02,-0.1,0.89,1.59,0.31,-0.31,894.34,22.66,
4446862,-0.04,-0.09,0.96,1.53,-0.73,-0.55,894.46,22.67,
4446901,-0.01,-0.08,1.02,1.89,-0.79,-0.67,894.41,22.67,
4446939,-0.02,-0.09,0.92,1.04,0.12,-0.73,894.46,22.68,
4446977,-0.04,-0.08,1.02,1.53,-0.12,-0.79,894.43,22.67,
4447015,-0.0,-0.1,1.01,1.16,-0.18,-0.85,894.42,22.68,
4447054,-0.06,-0.08,1.07,1.71,-0.67,-1.16,894.44,22.69,
4447092,-0.03,-0.08,1.05,1.28,1.28,-1.16,894.47,22.69,
4447142,-0.02,-0.08,1.07,1.1,1.04,-1.65,894.37,22.67,
4447180,-0.02,-0.08,1.12,1.22,0.92,-1.65,894.43,22.68,
4447218,-0.05,-0.09,1.13,1.4,1.53,-1.53,894.4,22.69,
4447257,-0.03,-0.08,1.18,1.34,1.95,-1.65,894.44,22.7,
4447295,-0.04,-0.08,1.17,1.77,2.87,-2.08,894.42,22.69,
4447333,-0.06,-0.07,1.13,1.71,4.21,-2.14,894.42,22.69,
4447371,-0.02,-0.04,1.18,2.26,3.85,-1.89,894.37,22.7,
4447410,-0.03,-0.08,1.19,2.62,2.81,-2.2,894.33,22.7,
4447448,-0.05,-0.08,1.18,2.69,1.65,-2.08,894.3,22.68,
4447498,-0.04,-0.07,1.18,2.32,1.34,-1.95,894.28,22.69,
4447536,-0.02,-0.07,1.16,2.2,-0.43,-2.14,894.3,22.68,
4447574,-0.05,-0.07,1.11,1.83,-1.59,-2.01,894.28,22.68,
4447613,-0.04,-0.08,1.11,2.32,-1.59,-2.2,894.23,22.68,
4447651,-0.03,-0.1,1.05,1.77,-1.89,-1.89,894.2,22.69,
4447689,-0.03,-0.07,1.07,1.83,-3.11,-2.01,894.16,22.69,
4447727,-0.05,-0.08,1.04,1.95,-2.69,-2.2,894.15,22.68,
4447766,-0.06,-0.07,0.98,1.77,-1.59,-2.32,894.11,22.68,
4447804,-0.04,-0.07,0.99,1.65,-2.14,-2.14,894.13,22.69,
4447854,-0.06,-0.08,0.94,1.04,-2.14,-2.2,894.09,22.68,
4447892,-0.07,-0.06,0.99,0.31,-3.11,-2.08,894.09,22.69,
4447930,-0.05,-0.08,1.09,0.37,-3.11,-1.77,894.04,22.68,
4447969,-0.08,-0.08,1.08,-0.49,-3.17,-1.77,894.05,22.68,
4448007,-0.11,-0.07,1.18,0.49,-3.6,-1.53,894.04,22.68,
4448045,-0.07,-0.08,1.11,0.12,-1.34,-1.65,894.06,22.69,
4448083,-0.08,-0.06,1.12,0.49,-2.81,-1.53,894.03,22.69,
4448122,-0.08,-0.07,0.96,0.37,-1.77,-1.16,894.05,22.69,
4448160,-0.11,-0.06,0.94,0.98,-2.26,-1.1,894.07,22.68,
4448198,-0.11,-0.07,0.89,0.73,-1.34,-0.85,894.02,22.69,
4448274,-0.11,-0.06,1.0,1.71,0.18,-0.49,894.01,22.66,
4448312,-0.08,-0.08,0.99,1.53,1.22,-0.18,893.99,22.66,
4448351,-0.09,-0.07,0.94,2.2,1.89,0.18,893.96,22.67,
4448515,-0.1,-0.07,0.74,3.6,1.89,1.65,893.88,22.61,
4448553,-0.07,-0.09,0.71,3.3,2.93,1.95,893.95,22.63,
4448591,-0.09,-0.06,0.88,3.78,1.04,2.08,893.93,22.64,
4448630,-0.1,-0.08,0.93,4.39,3.11,2.56,893.89,22.64,
4448668,-0.11,-0.08,0.9,3.78,3.66,2.93,893.9,22.66,
4448706,-0.1,-0.08,0.93,4.64,5.0,2.99,893.88,22.66,
4448756,-0.08,-0.07,0.86,3.85,6.04,3.3,893.88,22.65,
4448794,-0.09,-0.06,0.9,4.33,6.71,3.72,893.89,22.66,
4448833,-0.06,-0.07,0.9,3.85,8.54,4.03,893.87,22.67,
4448871,-0.08,-0.07,0.95,3.97,6.77,4.46,893.82,22.65,
4448909,-0.08,-0.07,1.03,4.27,6.41,4.76,893.84,22.66,
4448948,-0.08,-0.09,1.01,3.97,7.51,4.82,893.86,22.68,
4448986,-0.06,-0.05,1.04,4.33,4.39,5.13,893.83,22.68,
4449024,-0.09,-0.08,0.93,4.39,4.52,5.37,893.78,22.68,
4449063,-0.08,-0.07,0.89,3.91,3.42,5.49,893.82,22.68,
4449101,-0.06,-0.08,0.86,3.17,3.78,5.62,893.73,22.68,
4449151,-0.07,-0.07,0.88,2.44,1.34,6.23,893.75,22.67,
4449189,-0.06,-0.08,0.97,1.89,2.01,6.16,893.76,22.68,
4449227,-0.03,-0.09,0.94,1.28,3.6,5.98,893.83,22.68,
4449266,-0.04,-0.07,0.92,1.59,2.75,6.16,893.8,22.68,
4449304,-0.06,-0.06,0.95,2.14,2.2,6.23,893.77,22.67,
4449342,-0.04,-0.08,0.83,2.08,3.23,6.23,893.79,22.68,
4449381,-0.04,-0.07,0.93,3.23,1.89,6.35,893.82,22.69,
4449419,-0.04,-0.09,0.82,2.38,2.69,6.47,893.75,22.68,
4449457,-0.04,-0.07,0.92,2.87,0.92,6.53,893.77,22.69,
4449495,-0.04,-0.09,0.91,3.3,2.08,6.53,893.77,22.69,
4449545,-0.02,-0.07,0.93,3.3,0.31,6.53,893.79,22.68,
4449584,-0.02,-0.08,0.89,3.42,0.79,6.47,893.79,22.68,
4449622,-0.02,-0.07,0.96,3.05,-0.12,6.1,893.79,22.69,
4449660,-0.02,-0.09,1.0,3.17,-0.18,6.35,893.77,22.69,
4449699,-0.02,-0.08,1.04,2.62,0.24,6.35,893.77,22.69,
4449737,-0.02,-0.07,1.05,3.17,0.18,6.16,893.79,22.68,
4449775,-0.0,-0.08,1.05,2.87,0.98,5.74,893.74,22.69,
4449813,-0.02,-0.07,1.1,3.23,-0.67,5.98,893.75,22.69,
4449852,0.01,-0.08,1.05,2.81,0.49,5.68,893.76,22.69,
4449902,-0.02,-0.08,1.05,3.48,1.04,5.13,893.73,22.69,
4449940,0.0,-0.08,0.99,3.05,0.98,5.37,893.74,22.69,
4449978,0.0,-0.07,1.03,3.3,0.31,5.13,893.69,22.68,
4450016,-0.0,-0.09,0.96,2.99,0.73,4.88,893.72,22.69,
4450055,0.0,-0.08,0.96,3.05,0.31,4.7,893.67,22.68,
4450093,-0.0,-0.08,0.95,3.11,0.61,4.64,893.7,22.7,
4450131,0.01,-0.09,0.91,3.11,0.31,4.46,893.67,22.69,
4450169,-0.01,-0.08,0.93,3.17,0.0,4.21,893.63,22.7,
4450208,0.0,-0.09,0.89,2.26,1.16,3.97,893.7,22.7,
4450246,0.02,-0.09,0.91,1.89,0.92,3.72,893.67,22.69,
4450296,0.01,-0.09,0.87,0.92,0.06,3.72,893.63,22.68,
4450334,-0.0,-0.1,0.83,1.1,-0.18,3.48,893.66,22.68,
4450372,0.02,-0.09,0.72,0.67,-0.61,3.05,893.66,22.71,
4450411,0.01,-0.08,0.69,0.55,-0.98,2.99,893.62,22.7,
4450449,-0.0,-0.07,0.67,0.06,-1.4,2.99,893.59,22.7,
4450487,-0.01,-0.09,0.7,-0.12,-1.16,2.5,893.58,22.7,
4450526,0.01,-0.09,0.76,-0.79,-0.37,2.26,893.56,22.69,
4450564,0.0,-0.08,0.88,-0.98,0.67,2.2,893.6,22.69,
4450602,-0.0,-0.09,0.95,-1.16,0.55,2.32,893.55,22.69,
4450640,-0.0,-0.09,1.02,-1.22,1.16,1.89,893.49,22.69,
4450690,-0.02,-0.09,1.08,-1.83,2.5,1.65,893.55,22.67,
4450729,0.01,-0.08,1.11,-1.77,2.01,1.59,893.56,22.68,
4450767,0.01,-0.06,1.22,-1.95,1.77,1.34,893.51,22.7,
4450805,-0.01,-0.07,1.24,-2.69,2.93,1.4,893.51,22.69,
4450844,0.01,-0.07,1.35,-2.38,2.87,1.28,893.55,22.69,
4450882,-0.01,-0.08,1.41,-2.62,3.54,1.34,893.54,22.68,
4450920,-0.02,-0.07,1.46,-2.38,1.77,1.34,893.55,22.69,
4450958,-0.01,-0.06,1.52,-2.08,3.17,1.04,893.55,22.69,
4450997,0.01,-0.06,1.48,-2.14,3.42,1.1,893.57,22.69,
4451047,0.02,-0.06,1.5,-1.71,3.78,0.98,893.5,22.68,
4451085,-0.01,-0.05,1.48,-1.04,3.97,0.79,893.55,22.68,
4451123,0.0,-0.05,1.5,-0.61,4.7,0.79,893.59,22.7,
4451162,-0.01,-0.06,1.46,0.06,4.46,0.67,893.5,22.69,
4451200,0.0,-0.07,1.41,0.49,5.31,0.55,893.53,22.68,
4451238,0.02,-0.07,1.31,0.67,4.94,0.43,893.48,22.68,
4451276,0.01,-0.08,1.2,1.1,4.27,0.43,893.38,22.68,
4451315,0.02,-0.08,1.11,1.34,4.21,0.24,893.47,22.69,
4451353,-0.01,-0.08,0.97,1.28,4.46,0.12,893.44,22.69,
4451391,0.0,-0.08,0.97,1.83,3.91,0.06,893.39,22.69,
4451467,0.03,-0.08,0.87,1.1,2.81,-0.43,893.38,22.66,
4451505,0.03,-0.11,0.82,0.92,2.38,-0.49,893.29,22.66,
4451544,0.01,-0.1,0.8,-0.18,0.55,-0.85,893.26,22.68,
4451634,-0.01,-0.08,0.72,-1.83,-0.24,-1.1,893.28,22.65,
4451672,-0.02,-0.08,0.83,-1.53,0.18,-1.28,893.27,22.66,
4451710,0.02,-0.09,0.87,-2.56,0.98,-1.46,893.14,22.66,
4451748,-0.01,-0.08,1.0,-2.62,0.73,-1.53,893.28,22.68,
4451787,0.0,-0.09,1.1,-2.87,2.2,-1.53,893.2,22.68,
4451825,0.01,-0.08,1.26,-3.17,2.2,-1.65,893.24,22.68,
4451875,-0.03,-0.08,1.25,-2.99,2.56,-1.71,893.2,22.65,
4451913,-0.04,-0.07,1.28,-2.26,2.62,-1.71,893.21,22.67,
4451951,-0.01,-0.06,1.25,-2.01,3.72,-1.83,893.23,22.67,
4451990,-0.0,-0.06,1.33,-1.22,3.23,-1.83,893.21,22.68,
4452028,-0.03,-0.08,1.31,-0.98,3.48,-1.83,893.18,22.68,
4452066,-0.04,-0.07,1.36,-0.55,3.66,-1.77,893.18,22.67,
4452105,-0.02,-0.07,1.34,-0.24,4.58,-1.71,893.18,22.69,
4452143,-0.03,-0.06,1.28,0.18,3.6,-1.65,893.21,22.69,
4452181,-0.03,-0.06,1.27,0.92,2.87,-1.65,893.13,22.69,
4452219,-0.02,-0.08,1.13,1.16,2.87,-1.65,893.15,22.68,
4452269,-0.01,-0.06,1.12,2.01,1.53,-1.34,893.13,22.67,
4452308,-0.03,-0.08,1.03,2.2,1.83,-1.28,893.06,22.68,
4452346,-0.06,-0.08,0.97,2.5,1.22,-1.4,893.02,22.67,
4452384,-0.04,-0.09,0.97,2.44,1.83,-1.4,892.99,22.68,
4452423,-0.03,-0.08,0.92,2.08,2.01,-1.4,893.02,22.69,
4452461,-0.03,-0.08,0.87,1.53,1.95,-1.1,892.94,22.69,
4452499,-0.03,-0.08,0.85,0.79,1.89,-1.04,892.9,22.69,
4452537,-0.04,-0.09,0.84,-0.37,2.08,-0.79,892.86,22.68,
4452576,-0.04,-0.08,0.87,-1.65,1.46,-0.61,892.89,22.69,
4452626,-0.06,-0.08,0.86,-2.87,1.46,-0.55,892.84,22.68,
4452664,-0.03,-0.07,0.92,-3.72,1.83,-0.61,892.8,22.68,
4452702,-0.04,-0.07,1.0,-3.97,2.75,-0.43,892.83,22.69,
4452740,-0.03,-0.07,1.05,-3.91,3.23,-0.43,892.81,22.68,
4452779,-0.03,-0.08,1.11,-3.66,4.15,-0.37,892.76,22.69,
4452817,-0.04,-0.06,1.19,-3.36,3.3,-0.31,892.74,22.69,
4452855,-0.07,-0.08,1.19,-3.72,3.54,-0.12,892.74,22.71,
4452893,-0.05,-0.06,1.28,-3.78,4.15,-0.12,892.73,22.68,
4452932,-0.04,-0.07,1.36,-4.09,4.27,0.06,892.68,22.69,
4452982,-0.05,-0.06,1.38,-4.52,4.52,0.12,892.67,22.69,
4453020,-0.04,-0.03,1.48,-4.27,4.64,0.18,892.66,22.68,
4453058,-0.05,-0.05,1.43,-5.25,5.74,0.49,892.61,22.7,
4453096,-0.07,-0.05,1.46,-5.0,4.94,0.55,892.56,22.7,
4453135,-0.06,-0.06,1.44,-5.55,6.16,0.61,892.55,22.68,
4453173,-0.04,-0.05,1.42,-5.13,5.98,0.67,892.52,22.68,
4453211,-0.05,-0.04,1.49,-4.64,6.77,1.1,892.55,22.69,
4453250,-0.03,-0.05,1.45,-4.64,6.77,1.1,892.44,22.68,
4453288,-0.07,-0.05,1.47,-4.33,6.35,1.46,892.45,22.69,
4453326,-0.05,-0.05,1.43,-4.46,6.41,1.89,892.49,22.7,
4453376,-0.06,-0.05,1.43,-4.33,6.41,1.95,892.39,22.68,
4453414,-0.05,-0.06,1.34,-4.46,7.32,2.2,892.4,22.68,
4453453,-0.03,-0.05,1.4,-4.09,6.23,2.08,892.4,22.7,
4453491,-0.04,-0.05,1.41,-3.91,7.14,2.38,892.37,22.7,
4453529,-0.05,-0.05,1.37,-3.66,6.71,2.62,892.26,22.69,
4453567,-0.03,-0.05,1.44,-4.03,6.84,2.56,892.29,22.7,
4453606,-0.05,-0.06,1.38,-4.33,7.08,2.81,892.26,22.7,
4453644,-0.05,-0.05,1.45,-4.46,6.1,3.05,892.17,22.69,
4453682,-0.03,-0.05,1.41,-4.88,6.47,3.11,892.15,22.69,
4453732,-0.04,-0.03,1.48,-4.52,4.76,3.48,892.19,22.69,
4453771,-0.03,-0.05,1.42,-4.52,4.94,3.54,892.11,22.69,
4453809,-0.04,-0.05,1.46,-3.85,3.42,3.72,892.15,22.69,
4453847,-0.03,-0.05,1.45,-3.48,3.91,3.78,892.11,22.69,
4453886,-0.04,-0.05,1.43,-2.99,2.62,3.97,892.08,22.69,
4453924,-0.04,-0.05,1.42,-2.26,1.83,4.09,892.01,22.69,
4453962,-0.04,-0.06,1.37,-2.2,2.01,4.09,892.02,22.69,
4454000,-0.04,-0.05,1.35,-2.14,2.08,4.21,892.03,22.71,
4454039,-0.04,-0.04,1.31,-2.08,2.08,4.39,891.97,22.7,
4454077,-0.03,-0.05,1.29,-1.89,2.01,4.21,891.96,22.69,
4454127,-0.02,-0.06,1.28,-1.53,2.5,4.21,891.93,22.68,
4454165,-0.01,-0.06,1.27,-1.22,2.32,4.21,891.91,22.7,
4454204,-0.02,-0.06,1.24,-0.79,2.38,4.03,891.85,22.7,
4454242,-0.03,-0.06,1.2,-0.67,2.75,4.03,891.8,22.69,
4454280,-0.02,-0.05,1.2,-0.31,2.5,4.15,891.81,22.69,
4454318,-0.02,-0.06,1.13,-0.24,2.87,3.97,891.75,22.68,
4454357,-0.03,-0.06,1.13,-0.43,2.56,4.09,891.64,22.69,
4454395,-0.02,-0.06,1.09,-0.98,3.11,3.85,891.64,22.69,
4454433,-0.02,-0.06,1.12,-1.46,2.5,3.78,891.59,22.7,
4454509,-0.02,-0.06,1.14,-2.26,2.5,3.91,891.53,22.67,
4454548,-0.01,-0.05,1.2,-2.14,2.81,3.72,891.47,22.67,
4454586,-0.01,-0.05,1.19,-2.38,2.81,3.85,891.44,22.68,
4454676,-0.01,-0.05,1.16,-2.38,3.42,3.72,891.34,22.64,
4454714,-0.01,-0.05,1.14,-2.56,3.23,3.48,891.29,22.65,
4454752,-0.02,-0.04,1.17,-2.81,3.3,3.54,891.28,22.68,
4454791,-0.0,-0.05,1.13,-2.75,4.03,3.48,891.24,22.67,
4454829,-0.01,-0.03,1.22,-2.08,2.26,3.23,891.24,22.68,
4454867,0.0,-0.04,1.2,-1.89,2.01,3.36,891.22,22.67,
4454906,-0.01,-0.04,1.2,-0.55,0.92,3.42,891.16,22.67,
4454956,-0.0,-0.05,1.14,0.43,1.53,3.17,891.13,22.67,
4454994,-0.01,-0.03,1.15,1.83,0.31,3.17,891.1,22.67,
4455032,-0.02,-0.05,1.04,2.5,1.83,3.23,891.08,22.67,
4455070,-0.01,-0.05,1.03,3.42,0.61,2.99,891.02,22.68,
4455109,-0.01,-0.05,1.03,4.15,0.92,2.75,891.0,22.69,
4455147,-0.02,-0.05,0.97,4.33,0.37,2.93,890.95,22.69,
4455185,-0.01,-0.04,0.98,4.82,0.37,2.87,890.91,22.68,
4455223,-0.0,-0.05,0.94,4.7,1.04,2.69,890.86,22.7,
4455262,-0.0,-0.05,0.95,5.07,0.37,2.81,890.81,22.69,
4455300,-0.02,-0.06,0.9,5.13,0.98,2.81,890.73,22.68,
4455350,-0.02,-0.05,0.88,5.07,1.34,2.56,890.73,22.68,
4455388,-0.01,-0.04,0.89,5.37,1.46,2.69,890.61,22.69,
4455426,-0.02,-0.05,0.81,5.37,1.34,2.62,890.6,22.68,
4455465,-0.03,-0.05,0.81,5.37,1.77,2.62,890.55,22.69,
4455503,-0.02,-0.06,0.8,5.43,2.2,2.75,890.52,22.68,
4455541,-0.01,-0.05,0.81,5.49,1.77,2.56,890.5,22.69,
4455580,-0.02,-0.05,0.8,5.31,1.95,2.75,890.42,22.69,
4455618,-0.02,-0.05,0.82,5.43,2.62,2.69,890.41,22.69,
4455656,-0.01,-0.06,0.8,5.43,3.36,2.75,890.36,22.7,
4455706,-0.02,-0.04,0.82,5.49,2.99,2.75,890.31,22.67,
4455744,-0.03,-0.06,0.78,5.49,3.85,2.75,890.37,22.7,
4455783,-0.01,-0.05,0.78,5.31,4.27,2.81,890.29,22.69,
4455821,-0.01,-0.05,0.77,5.25,4.27,2.75,890.2,22.69,
4455859,-0.02,-0.05,0.75,5.49,4.15,2.87,890.09,22.69,
4455898,-0.02,-0.05,0.74,5.13,4.27,2.99,890.07,22.68,
4455936,-0.01,-0.05,0.74,5.25,4.33,3.11,890.09,22.69,
4455974,-0.01,-0.05,0.74,5.13,4.09,3.17,890.05,22.69,
4456012,-0.02,-0.05,0.75,5.13,3.91,3.05,889.98,22.7,
4456051,-0.01,-0.05,0.74,5.13,3.97,3.23,889.92,22.69,
4456101,-0.01,-0.04,0.77,5.07,3.54,3.17,889.96,22.69,
4456139,-0.01,-0.04,0.78,5.19,3.6,3.3,889.87,22.68,
4456177,-0.01,-0.04,0.79,5.43,3.72,3.36,889.94,22.68,
4456216,-0.0,-0.04,0.8,6.1,3.85,3.23,889.88,22.69,
4456254,-0.0,-0.05,0.76,6.29,3.78,3.17,889.82,22.68,
4456292,-0.01,-0.04,0.74,6.47,4.03,3.17,889.82,22.68,
4456331,-0.0,-0.04,0.72,6.53,4.82,3.05,889.73,22.68,
4456369,-0.0,-0.05,0.7,6.84,4.76,2.99,889.69,22.68,
4456407,-0.0,-0.04,0.7,6.9,4.88,3.17,889.74,22.69,
4456445,-0.01,-0.04,0.72,6.96,5.19,3.11,889.69,22.69,
4456495,-0.01,-0.05,0.69,6.59,5.74,2.99,889.61,22.68,
4456534,-0.0,-0.05,0.71,6.53,5.92,2.87,889.59,22.69,
4456572,-0.01,-0.04,0.7,6.47,5.92,2.93,889.55,22.68,
4456610,-0.01,-0.04,0.68,6.23,6.41,2.99,889.57,22.68,
4456649,-0.0,-0.04,0.69,6.29,6.47,2.87,889.48,22.68,
4456687,-0.01,-0.04,0.68,6.23,6.47,2.69,889.45,22.68,
4456725,-0.01,-0.04,0.68,5.98,6.59,2.87,889.41,22.68,
4456763,-0.01,-0.04,0.7,6.23,6.59,2.81,889.47,22.71,
4456802,0.0,-0.04,0.7,6.29,6.41,2.81,889.43,22.7,
4456852,-0.0,-0.04,0.71,6.65,5.8,2.81,889.39,22.68,
4456890,-0.0,-0.04,0.73,7.08,5.62,2.87,889.36,22.68,
4456928,0.01,-0.04,0.74,7.39,5.0,2.62,889.39,22.71,
4456967,0.01,-0.04,0.73,8.0,4.39,2.62,889.36,22.7,
4457005,0.0,-0.03,0.7,8.48,3.6,2.5,889.31,22.69,
4457043,0.0,-0.04,0.68,9.34,3.72,2.2,889.29,22.68,
4457081,0.02,-0.02,0.64,9.64,3.72,2.14,889.32,22.68,
4457120,0.01,-0.04,0.64,10.68,3.42,1.77,889.23,22.69,
4457158,0.01,-0.05,0.59,10.93,3.72,1.71,889.2,22.68,
4457196,0.0,-0.04,0.59,11.35,3.54,1.59,889.21,22.7,
4457246,-0.0,-0.05,0.55,11.23,3.97,1.46,889.12,22.67,
4457285,0.01,-0.05,0.54,10.99,3.66,1.28,889.22,22.7,
4457323,0.01,-0.04,0.52,10.8,3.78,1.04,889.06,22.68,
4457361,0.01,-0.05,0.5,10.56,3.66,0.92,889.09,22.69,
4457400,0.01,-0.04,0.5,10.44,3.48,0.79,889.07,22.69,
4457438,0.01,-0.04,0.48,9.83,3.6,0.67,889.04,22.69,
4457476,0.0,-0.04,0.48,9.52,3.54,0.73,888.98,22.69,
4457514,-0.0,-0.05,0.46,8.48,3.11,0.67,889.02,22.69,
4457553,0.01,-0.05,0.49,8.0,2.5,0.43,888.89,22.68,
4457591,0.0,-0.05,0.49,7.26,2.32,0.37,888.98,22.7,
4457667,0.01,-0.05,0.52,5.86,1.4,0.12,888.91,22.66,
4457705,0.0,-0.04,0.54,5.25,1.4,0.12,888.95,22.66,
4457744,0.0,-0.05,0.57,4.58,1.1,0.06,888.9,22.67,
4457833,-0.0,-0.04,0.6,3.66,0.79,-0.06,888.87,22.63,
4457872,-0.0,-0.04,0.61,3.11,0.85,-0.12,888.88,22.66,
4457910,-0.0,-0.04,0.63,2.5,0.67,-0.06,888.94,22.66,
4457948,-0.01,-0.04,0.64,1.89,0.43,-0.18,888.88,22.66,
4457986,-0.01,-0.03,0.7,1.71,0.18,-0.18,888.89,22.66,
4458025,-0.0,-0.03,0.72,1.65,0.18,-0.12,888.92,22.66,
4458075,-0.01,-0.02,0.79,1.53,-0.06,-0.18,888.83,22.65,
4458113,0.0,-0.02,0.81,1.65,0.0,-0.18,888.85,22.66,
4458151,-0.0,-0.02,0.83,2.08,-0.24,-0.12,888.86,22.67,
4458190,-0.01,-0.02,0.82,2.26,-0.31,-0.12,888.87,22.67,
4458228,-0.01,-0.02,0.84,2.75,-0.18,-0.18,888.9,22.68,
4458266,-0.01,-0.02,0.82,2.62,0.18,-0.37,888.91,22.67,
4458305,-0.01,-0.01,0.85,2.75,0.37,-0.37,888.83,22.66,
4458343,-0.01,-0.01,0.86,3.17,0.79,-0.43,888.83,22.68,
4458381,-0.01,-0.02,0.84,3.17,1.28,-0.37,888.83,22.67,
4458419,-0.02,-0.01,0.86,3.42,1.22,-0.49,888.89,22.69,
4458469,-0.02,-0.01,0.85,3.54,1.77,-0.43,888.84,22.68,
4458508,-0.01,-0.01,0.86,3.48,1.59,-0.37,888.85,22.67,
4458546,-0.02,-0.01,0.84,3.42,1.71,-0.43,888.75,22.67,
4458584,-0.02,-0.01,0.85,3.17,2.32,-0.37,888.8,22.68,
4458623,-0.01,-0.01,0.87,2.81,2.5,-0.43,888.8,22.69,
4458661,-0.01,-0.01,0.89,2.93,2.44,-0.31,888.85,22.69,
4458699,-0.02,-0.01,0.9,3.05,3.23,-0.37,888.78,22.69,
4458737,-0.02,-0.01,0.9,3.36,3.36,-0.12,888.83,22.7,
4458776,-0.01,-0.01,0.9,3.72,3.54,-0.43,888.77,22.68,
4458826,-0.02,-0.01,0.88,4.15,4.58,-0.49,888.78,22.67,
4458864,-0.01,-0.01,0.88,4.33,4.94,-0.49,888.86,22.68,
4458902,-0.01,-0.01,0.87,4.46,5.55,-0.61,888.83,22.69,
4458941,-0.02,-0.01,0.87,4.7,6.16,-0.55,888.78,22.69,
4458979,-0.02,-0.01,0.88,4.39,6.53,-0.61,888.8,22.69,
4459017,-0.01,-0.01,0.88,4.82,6.65,-0.55,888.76,22.69,
4459055,-0.02,-0.01,0.86,4.39,6.77,-0.49,888.81,22.7,
4459093,-0.02,-0.01,0.87,4.21,6.65,-0.31,888.77,22.69,
4459132,-0.02,-0.01,0.85,3.85,6.65,-0.43,888.75,22.68,
4459170,-0.02,-0.01,0.87,3.54,6.04,-0.24,888.73,22.69,
4459220,-0.02,-0.01,0.87,3.17,5.74,-0.06,888.75,22.68,
4459258,-0.01,-0.01,0.88,2.75,5.0,-0.12,888.71,22.69,
4459296,-0.03,-0.0,0.9,2.32,4.58,0.12,888.7,22.69,
4459335,-0.02,-0.0,0.9,2.01,4.39,0.18,888.73,22.69,
4459373,-0.02,-0.0,0.91,1.71,3.97,0.12,888.73,22.68,
4459411,-0.02,-0.0,0.9,1.22,3.85,0.24,888.79,22.68,
4459449,-0.02,0.0,0.92,1.1,3.66,0.18,888.74,22.69,
4459488,-0.02,0.0,0.94,0.61,3.72,0.18,888.78,22.69,
4459526,-0.02,0.0,0.95,0.24,3.78,0.24,888.79,22.68,
4459576,-0.01,0.0,0.99,0.12,3.48,0.31,888.76,22.69,
4459614,-0.02,0.01,1.0,0.24,3.3,0.49,888.75,22.68,
4459652,-0.03,0.01,1.03,0.12,2.93,0.55,888.75,22.7,
4459691,-0.02,0.02,1.06,0.18,2.75,0.49,888.78,22.7,
4459729,-0.02,0.01,1.07,0.67,2.75,0.49,888.78,22.68,
4459767,-0.03,0.01,1.07,0.98,2.56,0.67,888.81,22.69,
4459805,-0.02,0.01,1.06,1.65,2.62,0.61,888.8,22.7,
4459844,-0.01,0.01,1.07,1.95,2.5,0.49,888.74,22.69,
4459882,-0.02,0.02,1.06,2.38,2.44,0.73,888.78,22.69,
4459920,-0.02,0.01,1.04,2.69,2.69,0.85,888.79,22.71,
4459970,-0.03,0.01,1.03,2.99,2.44,0.67,888.76,22.68,
4460008,-0.01,0.01,1.03,3.36,2.44,0.79,888.82,22.7,
4460047,-0.02,0.0,1.0,3.42,2.2,0.73,888.79,22.69,
4460085,-0.01,0.01,1.03,3.66,1.77,0.98,888.78,22.7,
4460123,-0.02,0.01,1.01,3.72,2.14,0.79,888.74,22.69,
4460162,-0.02,0.01,1.04,3.97,1.46,0.92,888.72,22.7,
4460200,-0.02,-0.0,1.0,3.54,1.83,0.79,888.77,22.69,
4460238,-0.03,0.0,1.0,3.85,1.77,0.73,888.77,22.7,
4460276,-0.01,0.0,1.01,3.72,2.32,0.85,888.78,22.7,
4460315,-0.01,0.0,1.0,3.48,2.26,0.85,888.78,22.7,
4460365,-0.01,0.0,1.0,3.54,2.81,0.73,888.8,22.68,
4460403,-0.01,-0.0,1.0,3.72,2.99,0.67,888.84,22.7,
4460441,-0.01,-0.0,1.0,4.03,2.75,0.79,888.77,22.7,
4460479,-0.02,-0.01,0.96,4.27,3.11,0.73,888.82,22.7,
4460518,-0.01,-0.0,0.96,4.52,3.23,0.79,888.79,22.7,
4460556,-0.01,-0.01,0.91,4.52,3.85,0.67,888.79,22.7,
4460594,-0.01,-0.01,0.91,4.52,3.36,0.73,888.72,22.7,
4460632,-0.02,-0.02,0.89,4.52,3.72,0.79,888.78,22.69,
4460671,-0.01,-0.02,0.87,4.39,3.97,0.67,888.81,22.7,
4460709,-0.01,-0.02,0.86,4.09,4.03,0.73,888.73,22.7,
4460785,-0.02,-0.03,0.86,3.54,4.03,0.85,888.74,22.67,
4460823,-0.01,-0.02,0.88,3.3,3.6,0.85,888.76,22.69,
4460861,-0.01,-0.01,0.9,2.93,3.11,0.61,888.77,22.68,
4460951,-0.0,-0.02,0.89,2.5,2.81,0.67,888.79,22.65,
4460990,-0.0,-0.02,0.91,2.69,2.56,0.55,888.8,22.67,
4461028,-0.01,-0.03,0.88,2.44,2.81,0.73,888.78,22.67,
4461066,-0.01,-0.02,0.88,2.32,2.44,0.61,888.84,22.67,
4461105,-0.01,-0.02,0.87,2.14,2.81,0.61,888.81,22.68,
4461143,-0.01,-0.03,0.88,2.14,2.2,0.67,888.81,22.67,
4461193,-0.01,-0.03,0.88,2.01,2.69,0.61,888.8,22.67,
4461231,-0.01,-0.02,0.88,1.95,2.81,0.55,888.81,22.68,
4461269,-0.0,-0.03,0.88,1.95,2.69,0.43,888.85,22.68,
4461308,-0.01,-0.03,0.89,2.2,2.93,0.31,888.87,22.68,
4461346,-0.02,-0.04,0.83,1.89,3.66,0.31,888.81,22.68,
4461384,-0.01,-0.01,0.89,2.14,3.66,0.24,888.81,22.68,
4461423,-0.01,-0.02,0.89,2.01,3.97,0.24,888.83,22.68,
4461461,-0.02,-0.03,0.96,2.2,3.78,0.12,888.81,22.69,
4461499,-0.02,-0.03,0.99,2.44,4.46,0.0,888.79,22.69,
4461537,-0.02,-0.02,1.01,2.5,4.39,0.06,888.85,22.69,
4461587,-0.02,-0.01,1.0,2.44,4.94,0.06,888.79,22.68,
4461626,-0.02,-0.02,1.02,2.69,4.76,-0.12,888.86,22.68,
4461664,-0.03,-0.02,1.01,2.62,5.49,0.0,888.8,22.68,
4461702,-0.02,-0.01,1.01,2.44,5.19,-0.06,888.81,22.68,
4461740,-0.01,-0.01,1.03,2.69,6.29,-0.12,888.81,22.68,
4461779,-0.01,-0.01,1.04,2.5,6.04,-0.12,888.86,22.7,
4461817,-0.02,-0.01,1.07,2.69,5.74,-0.24,888.86,22.69,
4461855,-0.02,-0.01,1.07,2.69,5.98,-0.24,888.89,22.69,
4461893,-0.02,-0.01,1.08,2.81,5.8,-0.31,888.89,22.71,
4461932,-0.01,-0.01,1.05,2.75,5.62,-0.18,888.84,22.69,
4461982,-0.02,-0.01,1.03,2.75,4.82,-0.37,888.85,22.69,
4462020,-0.01,-0.02,1.03,2.62,4.27,-0.43,888.82,22.69,
4462058,-0.01,-0.01,1.06,2.56,3.54,-0.37,888.87,22.69,
4462096,-0.02,-0.01,1.06,2.56,2.93,-0.31,888.87,22.69,
4462135,-0.02,-0.01,1.06,2.5,2.32,-0.12,888.89,22.7,
4462173,-0.02,-0.01,1.07,2.69,1.89,-0.37,888.86,22.68,
4462211,-0.02,-0.01,1.07,2.75,1.04,-0.12,888.83,22.69,
4462250,-0.02,-0.02,1.06,2.93,0.49,-0.37,888.88,22.7,
4462288,-0.02,-0.02,1.02,2.99,0.73,-0.24,888.86,22.7,
4462338,-0.02,-0.02,1.03,3.11,0.24,-0.18,888.91,22.71,
4462376,-0.02,-0.02,1.01,2.87,0.31,-0.43,888.91,22.7,
4462414,-0.03,-0.02,1.0,3.17,0.0,-0.49,888.87,22.69,
4462452,-0.03,-0.03,0.98,2.93,0.49,-0.55,888.89,22.69,
4462491,-0.02,-0.03,0.98,3.05,0.37,-0.61,888.93,22.7,
4462529,-0.03,-0.03,0.98,2.87,0.24,-0.73,888.92,22.7,
4462567,-0.04,-0.03,0.98,2.87,0.55,-0.79,888.88,22.71,
4462606,-0.04,-0.03,0.97,2.93,0.85,-0.73,888.89,22.7,
4462644,-0.03,-0.03,0.96,2.81,1.04,-0.73,888.94,22.7,
4462694,-0.03,-0.03,0.95,2.56,1.1,-0.67,888.9,22.69,
4462732,-0.03,-0.04,0.94,2.32,1.28,-0.61,888.89,22.7,
4462770,-0.04,-0.04,0.94,2.2,1.53,-0.67,888.9,22.7,
4462809,-0.03,-0.04,0.93,2.08,1.89,-0.61,888.91,22.71,
4462847,-0.04,-0.04,0.94,2.08,1.77,-0.73,888.88,22.69,
4462885,-0.03,-0.04,0.93,1.59,2.14,-0.85,888.91,22.7,
4462924,-0.03,-0.04,0.92,1.28,2.5,-0.92,888.91,22.7,
4462962,-0.04,-0.04,0.9,1.22,2.87,-0.73,888.94,22.71,
4463000,-0.03,-0.04,0.9,1.1,3.11,-0.67,888.94,22.71,
4463038,-0.04,-0.04,0.89,0.92,3.6,-0.98,888.95,22.71,
4463088,-0.03,-0.04,0.91,0.85,3.3,-0.85,888.94,22.69,
4463127,-0.03,-0.04,0.95,0.61,3.78,-0.73,888.9,22.7,
4463165,-0.03,-0.03,0.98,0.37,3.78,-0.73,888.9,22.7,
4463203,-0.03,-0.03,0.99,0.18,3.6,-0.67,888.92,22.7,
4463242,-0.04,-0.03,1.02,-0.12,3.48,-0.67,888.91,22.7,
4463280,-0.04,-0.03,1.03,-0.18,3.05,-0.37,888.95,22.71,
4463318,-0.04,-0.03,1.05,-0.12,1.95,-0.37,888.92,22.7,
4463356,-0.04,-0.03,1.06,-0.31,2.08,-0.37,888.97,22.71,
4463395,-0.03,-0.02,1.06,-0.24,1.95,-0.37,888.92,22.69,
4463445,-0.04,-0.03,1.07,-0.31,1.22,-0.18,888.94,22.69,
4463483,-0.05,-0.03,1.07,-0.06,1.04,-0.12,888.97,22.69,
4463521,-0.03,-0.03,1.08,-0.06,1.04,0.0,888.9,22.69,
4463559,-0.04,-0.04,1.09,-0.06,0.67,0.06,888.89,22.69,
4463598,-0.04,-0.03,1.07,-0.06,0.98,-0.06,888.99,22.7,
4463636,-0.03,-0.02,1.09,0.31,1.46,-0.18,888.94,22.71,
4463674,-0.03,-0.02,1.08,0.49,2.08,0.06,888.97,22.69,
4463713,-0.04,-0.03,1.09,0.67,1.77,-0.06,888.94,22.7,
4463751,-0.05,-0.03,1.1,0.92,2.38,0.0,888.98,22.71,
4463789,-0.04,-0.03,1.08,1.16,3.17,-0.06,888.94,22.7,
4463865,-0.05,-0.03,1.05,1.65,3.36,0.12,888.95,22.66,
4463903,-0.05,-0.03,1.04,1.77,3.72,0.18,888.93,22.68,
4463942,-0.05,-0.03,1.0,1.83,4.03,0.24,888.98,22.67,
4464032,-0.04,-0.04,0.99,2.32,4.7,0.37,889.03,22.65,
4464070,-0.05,-0.04,1.0,2.44,4.64,0.43,889.0,22.67,
4464108,-0.03,-0.03,1.0,2.69,4.94,0.55,888.95,22.66,
4464146,-0.04,-0.04,0.98,2.69,5.0,0.61,888.98,22.68,
4464185,-0.05,-0.04,0.98,2.62,5.49,0.61,888.98,22.68,
4464223,-0.05,-0.03,0.98,2.5,4.94,0.73,888.99,22.68,
4464273,-0.05,-0.04,0.98,2.5,4.94,0.79,888.97,22.68,
4464311,-0.04,-0.04,0.96,2.38,5.19,0.61,888.94,22.68,
4464350,-0.05,-0.04,0.94,2.32,5.68,0.79,888.97,22.68,
4464388,-0.04,-0.04,0.93,2.38,6.23,0.79,888.97,22.69,
4464426,-0.05,-0.03,0.88,1.95,6.47,0.85,888.98,22.69,
4464464,-0.05,-0.04,0.92,2.38,5.92,0.98,888.97,22.68,
4464503,-0.05,-0.05,0.87,1.89,6.84,0.92,888.99,22.68,
4464541,-0.05,-0.04,0.92,2.26,6.71,0.98,889.01,22.69,
4464579,-0.04,-0.05,0.9,2.2,7.81,0.79,888.94,22.68,
4464618,-0.03,-0.04,0.87,2.26,8.12,1.1,889.02,22.69,
4464667,-0.04,-0.04,0.9,2.38,8.97,1.16,888.99,22.67,
4464706,-0.05,-0.06,0.83,2.5,9.09,1.1,889.03,22.7,
4464744,-0.05,-0.05,0.85,2.99,9.34,1.1,889.07,22.69,
4464782,-0.04,-0.05,0.84,2.87,10.07,1.28,889.02,22.69,
4464821,-0.03,-0.05,0.8,3.3,8.97,1.16,889.06,22.69,
4464859,-0.02,-0.05,0.81,3.23,8.18,1.16,889.0,22.69,
4464897,-0.02,-0.07,0.78,3.42,8.61,1.04,888.99,22.68,
4464935,-0.02,-0.07,0.7,2.93,7.69,0.98,889.02,22.69,
4464974,-0.03,-0.04,0.72,3.6,6.35,1.1,889.03,22.69,
4465012,-0.01,-0.07,0.62,2.81,5.92,0.85,889.02,22.7,
4465062,-0.03,-0.05,0.72,3.48,4.09,0.85,889.03,22.68,
4465100,-0.02,-0.08,0.68,3.05,4.27,0.85,889.02,22.68,
4465138,-0.01,-0.05,0.71,2.56,3.97,0.61,888.98,22.68,
4465177,-0.05,-0.05,0.74,2.62,3.6,0.73,889.02,22.7,
4465215,-0.02,-0.05,0.79,1.46,3.54,0.37,889.0,22.69,
4465253,-0.01,-0.04,0.87,1.1,4.15,0.18,889.06,22.69,
4465291,-0.02,-0.04,0.92,0.0,5.68,0.24,889.06,22.69,
4465330,-0.02,-0.04,1.0,-0.31,5.31,0.12,889.03,22.69,
4465368,-0.04,-0.03,1.05,-0.85,6.04,-0.18,889.06,22.7,
4465418,-0.02,-0.04,1.11,-0.79,6.53,-0.31,889.06,22.69,
4465456,-0.02,-0.02,1.12,-1.34,7.81,-0.79,889.1,22.69,
4465494,-0.02,-0.02,1.16,-0.85,7.81,-0.79,889.06,22.69,
4465533,-0.03,-0.02,1.14,-0.98,8.54,-0.85,889.14,22.71,
4465571,-0.02,-0.01,1.19,-0.67,7.93,-1.22,889.09,22.68,
4465609,-0.02,-0.02,1.18,-0.18,8.0,-1.22,889.09,22.69,
4465648,-0.04,-0.01,1.22,0.37,6.29,-1.16,889.07,22.7,
4465686,-0.04,-0.01,1.24,1.16,5.8,-1.22,889.07,22.69,
4465724,-0.0,-0.0,1.24,1.4,4.39,-1.04,889.09,22.69,
4465762,-0.04,0.0,1.24,1.95,3.05,-0.79,889.08,22.69,
4465812,-0.02,-0.03,1.2,2.38,2.2,-0.61,889.12,22.68,
4465851,-0.05,-0.02,1.2,2.38,0.24,-0.55,889.07,22.69,
4465889,-0.06,-0.02,1.16,2.99,-0.55,-0.37,889.14,22.7,
4465927,-0.03,-0.02,1.17,3.48,-1.95,-0.55,889.11,22.68,
4465966,-0.03,-0.02,1.18,3.6,-2.93,-0.37,889.11,22.69,
4466004,-0.04,-0.03,1.17,3.72,-4.88,-0.12,889.05,22.68,
4466042,-0.04,-0.04,1.16,3.6,-5.49,-0.18,889.09,22.68,
4466081,-0.03,-0.03,1.15,3.54,-6.1,-0.37,889.12,22.69,
4466119,-0.04,-0.03,1.14,3.36,-6.29,-0.18,889.17,22.69,
4466169,-0.05,-0.03,1.09,3.48,-6.71,-0.31,889.19,22.69,
4466207,-0.05,-0.03,1.03,3.36,-6.53,-0.31,889.12,22.67,
4466245,-0.05,-0.03,1.02,3.36,-6.96,-0.18,889.17,22.69,
4466284,-0.05,-0.04,1.03,3.3,-6.59,-0.24,889.24,22.7,
4466322,-0.05,-0.04,1.02,2.87,-5.86,-0.37,889.2,22.69,
4466360,-0.05,-0.05,1.02,2.75,-4.76,-0.43,889.25,22.68,
4466399,-0.06,-0.04,1.02,2.62,-4.03,-0.49,889.27,22.69,
4466437,-0.06,-0.05,1.02,2.5,-2.93,-0.37,889.29,22.69,
4466475,-0.06,-0.05,1.0,2.14,-1.83,-0.37,889.28,22.69,
4466525,-0.07,-0.05,1.01,1.83,-1.22,-0.24,889.29,22.69,
4466564,-0.06,-0.05,0.97,1.53,-0.61,-0.12,889.28,22.68,
4466602,-0.05,-0.04,1.0,1.46,-0.43,-0.18,889.3,22.68,
4466640,-0.05,-0.05,0.99,1.22,0.37,0.18,889.27,22.68,
4466679,-0.06,-0.05,0.99,0.85,0.12,0.18,889.27,22.69,
4466717,-0.06,-0.05,1.0,0.92,0.61,0.37,889.33,22.69,
4466755,-0.06,-0.04,0.99,0.73,0.85,0.37,889.29,22.69,
4466794,-0.04,-0.05,1.01,0.55,1.1,0.61,889.27,22.7,
4466832,-0.05,-0.05,1.0,0.43,1.4,0.61,889.3,22.7,
4466870,-0.06,-0.05,1.0,0.43,1.1,0.85,889.32,22.69,
4466946,-0.05,-0.04,1.0,0.49,1.34,0.92,889.33,22.67,
4466984,-0.05,-0.04,1.0,0.49,1.34,1.28,889.28,22.68,
4467023,-0.05,-0.05,1.0,0.61,1.22,1.28,889.36,22.68,
4467113,-0.05,-0.05,0.98,0.79,0.24,1.77,889.34,22.65,
4467151,-0.04,-0.04,0.98,0.92,0.12,1.83,889.34,22.66,
4467189,-0.05,-0.05,0.96,1.1,-0.24,1.89,889.35,22.67,
4467227,-0.04,-0.05,1.01,1.1,-0.61,2.2,889.36,22.67,
4467266,-0.04,-0.05,1.03,1.16,-0.43,2.2,889.36,22.68,
4467304,-0.04,-0.05,1.05,1.16,0.0,2.44,889.41,22.69,
4467342,-0.05,-0.05,1.07,1.53,0.12,2.44,889.4,22.68,
4467392,-0.05,-0.04,1.05,1.46,0.37,2.56,889.4,22.67,
4467430,-0.06,-0.04,1.05,1.77,0.85,2.93,889.45,22.68,
4467469,-0.04,-0.04,1.03,1.71,1.04,3.05,889.38,22.67,
4467507,-0.03,-0.04,1.05,1.95,1.16,2.93,889.43,22.68,
4467545,-0.03,-0.05,1.05,1.89,1.34,2.93,889.37,22.67,
4467584,-0.04,-0.05,1.04,2.01,1.28,3.05,889.39,22.68,
4467622,-0.04,-0.05,1.05,1.95,1.89,3.42,889.41,22.68,
4467660,-0.02,-0.05,1.03,1.95,1.89,3.36,889.43,22.68,
4467699,-0.03,-0.04,1.02,1.77,1.89,3.48,889.45,22.69,
4467749,-0.02,-0.05,0.99,1.4,1.16,3.6,889.46,22.67,
4467787,-0.03,-0.06,0.99,1.16,0.98,3.6,889.37,22.67,
4467825,-0.02,-0.05,0.98,1.28,0.79,3.78,889.39,22.66,
4467863,-0.03,-0.05,0.95,1.22,0.37,3.72,889.46,22.68,
4467902,-0.04,-0.05,0.92,1.34,-0.43,3.91,889.51,22.68,
4467940,-0.01,-0.06,0.92,1.22,0.06,3.72,889.45,22.68,
4467978,-0.02,-0.06,0.91,1.34,0.06,3.78,889.47,22.69,
4468017,-0.02,-0.06,0.96,1.65,-0.43,3.91,889.5,22.69,
4468055,-0.02,-0.05,0.93,1.22,0.49,3.85,889.5,22.69,
4468093,-0.02,-0.05,0.97,1.46,0.12,3.66,889.49,22.69,
4468143,-0.01,-0.06,0.98,1.34,0.67,3.72,889.55,22.67,
4468182,-0.02,-0.05,0.99,1.46,0.06,3.54,889.54,22.68,
4468220,-0.02,-0.05,0.98,1.59,0.61,3.78,889.53,22.69,
4468258,-0.01,-0.06,0.96,1.89,0.98,3.78,889.52,22.67,
4468297,-0.02,-0.05,0.94,1.71,0.92,4.03,889.53,22.69,
4468335,-0.02,-0.06,0.91,1.95,1.59,3.97,889.53,22.69,
4468373,-0.01,-0.05,0.89,1.95,1.71,3.78,889.59,22.69,
4468411,-0.01,-0.05,0.9,2.26,1.46,3.66,889.55,22.69,
4468450,0.0,-0.07,0.9,2.14,1.89,3.91,889.5,22.68,
4468488,-0.0,-0.06,0.9,2.14,1.83,3.78,889.56,22.7,
4468538,-0.0,-0.06,0.92,1.95,1.22,3.48,889.51,22.68,
4468576,0.0,-0.06,0.93,2.08,0.98,3.78,889.58,22.68,
4468615,0.0,-0.06,0.97,1.95,0.79,3.42,889.59,22.69,
4468653,-0.01,-0.05,0.98,2.01,0.98,3.42,889.52,22.69,
4468691,-0.01,-0.06,0.96,1.71,1.65,3.48,889.56,22.68,
4468729,-0.0,-0.05,0.97,1.83,1.34,3.42,889.56,22.69,
4468768,-0.0,-0.06,0.98,1.77,1.53,3.05,889.54,22.68,
4468806,-0.01,-0.06,0.97,1.71,1.28,3.17,889.56,22.68,
4468844,-0.0,-0.06,0.94,1.83,1.77,2.99,889.66,22.71,
4468894,-0.0,-0.06,0.89,1.89,2.44,2.81,889.61,22.67,
4468933,-0.01,-0.05,0.9,2.01,2.69,2.99,889.63,22.69,
4468971,0.01,-0.06,0.9,2.01,2.93,2.81,889.64,22.69,
4469009,-0.01,-0.07,0.88,1.89,2.87,2.62,889.62,22.68,
4469048,-0.01,-0.06,0.86,1.71,3.66,2.62,889.64,22.7,
4469086,0.01,-0.06,0.85,1.53,3.91,2.69,889.54,22.69,
4469124,0.02,-0.06,0.88,1.46,2.81,2.62,889.58,22.69,
4469162,0.01,-0.06,0.88,1.16,2.62,2.5,889.6,22.69,
4469201,0.0,-0.06,0.94,1.04,1.95,2.56,889.62,22.69,
4469239,0.01,-0.06,0.98,0.92,1.83,2.44,889.65,22.71,
4469289,-0.0,-0.05,1.01,0.79,0.49,2.62,889.63,22.68,
4469327,-0.0,-0.06,1.0,0.49,0.92,2.38,889.63,22.68,
4469365,0.01,-0.06,0.99,0.18,1.28,2.08,889.63,22.7,
4469404,0.01,-0.05,1.02,0.49,1.65,1.83,889.65,22.69,
4469442,0.01,-0.06,0.97,0.43,2.69,1.83,889.64,22.69,
4469480,0.0,-0.05,1.0,0.73,2.93,1.34,889.64,22.69,
4469519,0.0,-0.05,1.02,0.67,3.23,1.4,889.69,22.69,
4469557,-0.0,-0.05,1.05,0.73,2.93,1.16,889.67,22.7,
4469595,0.0,-0.06,1.05,0.73,2.99,1.1,889.72,22.7,
4469634,-0.0,-0.06,1.05,0.67,3.42,0.92,889.69,22.69,
4469684,-0.01,-0.05,1.05,0.67,3.36,0.79,889.7,22.68,
4469722,-0.01,-0.06,1.04,0.67,3.48,0.79,889.72,22.7,
4469760,-0.01,-0.06,1.03,0.85,3.05,0.79,889.77,22.7,
4469799,-0.01,-0.05,1.08,0.85,2.32,0.73,889.68,22.69,
4469837,-0.0,-0.05,1.1,1.28,2.08,0.79,889.71,22.69,
4469875,-0.01,-0.05,1.09,0.98,1.34,0.79,889.68,22.68,
4469913,0.0,-0.05,1.16,1.46,0.98,0.61,889.75,22.7,
4469952,0.01,-0.07,1.1,1.04,1.53,0.61,889.68,22.69,
4469990,-0.02,-0.05,1.09,1.16,0.31,0.79,889.75,22.69,
4470067,0.0,-0.05,1.04,1.22,1.22,0.61,889.74,22.67,
4470106,-0.03,-0.05,1.07,1.4,0.92,0.55,889.76,22.67,
4470144,-0.02,-0.06,1.07,1.28,2.32,0.43,889.73,22.68,
4470234,-0.02,-0.05,1.12,1.28,3.85,0.24,889.77,22.64,
4470272,-0.03,-0.06,1.1,1.22,3.97,0.12,889.77,22.66,
4470310,-0.03,-0.06,1.06,1.16,4.94,0.24,889.79,22.68,
4470349,-0.02,-0.05,1.04,1.65,4.76,0.24,889.78,22.68,
4470387,-0.03,-0.05,1.04,1.53,5.68,0.37,889.77,22.68,
4470425,-0.01,-0.06,1.03,1.4,6.35,0.37,889.79,22.67,
4470464,-0.03,-0.05,1.05,1.59,5.98,0.67,889.78,22.68,
4470514,-0.02,-0.07,1.01,1.77,6.23,0.73,889.74,22.66,
4470552,-0.03,-0.06,1.03,2.14,5.37,0.79,889.77,22.68,
4470590,-0.01,-0.07,0.98,2.01,5.43,0.92,889.81,22.68,
4470629,0.01,-0.06,0.96,2.2,3.97,0.92,889.81,22.68,
4470667,-0.01,-0.07,0.87,1.95,4.58,0.98,889.79,22.69,
4470705,0.0,-0.08,0.81,1.83,4.09,0.85,889.79,22.68,
4470743,-0.01,-0.07,0.74,1.65,4.33,0.67,889.67,22.67,
4470782,0.01,-0.07,0.7,1.53,4.58,0.67,889.75,22.68,
4470820,0.03,-0.07,0.65,1.65,4.15,0.49,889.76,22.68,
4470858,-0.02,-0.07,0.54,1.34,3.3,0.43,889.75,22.67,
4470908,-0.0,-0.08,0.45,0.67,3.3,0.31,889.75,22.67,
4470947,0.0,-0.07,0.52,1.04,1.65,0.0,889.76,22.68,
4470985,-0.0,-0.08,0.44,0.67,2.32,0.06,889.77,22.68,
4471023,-0.02,-0.06,0.51,0.37,2.08,-0.06,889.79,22.68,
4471061,-0.02,-0.09,0.56,0.43,2.26,0.0,889.8,22.67,
4471100,0.01,-0.08,0.58,-0.49,2.26,-0.31,889.82,22.68,
4471138,-0.01,-0.07,0.76,-0.12,3.17,-0.43,889.78,22.67,
4471176,-0.0,-0.09,0.75,-0.49,3.23,-0.12,889.88,22.68,
4471214,-0.02,-0.07,0.82,-0.18,2.08,-0.37,889.86,22.68,
4471264,-0.02,-0.07,0.79,-0.37,2.08,-0.37,889.91,22.67,
4471303,-0.02,-0.07,0.88,-0.06,2.5,-0.37,889.91,22.68,
4471341,-0.01,-0.08,0.89,-0.31,2.08,-0.24,889.89,22.68,
4471379,-0.02,-0.07,1.05,0.18,0.92,-0.37,889.9,22.69,
4471417,-0.04,-0.09,1.0,-0.43,2.32,-0.31,889.97,22.68,
4471456,-0.02,-0.06,1.15,-0.31,1.34,-0.31,889.96,22.69,
4471494,-0.01,-0.07,1.1,-0.43,1.46,-0.43,889.92,22.68,
4471532,-0.04,-0.06,1.1,-0.73,0.92,-0.24,889.95,22.68,
4471571,-0.02,-0.08,1.16,-0.67,2.32,-0.18,890.0,22.69,
4471609,-0.03,-0.06,1.08,-1.34,2.81,-0.31,889.95,22.69,
4471659,-0.06,-0.06,1.2,-0.49,2.99,-0.24,889.92,22.67,
4471697,-0.04,-0.07,1.18,-0.85,4.21,-0.37,890.01,22.68,
4471736,-0.04,-0.05,1.31,0.12,3.17,-0.49,890.03,22.69,
4471774,-0.03,-0.05,1.26,-0.37,3.97,-0.12,890.0,22.68,
4471812,-0.04,-0.05,1.28,0.31,3.3,-0.06,890.03,22.69,
4471851,-0.05,-0.05,1.23,0.06,3.85,0.12,889.98,22.69,
4471889,-0.05,-0.06,1.22,0.43,3.05,0.37,890.11,22.69,
4471927,-0.04,-0.05,1.13,0.55,2.69,0.31,890.08,22.69,
4471965,-0.06,-0.05,1.1,0.85,2.14,0.49,890.03,22.69,
4472015,-0.05,-0.08,1.15,1.28,2.93,0.55,890.05,22.69,
4472054,-0.03,-0.08,1.12,1.16,3.17,0.55,890.08,22.7,
4472092,-0.06,-0.06,1.12,1.71,1.65,0.79,890.1,22.69,
4472130,-0.06,-0.08,1.02,1.28,3.05,1.1,890.09,22.68,
4472169,-0.05,-0.06,0.99,1.46,2.14,0.73,890.11,22.69,
4472207,-0.05,-0.06,0.99,1.59,1.71,1.16,890.16,22.69,
4472245,-0.05,-0.08,0.9,1.28,2.38,1.4,890.12,22.69,
4472283,-0.05,-0.07,1.0,1.71,3.11,1.28,890.1,22.7,
4472322,-0.04,-0.07,0.99,1.1,4.21,1.65,890.11,22.7,
4472360,-0.06,-0.07,1.02,1.77,3.36,1.59,890.17,22.71,
4472410,-0.06,-0.07,1.0,1.4,4.76,2.01,890.11,22.68,
4472448,-0.05,-0.07,1.02,1.83,4.09,2.01,890.17,22.7,
4472486,-0.05,-0.07,0.98,1.46,4.15,2.2,890.19,22.68,
4472525,-0.05,-0.06,1.0,1.83,2.69,2.44,890.19,22.69,
4472563,-0.05,-0.08,0.98,1.53,3.72,2.87,890.18,22.69,
4472601,-0.03,-0.08,1.01,1.34,3.6,2.81,890.24,22.69,
4472640,-0.05,-0.07,0.99,1.22,4.09,3.05,890.22,22.68,
4472678,-0.04,-0.06,1.03,1.65,3.3,3.17,890.21,22.69,
4472716,-0.04,-0.07,0.98,1.46,3.72,3.3,890.23,22.69,
4472755,-0.05,-0.07,0.98,1.71,3.42,3.36,890.21,22.69,
4472805,-0.03,-0.07,0.96,1.59,3.48,3.66,890.22,22.68,
4472843,-0.04,-0.06,0.98,1.77,2.81,3.85,890.25,22.69,
4472881,-0.04,-0.07,0.98,1.53,3.05,4.03,890.28,22.7,
4472920,-0.03,-0.07,1.0,1.71,2.44,4.03,890.25,22.68,
4472958,-0.03,-0.08,1.01,1.46,2.62,4.03,890.28,22.7,
4472996,-0.02,-0.06,1.01,1.16,1.16,3.97,890.24,22.69,
4473035,-0.04,-0.07,1.03,1.46,1.89,4.27,890.31,22.69,
4473073,-0.03,-0.08,1.0,1.65,1.71,4.27,890.33,22.69,
4473111,-0.03,-0.06,1.04,1.65,0.79,4.27,890.35,22.7,
4473187,-0.03,-0.06,1.01,1.71,0.24,4.46,890.36,22.66,
4473226,-0.02,-0.07,1.04,1.65,0.12,4.52,890.36,22.67,
4473264,-0.02,-0.07,1.02,1.89,-0.55,4.7,890.39,22.68,
4473354,-0.03,-0.06,1.07,2.2,-0.98,4.76,890.43,22.64,
4473392,-0.02,-0.06,1.1,2.08,-1.04,4.76,890.37,22.65,
4473431,-0.03,-0.07,1.13,2.32,-1.46,4.7,890.41,22.66,
4473469,-0.03,-0.06,1.11,2.2,-1.1,4.64,890.44,22.67,
4473507,-0.02,-0.06,1.11,2.14,-0.73,4.88,890.43,22.67,
4473545,-0.03,-0.06,1.09,2.08,-0.73,4.82,890.41,22.66,
4473584,-0.02,-0.07,1.07,2.2,0.0,4.82,890.41,22.68,
4473634,-0.03,-0.07,1.03,1.95,0.92,4.88,890.45,22.66,
4473672,-0.02,-0.06,1.01,1.95,1.77,4.82,890.49,22.68,
4473710,-0.01,-0.06,1.03,2.01,2.08,4.94,890.44,22.68,
4473749,-0.03,-0.07,1.03,2.01,2.62,5.0,890.42,22.67,
4473787,-0.02,-0.07,1.03,1.71,2.56,4.94,890.49,22.68,
4473825,-0.0,-0.06,1.06,1.83,2.5,4.94,890.45,22.68,
4473864,-0.01,-0.06,1.07,1.95,2.69,4.94,890.47,22.68,
4473902,-0.01,-0.05,1.09,2.08,2.81,5.13,890.45,22.69,
4473940,-0.01,-0.06,1.1,2.14,3.17,4.94,890.44,22.67,
4473991,-0.01,-0.06,1.05,2.2,3.3,5.13,890.5,22.67,
4474029,-0.02,-0.05,1.1,2.2,2.93,5.13,890.46,22.66,
4474067,-0.0,-0.06,1.07,2.32,3.6,5.13,890.43,22.68,
4474105,0.0,-0.06,1.07,2.5,2.81,5.07,890.48,22.68,
4474144,-0.01,-0.06,1.09,2.5,3.11,5.13,890.53,22.68,
4474182,0.01,-0.07,1.0,2.08,3.72,5.13,890.41,22.67,
4474220,0.01,-0.05,1.05,2.26,2.56,5.0,890.5,22.69,
4474259,-0.01,-0.07,1.06,2.14,2.38,5.07,890.47,22.68,
4474297,-0.0,-0.06,1.11,2.01,1.65,5.19,890.49,22.69,
4474335,0.01,-0.07,1.16,2.2,2.2,4.94,890.5,22.67,
4474385,-0.01,-0.07,1.07,2.14,3.3,4.82,890.51,22.66,
4474424,0.0,-0.05,1.08,2.01,3.48,4.7,890.47,22.67,
4474462,0.01,-0.06,1.04,1.83,3.85,4.52,890.5,22.66,
4474500,-0.0,-0.06,1.0,1.71,3.6,4.58,890.53,22.69,
4474539,0.01,-0.07,0.97,1.4,3.78,4.52,890.5,22.66,
4474577,0.0,-0.07,0.97,1.46,3.85,4.33,890.51,22.67,
4474615,0.02,-0.06,0.97,1.65,4.64,4.33,890.55,22.67,
4474653,0.02,-0.06,0.96,1.83,4.15,4.21,890.54,22.68,
4474692,-0.0,-0.06,0.98,1.89,3.48,4.39,890.51,22.67,
4474730,0.01,-0.06,0.94,2.01,3.05,3.91,890.53,22.67,
4474780,0.01,-0.05,1.01,2.01,2.26,4.21,890.51,22.67,
4474819,0.01,-0.06,1.04,1.83,1.22,4.15,890.43,22.67,
4474857,-0.0,-0.06,1.08,2.01,0.43,4.15,890.51,22.68,
4474895,0.01,-0.05,1.07,1.71,1.83,3.78,890.53,22.67,
4474933,0.03,-0.03,1.15,1.83,1.65,3.78,890.5,22.67,
4474972,0.01,-0.04,1.16,2.26,2.26,3.85,890.55,22.68,
4475010,0.02,-0.05,1.17,2.5,3.36,3.48,890.56,22.68,
4475048,0.01,-0.05,1.18,2.87,3.54,3.54,890.54,22.68,
4475087,0.02,-0.06,1.16,3.17,2.32,3.3,890.53,22.67,
4475125,-0.0,-0.06,1.12,3.36,2.62,3.36,890.59,22.68,
4475175,0.01,-0.05,1.08,3.54,2.26,3.11,890.53,22.67,
4475213,0.01,-0.06,1.05,3.48,2.26,3.17,890.58,22.68,
4475251,0.01,-0.06,1.02,3.36,2.2,3.23,890.55,22.67,
4475290,0.01,-0.06,1.05,3.54,2.32,3.17,890.53,22.69,
4475328,0.0,-0.06,1.03,2.99,2.75,3.17,890.54,22.68,
4475366,0.01,-0.05,1.08,2.69,2.44,2.99,890.53,22.68,
4475404,-0.0,-0.06,1.05,2.69,3.72,3.05,890.52,22.67,
4475443,0.01,-0.06,1.03,2.75,4.76,2.62,890.59,22.68,
4475481,0.01,-0.06,1.04,2.62,5.43,2.69,890.57,22.68,
4475519,0.02,-0.05,0.99,2.62,5.68,2.56,890.52,22.68,
4475569,0.01,-0.07,0.95,2.69,6.04,2.44,890.5,22.66,
4475608,0.01,-0.07,0.94,2.38,5.98,2.56,890.51,22.67,
4475646,0.0,-0.06,0.95,2.38,5.8,2.5,890.53,22.68,
4475684,0.01,-0.07,0.92,1.95,6.65,2.2,890.55,22.68,
4475722,0.02,-0.05,0.96,2.26,5.98,2.32,890.57,22.68,
4475761,0.01,-0.06,0.92,1.71,7.14,2.14,890.51,22.68,
4475799,0.01,-0.06,0.93,1.53,7.87,2.08,890.55,22.66,
4475837,-0.0,-0.07,0.94,1.65,8.91,1.89,890.48,22.66,
4475876,0.01,-0.06,0.96,1.77,7.69,1.77,890.56,22.68,
4475926,0.01,-0.06,0.96,1.53,7.87,1.83,890.55,22.66,
4475964,0.03,-0.06,1.0,1.46,7.2,1.65,890.58,22.67,
4476002,0.02,-0.06,1.01,1.34,6.77,1.71,890.5,22.67,
4476040,0.02,-0.07,1.04,1.77,4.94,1.83,890.59,22.67,
4476079,0.0,-0.06,1.02,1.71,3.54,1.71,890.55,22.66,
4476117,0.0,-0.07,0.99,1.34,3.36,1.71,890.53,22.68,
4476155,0.02,-0.06,0.99,1.46,2.69,1.4,890.58,22.66,
4476194,0.02,-0.06,0.95,1.28,2.93,1.22,890.51,22.66,
4476232,0.01,-0.06,0.94,1.34,2.87,1.1,890.55,22.66,
4476270,0.0,-0.06,0.94,1.46,4.33,1.1,890.5,22.66,
4476346,0.01,-0.06,1.03,1.04,4.46,0.55,890.58,22.64,
4476384,0.01,-0.06,1.07,0.98,4.82,0.43,890.54,22.65,
4476423,0.01,-0.06,1.08,0.98,4.88,0.43,890.56,22.64,
4476513,-0.0,-0.06,1.03,1.71,4.52,0.37,890.56,22.62,
4476551,0.01,-0.05,1.08,2.32,3.97,0.24,890.57,22.62,
4476589,0.0,-0.08,1.0,2.2,4.94,0.31,890.57,22.63,
4476627,0.0,-0.06,0.99,2.62,3.3,0.0,890.56,22.63,
4476666,0.0,-0.07,1.01,2.99,3.72,0.12,890.58,22.63,
4476704,0.01,-0.08,0.89,2.5,3.54,-0.06,890.6,22.64,
4476742,0.0,-0.05,0.95,2.93,1.77,-0.12,890.61,22.64,
4476792,-0.01,-0.08,0.83,2.5,2.01,0.0,890.55,22.63,
4476830,0.01,-0.08,0.82,2.75,1.16,-0.24,890.54,22.64,
4476869,-0.0,-0.08,0.79,2.81,1.04,-0.31,890.6,22.65,
4476907,0.0,-0.08,0.77,2.75,0.12,-0.37,890.53,22.65,
4476945,-0.0,-0.08,0.75,2.44,0.73,-0.55,890.5,22.65,
4476983,-0.0,-0.07,0.79,2.08,1.77,-0.61,890.53,22.65,
4477022,-0.01,-0.07,0.81,1.46,2.01,-0.73,890.6,22.66,
4477060,-0.02,-0.07,0.83,0.92,1.28,-0.67,890.53,22.65,
4477098,-0.03,-0.08,0.86,0.49,2.44,-0.92,890.57,22.66,
4477137,0.01,-0.06,0.9,0.12,2.87,-1.1,890.58,22.65,
4477187,-0.01,-0.06,0.95,-0.06,3.72,-1.04,890.61,22.65,
4477225,-0.01,-0.06,0.94,-0.37,4.21,-1.04,890.58,22.67,
4477263,-0.02,-0.05,1.03,0.06,4.09,-1.16,890.59,22.65,
4477301,-0.01,-0.07,1.02,0.0,5.31,-1.28,890.59,22.66,
4477340,-0.02,-0.06,1.07,0.31,4.64,-1.28,890.63,22.67,
4477378,-0.03,-0.06,1.07,0.55,5.25,-1.04,890.63,22.65,
4477416,-0.0,-0.06,1.02,0.61,4.76,-1.1,890.62,22.68,
4477454,-0.03,-0.05,1.05,1.22,3.66,-0.98,890.63,22.68,
4477493,-0.02,-0.07,1.03,0.98,3.72,-0.67,890.6,22.68,
4477543,-0.02,-0.05,1.06,1.22,2.69,-0.85,890.67,22.68,
4477581,-0.04,-0.05,1.07,1.46,3.54,-0.73,890.65,22.67,
4477619,-0.03,-0.07,1.05,1.71,3.66,-0.61,890.58,22.66,
4477657,-0.01,-0.06,1.08,1.95,3.54,-0.61,890.64,22.67,
4477696,-0.02,-0.05,1.07,2.08,3.42,-0.55,890.63,22.66,
4477734,-0.04,-0.06,1.09,2.38,3.3,-0.49,890.7,22.68,
4477772,-0.02,-0.07,1.07,2.5,2.62,-0.55,890.67,22.66,
4477811,-0.01,-0.06,1.18,2.99,3.05,-0.67,890.66,22.67,
4477849,0.0,-0.07,1.09,2.44,4.88,-0.49,890.69,22.68,
4477887,-0.01,-0.05,1.12,3.36,3.54,-0.61,890.67,22.68,
4477937,-0.02,-0.06,1.04,2.81,4.03,-0.61,890.67,22.68,
4477975,-0.01,-0.07,1.08,2.93,2.81,-0.85,890.71,22.67,
4478014,-0.01,-0.06,1.06,2.38,3.17,-0.73,890.7,22.68,
4478052,-0.01,-0.07,1.11,2.69,2.56,-0.98,890.71,22.68,
4478090,-0.04,-0.07,1.06,2.69,3.85,-0.73,890.67,22.67,
4478128,-0.01,-0.06,1.16,3.48,3.11,-0.79,890.59,22.66,
4478167,-0.02,-0.08,1.09,2.87,4.46,-1.04,890.69,22.68,
4478205,-0.04,-0.05,1.19,3.23,3.78,-0.85,890.63,22.67,
4478243,-0.03,-0.07,1.12,2.75,4.94,-0.73,890.66,22.68,
4478293,-0.03,-0.05,1.15,3.05,3.66,-0.85,890.69,22.67,
4478332,-0.0,-0.07,1.09,2.81,4.03,-0.67,890.66,22.68,
4478370,-0.03,-0.06,1.06,2.93,2.5,-0.61,890.66,22.68,
4478408,-0.02,-0.06,1.08,2.81,3.6,-0.61,890.69,22.68,
4478446,-0.03,-0.07,1.04,2.93,3.05,-0.67,890.66,22.68,
4478485,-0.02,-0.06,1.09,3.3,1.59,-0.43,890.61,22.68,
4478523,-0.02,-0.07,1.03,2.99,1.77,-0.61,890.6,22.67,
4478561,-0.03,-0.07,1.0,3.23,1.4,-0.43,890.63,22.68,
4478600,-0.03,-0.06,1.01,3.17,0.55,-0.24,890.63,22.68,
4478638,-0.03,-0.07,0.99,3.54,0.24,-0.12,890.57,22.67,
4478688,-0.03,-0.07,0.99,3.54,1.16,-0.37,890.63,22.68,
4478726,-0.02,-0.07,1.01,3.6,0.61,-0.37,890.59,22.66,
4478764,-0.05,-0.08,1.0,3.42,1.1,-0.18,890.62,22.67,
4478802,-0.05,-0.07,0.97,3.48,0.92,-0.12,890.64,22.68,
4478841,-0.04,-0.06,1.01,3.72,0.98,0.0,890.61,22.67,
4478879,-0.04,-0.07,0.98,3.3,1.77,0.06,890.57,22.67,
4478917,-0.04,-0.07,1.02,3.72,1.95,0.12,890.65,22.69,
4478955,-0.04,-0.07,1.06,3.54,2.93,0.24,890.51,22.68,
4478994,-0.05,-0.07,1.01,3.48,3.54,0.31,890.61,22.67,
4479044,-0.04,-0.06,1.03,3.11,3.85,0.43,890.57,22.67,
4479082,-0.05,-0.07,1.01,3.11,3.48,0.43,890.57,22.66,
4479120,-0.05,-0.06,1.0,3.3,3.11,0.61,890.54,22.66,
4479159,-0.05,-0.08,0.99,3.48,3.54,0.67,890.55,22.67,
4479197,-0.06,-0.07,0.94,3.6,3.3,1.04,890.57,22.66,
4479235,-0.05,-0.08,0.95,3.66,3.72,1.1,890.53,22.66,
4479273,-0.06,-0.08,0.9,3.42,3.72,1.22,890.57,22.67,
4479312,-0.04,-0.08,0.92,3.72,4.03,1.22,890.52,22.66,
4479350,-0.04,-0.08,0.86,3.54,4.64,1.4,890.5,22.66,
4479388,-0.05,-0.06,0.83,3.6,4.39,1.53,890.53,22.67,
4479465,-0.06,-0.08,0.77,3.36,5.31,1.89,890.53,22.64,
4479503,-0.04,-0.08,0.79,3.36,5.0,2.08,890.51,22.64,
4479541,-0.05,-0.08,0.73,3.05,5.19,2.2,890.48,22.64,
4479631,-0.05,-0.08,0.78,2.14,4.39,2.44,890.52,22.62,
4479669,-0.03,-0.08,0.85,2.01,3.85,2.62,890.52,22.63,
4479708,-0.03,-0.08,0.86,1.89,3.78,2.69,890.53,22.64,
4479746,-0.06,-0.07,0.86,1.65,3.6,2.87,890.5,22.63,
4479784,-0.02,-0.08,0.91,1.83,3.66,2.93,890.56,22.65,
4479823,-0.03,-0.08,0.9,1.34,3.48,2.87,890.55,22.65,
4479873,-0.03,-0.08,0.97,1.71,2.93,3.05,890.57,22.65,
4479911,-0.04,-0.08,0.91,1.65,2.69,3.11,890.51,22.65,
4479949,-0.03,-0.07,0.99,2.38,1.65,3.3,890.56,22.64,
4479987,-0.01,-0.09,0.88,1.83,2.14,3.23,890.53,22.66,
4480026,-0.04,-0.07,0.91,2.62,1.22,3.05,890.55,22.65,
4480064,-0.03,-0.08,0.84,2.14,2.2,3.23,890.55,22.66,
4480102,-0.01,-0.07,0.93,2.01,1.1,3.17,890.53,22.66,
4480140,-0.03,-0.09,0.87,2.08,1.83,3.42,890.56,22.65,
4480179,-0.05,-0.07,0.89,1.65,1.46,3.3,890.58,22.66,
4480217,-0.02,-0.09,0.91,1.95,2.87,3.11,890.56,22.67,
4480267,-0.01,-0.07,0.88,1.1,1.34,3.36,890.53,22.65,
4480305,-0.02,-0.09,0.86,1.04,2.14,3.36,890.59,22.65,
4480343,-0.01,-0.08,0.85,0.18,1.46,2.99,890.58,22.67,
4480382,-0.03,-0.07,0.97,0.55,0.73,3.23,890.59,22.68,
4480420,-0.02,-0.08,0.99,-0.55,0.61,3.48,890.56,22.68,
4480458,-0.01,-0.07,1.14,-0.37,-0.24,3.48,890.57,22.67,
4480497,0.01,-0.09,1.13,-1.4,1.59,3.48,890.59,22.67,
4480535,-0.0,-0.05,1.23,-1.22,0.55,3.3,890.6,22.67,
4480573,-0.01,-0.08,1.25,-1.59,2.32,3.23,890.57,22.68,
4480611,-0.01,-0.07,1.25,-2.08,3.36,2.93,890.62,22.67,
4480662,0.02,-0.06,1.34,-2.44,4.09,2.75,890.59,22.66,
4480700,0.01,-0.06,1.32,-2.5,3.85,2.44,890.61,22.67,
4480738,-0.01,-0.06,1.32,-2.99,3.54,2.69,890.59,22.68,
4480777,0.02,-0.06,1.42,-2.87,2.2,2.44,890.58,22.68,
4480815,0.01,-0.06,1.45,-3.23,0.79,2.2,890.58,22.69,
4480853,0.01,-0.05,1.5,-3.85,0.12,2.2,890.53,22.68,
4480891,0.01,-0.05,1.52,-3.97,0.43,2.08,890.51,22.68,
4480930,0.0,-0.05,1.54,-3.97,0.0,1.95,890.53,22.67,
4480968,-0.01,-0.06,1.47,-4.27,0.24,2.08,890.6,22.67,
4481018,-0.02,-0.03,1.51,-3.66,-0.49,1.71,890.59,22.67,
4481056,-0.02,-0.04,1.5,-3.42,-0.37,1.71,890.57,22.66,
4481095,-0.01,-0.05,1.55,-2.62,0.55,1.46,890.54,22.67,
4481133,-0.01,-0.06,1.54,-1.83,2.14,1.46,890.57,22.67,
4481171,0.0,-0.04,1.52,-1.16,1.71,1.22,890.54,22.66,
4481209,-0.02,-0.07,1.46,-0.67,2.81,1.1,890.6,22.67,
4481248,-0.02,-0.08,1.36,-0.37,4.39,0.92,890.56,22.66,
4481286,-0.01,-0.05,1.41,0.06,4.46,0.73,890.55,22.66,
4481324,0.0,-0.06,1.29,-0.18,5.19,0.79,890.52,22.67,
4481363,-0.01,-0.06,1.31,-0.18,4.58,0.79,890.48,22.68,
4481413,-0.01,-0.1,1.17,-1.16,5.62,0.79,890.5,22.66,
4481451,-0.02,-0.09,1.23,-0.79,4.15,0.61,890.4,22.65,
4481489,-0.01,-0.09,1.08,-2.01,5.98,0.61,890.46,22.67,
4481528,-0.02,-0.05,1.13,-2.01,3.54,0.79,890.44,22.66,
4481566,-0.0,-0.09,1.07,-2.5,4.03,0.98,890.36,22.65,
4481604,-0.01,-0.08,1.13,-2.69,2.14,0.67,890.4,22.67,
4481643,-0.01,-0.08,1.16,-2.62,2.01,0.85,890.43,22.67,
4481681,-0.0,-0.07,1.24,-2.44,1.04,0.92,890.36,22.66,
4481719,-0.01,-0.06,1.33,-1.95,0.55,0.73,890.36,22.68,
4481769,-0.03,-0.07,1.33,-1.77,0.49,0.98,890.4,22.67,
4481808,-0.02,-0.06,1.37,-1.46,0.24,0.98,890.41,22.67,
4481846,-0.01,-0.08,1.31,-1.04,-15.08,1.1,890.38,22.67,
4481884,-0.01,-0.06,1.33,-0.06,-0.18,0.98,890.38,22.66,
4481923,-0.02,-0.08,1.25,0.61,1.04,0.92,890.35,22.67,
4481961,-0.01,-0.07,1.22,1.4,0.92,0.85,890.29,22.65,
4481999,-0.03,-0.08,1.19,1.77,1.77,0.92,890.28,22.66,
4482037,-0.03,-0.08,1.13,2.08,1.83,0.92,890.24,22.66,
4482076,-0.02,-0.07,1.15,2.2,2.81,0.85,890.23,22.67,
4482114,-0.01,-0.09,1.08,2.2,3.3,0.79,890.3,22.67,
4482164,0.01,-0.08,1.04,2.44,3.17,0.55,890.21,22.66,
4482202,-0.02,-0.08,1.0,2.81,3.48,0.67,890.15,22.66,
4482240,-0.01,-0.08,1.0,2.81,3.66,0.55,890.16,22.67,
4482279,-0.02,-0.08,1.01,3.23,4.09,0.55,890.14,22.67,
4482317,-0.01,-0.08,0.99,3.05,3.91,0.49,890.17,22.66,
4482355,-0.01,-0.07,1.02,2.99,4.33,0.37,890.09,22.66,
4482394,0.01,-0.09,1.02,2.26,4.82,0.24,890.05,22.65,
4482432,0.01,-0.09,0.99,1.71,3.91,0.31,890.07,22.66,
4482470,-0.03,-0.07,0.98,0.92,2.62,0.43,890.03,22.66,
4482546,-0.0,-0.09,0.95,-0.06,2.62,0.31,889.95,22.64,
4482584,-0.01,-0.08,1.0,0.18,1.22,0.18,889.95,22.65,
4482623,-0.03,-0.09,0.95,-0.06,1.89,0.24,890.0,22.65,
4482713,-0.02,-0.09,0.97,-0.67,2.75,0.06,889.85,22.61,
4482751,-0.05,-0.08,0.94,-0.98,3.17,0.18,889.89,22.62,
4482789,-0.03,-0.08,1.0,-1.04,4.46,0.12,889.86,22.63,
4482827,-0.01,-0.09,0.93,-1.59,4.64,0.18,889.84,22.62,
4482866,-0.02,-0.06,0.96,-1.46,3.78,0.06,889.85,22.64,
4482904,-0.06,-0.07,0.91,-1.4,4.58,0.37,889.82,22.64,
4482942,-0.04,-0.07,0.95,-1.28,3.17,0.37,889.75,22.63,
4482992,-0.06,-0.07,1.0,-1.1,3.54,0.49,889.73,22.62,
4483031,-0.04,-0.08,1.02,-1.22,2.93,0.79,889.75,22.61,
4483069,-0.03,-0.08,1.09,-1.46,3.11,0.55,889.73,22.62,
4483107,-0.05,-0.07,1.09,-2.26,3.23,0.92,889.7,22.62,
4483145,-0.03,-0.07,1.12,-2.44,2.69,1.16,889.69,22.62,
4483184,-0.05,-0.06,1.15,-3.17,3.48,1.04,889.64,22.61,
4483222,-0.04,-0.05,1.19,-3.05,3.42,1.28,889.61,22.61,
4483260,-0.05,-0.07,1.17,-3.3,3.97,1.4,889.68,22.62,
4483299,-0.03,-0.06,1.23,-3.17,3.48,1.22,889.59,22.62,
4483349,-0.03,-0.06,1.24,-3.11,4.46,1.46,889.61,22.61,
4483387,-0.04,-0.06,1.27,-2.93,4.46,1.71,889.62,22.62,
4483425,-0.03,-0.05,1.26,-2.87,4.27,1.71,889.59,22.63,
4483463,-0.04,-0.05,1.28,-2.75,4.27,1.71,889.56,22.62,
4483502,-0.03,-0.06,1.28,-2.81,4.33,1.95,889.5,22.63,
4483540,-0.04,-0.06,1.27,-2.32,3.78,1.95,889.52,22.62,
4483578,-0.04,-0.05,1.27,-1.77,2.69,2.08,889.51,22.63,
4483617,-0.04,-0.06,1.23,-1.65,2.93,2.38,889.49,22.63,
4483655,-0.03,-0.06,1.23,-0.85,2.56,2.56,889.47,22.64,
4483693,-0.02,-0.06,1.18,-0.92,2.62,2.62,889.46,22.62,
4483743,-0.04,-0.07,1.12,-0.55,2.08,2.75,889.41,22.63,
4483782,-0.04,-0.07,1.05,-1.04,2.69,2.5,889.37,22.63,
4483820,-0.03,-0.06,1.06,-1.22,2.5,2.75,889.35,22.62,
4483858,-0.03,-0.08,1.02,-1.71,3.3,2.99,889.25,22.64,
4483896,-0.04,-0.06,1.0,-2.14,3.11,2.69,889.33,22.64,
4483935,-0.04,-0.06,1.05,-2.38,3.54,2.81,889.27,22.64,
4483973,-0.02,-0.07,1.05,-2.87,3.23,2.99,889.24,22.64,
4484011,-0.03,-0.06,1.11,-2.93,2.62,2.93,889.21,22.64,
4484050,-0.04,-0.07,1.09,-3.72,3.36,2.93,889.23,22.65,
4484100,-0.03,-0.06,1.17,-3.78,2.62,3.11,889.17,22.62,
4484138,-0.02,-0.06,1.15,-4.09,2.62,2.99,889.12,22.65,
4484176,-0.03,-0.05,1.15,-4.21,2.62,3.11,889.09,22.65,
4484214,-0.04,-0.05,1.18,-4.09,3.05,3.17,889.09,22.65,
4484253,-0.03,-0.05,1.18,-4.15,2.99,3.3,889.06,22.65,
4484291,-0.03,-0.05,1.22,-3.97,2.56,3.17,889.12,22.65,
4484329,-0.03,-0.06,1.22,-4.03,3.48,3.23,889.04,22.65,
4484367,-0.02,-0.06,1.23,-3.48,2.75,3.23,889.01,22.65,
4484406,-0.03,-0.05,1.21,-3.3,3.11,3.11,888.99,22.65,
4484444,-0.03,-0.05,1.22,-2.62,2.99,3.17,888.97,22.65,
4484494,-0.02,-0.05,1.17,-2.62,3.48,3.23,888.94,22.64,
4484532,-0.03,-0.04,1.21,-2.26,2.69,3.17,888.93,22.65,
4484570,-0.02,-0.05,1.19,-2.44,3.23,3.42,888.81,22.64,
4484609,-0.03,-0.05,1.23,-2.38,2.26,3.36,888.82,22.64,
4484647,-0.02,-0.04,1.26,-2.62,2.99,3.48,888.8,22.65,
4484685,-0.02,-0.04,1.26,-2.69,2.32,3.36,888.79,22.66,
4484723,-0.02,-0.03,1.28,-2.69,2.38,3.6,888.78,22.65,
4484762,-0.01,-0.03,1.28,-2.14,2.44,3.17,888.71,22.65,
4484800,-0.01,-0.03,1.29,-1.89,2.26,3.3,888.68,22.64,
4484850,-0.01,-0.03,1.27,-1.22,2.26,3.3,888.64,22.63,
4484888,-0.02,-0.03,1.24,-0.85,2.38,3.23,888.62,22.65,
4484927,-0.02,-0.04,1.22,-0.55,2.38,2.99,888.59,22.64,
4484965,-0.02,-0.04,1.2,-0.61,2.38,3.11,888.5,22.63,
4485003,-0.02,-0.04,1.19,-0.73,2.5,3.11,888.53,22.66,
4485042,-0.02,-0.04,1.2,-0.49,2.5,3.11,888.52,22.65,
4485080,-0.02,-0.03,1.2,-0.24,2.32,2.87,888.5,22.65,
4485118,-0.01,-0.04,1.21,-0.06,2.26,2.99,888.44,22.65,
4485156,-0.01,-0.04,1.17,0.73,2.44,2.81,888.42,22.64,
4485195,-0.02,-0.04,1.16,0.98,2.81,2.81,888.4,22.65,
4485245,-0.01,-0.03,1.12,1.65,2.93,2.75,888.39,22.63,
4485283,-0.01,-0.04,1.08,2.26,3.23,2.69,888.37,22.64,
4485321,-0.02,-0.04,1.06,2.5,3.42,2.62,888.32,22.64,
4485359,-0.01,-0.05,1.03,2.62,3.42,2.69,888.28,22.63,
4485398,-0.02,-0.04,1.02,3.05,3.17,2.5,888.19,22.63,
4485436,-0.03,-0.04,0.99,3.05,3.78,2.75,888.2,22.63,
4485474,-0.01,-0.04,0.99,3.3,3.91,2.44,888.2,22.63,
4485513,-0.01,-0.04,1.0,3.54,4.09,2.5,888.12,22.63,
4485551,-0.01,-0.05,0.99,3.78,3.78,2.62,888.15,22.63,
4485589,-0.02,-0.04,0.98,3.85,3.66,2.56,888.13,22.64,
4485665,-0.0,-0.04,0.93,4.39,3.85,2.44,888.03,22.61,
4485704,-0.0,-0.05,0.89,4.58,3.97,2.38,888.03,22.62,
4485742,-0.0,-0.04,0.89,4.7,3.78,2.14,887.96,22.62,
4485832,-0.01,-0.04,0.84,4.46,3.48,2.14,887.9,22.59,
4485870,-0.01,-0.05,0.81,4.46,4.15,1.95,887.8,22.58,
4485908,-0.01,-0.05,0.83,4.52,3.78,1.89,887.8,22.61,
4485947,-0.01,-0.04,0.85,4.52,3.48,2.01,887.74,22.6,
4485985,-0.01,-0.04,0.85,4.76,3.36,2.01,887.78,22.61,
4486023,-0.01,-0.04,0.86,5.25,3.36,1.59,887.78,22.61,
4486073,0.0,-0.04,0.85,5.86,2.81,1.71,887.67,22.59,
4486111,-0.0,-0.04,0.86,6.47,2.14,1.65,887.68,22.61,
4486150,-0.01,-0.05,0.83,6.71,2.26,1.71,887.63,22.61,
4486188,-0.01,-0.04,0.83,7.02,1.95,1.59,887.61,22.61,
4486226,-0.0,-0.05,0.81,7.2,1.89,1.65,887.55,22.61,
4486265,-0.01,-0.04,0.76,7.2,1.95,1.59,887.53,22.61,
4486303,-0.01,-0.04,0.74,7.32,2.2,1.34,887.53,22.61,
4486341,-0.01,-0.04,0.73,7.32,2.62,1.28,887.5,22.63,
4486379,-0.01,-0.05,0.69,7.2,2.99,1.4,887.45,22.61,
4486418,-0.01,-0.05,0.69,7.14,2.81,1.16,887.46,22.63,
4486468,-0.02,-0.05,0.68,7.2,3.85,1.1,887.31,22.61,
4486506,-0.02,-0.05,0.68,6.71,3.97,1.16,887.32,22.62,
4486544,-0.01,-0.05,0.69,6.96,4.27,1.1,887.3,22.62,
4486582,-0.02,-0.05,0.65,6.47,4.33,1.1,887.29,22.62,
4486621,-0.01,-0.05,0.65,6.23,4.7,1.16,887.29,22.63,
4486659,-0.01,-0.05,0.64,5.92,4.94,1.04,887.24,22.63,
4486697,-0.02,-0.05,0.64,5.8,4.88,0.98,887.22,22.65,
4486735,-0.01,-0.05,0.62,5.68,5.13,0.98,887.18,22.64,
4486774,-0.01,-0.05,0.62,5.19,5.19,1.22,887.21,22.63,
4486812,-0.01,-0.05,0.63,4.94,4.76,0.98,887.12,22.63,
4486862,-0.01,-0.05,0.64,4.39,4.82,0.98,887.13,22.62,
4486900,-0.01,-0.05,0.67,4.33,4.52,1.1,887.08,22.62,
4486938,-0.01,-0.05,0.67,3.85,4.58,1.04,887.05,22.63,
4486977,-0.01,-0.04,0.71,3.85,4.46,1.16,887.08,22.62,
4487015,-0.01,-0.05,0.7,3.85,4.52,1.16,887.07,22.63,
4487053,-0.01,-0.04,0.74,4.03,4.27,1.16,887.02,22.64,
4487091,-0.0,-0.05,0.74,3.97,4.09,1.22,887.07,22.65,
4487130,-0.01,-0.04,0.74,3.97,4.03,1.1,886.98,22.64,
4487168,-0.01,-0.04,0.75,4.27,4.09,1.1,886.97,22.64,
4487218,-0.0,-0.04,0.74,3.97,3.91,1.16,886.92,22.63,
4487256,-0.01,-0.04,0.74,3.78,3.78,1.16,886.91,22.64,
4487295,-0.01,-0.04,0.75,3.6,3.66,1.1,886.93,22.64,
4487333,-0.01,-0.04,0.78,3.54,3.54,0.98,886.96,22.64,
4487371,-0.01,-0.04,0.77,3.3,3.66,1.22,886.85,22.64,
4487409,-0.01,-0.04,0.78,3.42,3.36,1.04,886.87,22.64,
4487448,-0.0,-0.04,0.78,3.36,3.6,0.79,886.86,22.64,
4487486,-0.01,-0.03,0.8,3.48,3.66,0.85,886.82,22.64,
4487524,-0.01,-0.04,0.8,3.6,3.42,0.79,886.78,22.64,
4487563,-0.01,-0.03,0.8,3.66,3.42,0.85,886.82,22.65,
4487613,-0.01,-0.04,0.79,3.78,3.48,0.67,886.81,22.64,
4487651,-0.01,-0.03,0.79,4.03,3.42,0.67,886.8,22.65,
4487689,-0.01,-0.03,0.79,4.09,3.42,0.61,886.74,22.65,
4487728,-0.01,-0.03,0.79,4.39,3.48,0.61,886.8,22.64,
4487766,-0.0,-0.03,0.8,4.58,3.23,0.43,886.75,22.64,
4487804,-0.01,-0.03,0.81,4.76,3.3,0.43,886.72,22.64,
4487842,-0.01,-0.03,0.81,4.88,3.36,0.37,886.73,22.64,
4487881,-0.01,-0.03,0.82,5.0,3.3,0.31,886.75,22.65,
4487919,-0.01,-0.03,0.81,5.25,3.11,0.31,886.65,22.64,
4487957,-0.01,-0.03,0.79,5.31,3.3,0.31,886.7,22.65,
4488007,-0.01,-0.03,0.79,5.0,3.11,0.18,886.67,22.63,
4488045,-0.01,-0.03,0.78,4.94,2.93,0.06,886.71,22.65,
4488084,-0.01,-0.03,0.78,4.82,2.56,0.24,886.67,22.64,
4488122,-0.01,-0.03,0.78,4.58,2.5,0.0,886.58,22.63,
4488160,-0.01,-0.03,0.79,4.39,2.38,0.06,886.6,22.64,
4488199,-0.01,-0.02,0.8,4.09,1.77,0.18,886.6,22.63,
4488237,-0.01,-0.03,0.8,3.72,1.59,0.06,886.56,22.64,
4488275,-0.01,-0.03,0.81,3.48,1.53,-0.06,886.55,22.63,
4488313,-0.0,-0.03,0.82,2.69,1.28,-0.06,886.61,22.64,
4488363,-0.01,-0.02,0.82,2.69,1.1,-0.06,886.57,22.63,
4488402,-0.01,-0.02,0.84,2.69,1.34,-0.12,886.57,22.63,
4488440,-0.01,-0.02,0.86,2.93,1.4,-0.24,886.57,22.64,
4488478,-0.01,-0.02,0.87,3.17,1.46,-0.24,886.59,22.64,
4488517,-0.02,-0.02,0.89,3.3,1.4,-0.37,886.61,22.63,
4488555,-0.02,-0.02,0.88,3.6,2.01,-0.37,886.61,22.64,
4488593,-0.01,-0.02,0.88,3.72,2.32,-0.55,886.55,22.64,
4488631,-0.02,-0.02,0.88,3.91,2.5,-0.49,886.52,22.65,
4488670,-0.01,-0.02,0.86,3.85,2.75,-0.43,886.47,22.64,
4488708,-0.02,-0.02,0.87,3.78,2.75,-0.73,886.45,22.64,
4488784,-0.02,-0.01,0.88,3.42,3.05,-0.61,886.46,22.62,
4488822,-0.02,-0.02,0.88,3.6,3.48,-0.67,886.44,22.62,
4488861,-0.03,-0.02,0.89,3.23,3.72,-0.85,886.49,22.62,
4489027,-0.02,-0.01,0.89,3.66,4.03,-0.61,886.44,22.57,
4489065,-0.02,-0.02,0.9,3.78,3.85,-0.67,886.39,22.58,
4489104,-0.02,-0.01,0.9,3.85,3.91,-0.67,886.43,22.6,
4489142,-0.02,-0.02,0.9,3.85,3.72,-0.55,886.43,22.6,
4489180,-0.02,-0.01,0.9,3.97,3.97,-0.73,886.43,22.61,
4489218,-0.02,-0.02,0.91,4.21,3.72,-0.67,886.39,22.61,
4489268,-0.03,-0.01,0.89,4.39,3.72,-0.55,886.42,22.6,
4489307,-0.02,-0.02,0.89,4.46,3.54,-0.61,886.41,22.61,
4489345,-0.02,-0.02,0.89,4.64,3.54,-0.67,886.41,22.61,
4489383,-0.02,-0.02,0.88,4.82,3.23,-0.61,886.4,22.61,
4489422,-0.02,-0.01,0.88,4.82,2.93,-0.67,886.38,22.61,
4489460,-0.02,-0.02,0.88,5.07,2.93,-0.55,886.43,22.62,
4489498,-0.02,-0.02,0.86,4.82,2.75,-0.49,886.35,22.62,
4489537,-0.02,-0.02,0.86,4.7,2.69,-0.49,886.39,22.63,
4489575,-0.03,-0.02,0.85,4.39,2.56,-0.67,886.37,22.62,
4489613,-0.02,-0.02,0.85,3.97,2.5,-0.43,886.39,22.62,
4489663,-0.02,-0.02,0.87,3.85,2.2,-0.43,886.36,22.63,
4489701,-0.02,-0.02,0.87,3.6,2.14,-0.37,886.36,22.62,
4489740,-0.02,-0.02,0.88,3.36,1.89,-0.61,886.36,22.62,
4489778,-0.02,-0.02,0.88,3.3,1.89,-0.43,886.32,22.62,
4489816,-0.02,-0.02,0.89,2.87,1.71,-0.43,886.34,22.62,
4489855,-0.02,-0.02,0.89,2.69,1.34,-0.31,886.34,22.63,
4489893,-0.02,-0.01,0.91,2.44,1.28,-0.49,886.38,22.64,
4489931,-0.02,-0.02,0.92,2.5,1.1,-0.31,886.31,22.64,
4489969,-0.02,-0.01,0.94,2.2,1.22,-0.24,886.34,22.64,
4490019,-0.02,-0.01,0.96,1.95,0.73,-0.18,886.31,22.62,
4490058,-0.03,-0.01,0.97,2.08,0.79,-0.12,886.33,22.64,
4490096,-0.02,-0.0,0.99,1.65,0.73,-0.31,886.33,22.64,
4490134,-0.02,-0.0,1.0,1.59,0.67,-0.24,886.34,22.64,
4490173,-0.02,-0.01,1.01,1.59,0.49,-0.18,886.3,22.63,
4490211,-0.02,-0.01,1.02,1.59,0.73,-0.31,886.31,22.65,
4490249,-0.02,-0.0,1.01,1.53,1.1,-0.18,886.31,22.65,
4490287,-0.02,0.0,1.01,1.59,0.98,-0.31,886.35,22.65,
4490325,-0.03,-0.0,1.0,1.46,1.4,-0.43,886.31,22.65,
4490364,-0.03,-0.0,1.02,1.71,1.53,-0.31,886.35,22.65,
4490414,-0.02,-0.01,1.01,1.59,1.89,-0.31,886.27,22.63,
4490452,-0.03,0.0,1.03,1.46,1.4,-0.18,886.31,22.64,
4490490,-0.03,-0.01,1.0,1.53,1.89,-0.12,886.31,22.64,
4490528,-0.03,-0.0,1.01,1.65,1.46,-0.12,886.31,22.65,
4490567,-0.03,-0.01,1.0,1.4,1.83,-0.18,886.31,22.63,
4490605,-0.03,-0.0,1.0,1.22,1.95,-0.12,886.28,22.64,
4490643,-0.03,-0.0,1.0,1.46,1.83,-0.18,886.34,22.64,
4490681,-0.03,-0.01,1.0,1.16,1.65,0.0,886.29,22.64,
4490720,-0.03,-0.0,1.03,1.34,1.34,0.06,886.3,22.64,
4490770,-0.03,-0.01,1.0,1.1,2.14,0.0,886.32,22.65,
4490808,-0.03,-0.0,1.02,1.1,2.62,0.06,886.32,22.65,
4490846,-0.03,-0.0,1.01,1.22,2.99,0.06,886.32,22.64,
4490884,-0.03,-0.0,1.01,1.46,2.87,0.12,886.33,22.66,
4490923,-0.03,-0.0,1.0,1.46,3.54,0.0,886.26,22.64,
4490961,-0.03,-0.01,1.0,1.65,4.03,0.18,886.29,22.64,
4490999,-0.03,-0.0,1.01,2.08,4.03,0.24,886.31,22.66,
4491037,-0.03,-0.01,1.01,2.14,4.21,0.12,886.32,22.66,
4491076,-0.03,-0.01,1.02,2.5,4.21,0.24,886.28,22.64,
4491114,-0.03,-0.01,1.01,2.5,4.33,0.31,886.3,22.64,
4491164,-0.03,-0.0,1.02,2.44,3.78,0.49,886.29,22.64,
4491202,-0.03,-0.01,1.01,2.44,3.91,0.61,886.29,22.64,
4491240,-0.02,-0.0,1.03,2.38,3.66,0.55,886.33,22.65,
4491279,-0.02,-0.0,1.01,2.38,3.3,0.73,886.24,22.64,
4491317,-0.03,0.0,1.03,2.56,2.93,0.73,886.23,22.64,
4491355,-0.03,-0.0,1.03,2.32,3.11,0.79,886.26,22.65,
4491393,-0.03,-0.01,1.01,2.26,2.81,0.79,886.29,22.66,
4491432,-0.03,0.0,1.04,2.14,2.14,1.04,886.21,22.65,
4491470,-0.03,-0.01,1.01,1.89,2.32,1.1,886.27,22.66,
4491520,-0.03,-0.0,1.04,1.95,2.2,1.16,886.24,22.64,
4491558,-0.02,-0.01,1.01,1.95,2.08,1.16,886.31,22.66,
4491596,-0.03,-0.01,0.99,1.65,1.53,1.22,886.29,22.64,
4491635,-0.02,-0.01,0.99,1.71,2.08,1.22,886.26,22.64,
4491673,-0.03,-0.02,0.94,1.83,2.14,1.59,886.28,22.64,
4491711,-0.03,-0.02,0.93,2.01,1.89,1.65,886.27,22.65,
4491749,-0.02,-0.03,0.89,2.08,2.01,1.46,886.26,22.64,
4491788,-0.03,-0.03,0.86,2.14,1.95,1.46,886.31,22.65,
4491826,-0.02,-0.03,0.86,2.32,2.26,1.46,886.29,22.65,
4491864,-0.02,-0.03,0.84,2.26,2.32,1.46,886.29,22.65,
4491940,-0.03,-0.03,0.84,1.83,2.99,1.53,886.29,22.62,
4491979,-0.03,-0.04,0.83,1.71,3.54,1.46,886.32,22.65,
4492017,-0.02,-0.03,0.84,1.16,3.23,1.53,886.23,22.64,
4492107,-0.02,-0.03,0.88,0.92,4.09,1.65,886.28,22.61,
4492145,-0.01,-0.03,0.88,0.55,4.21,1.4,886.31,22.63,
4492183,-0.01,-0.02,0.93,0.49,3.72,1.53,886.26,22.62,
4492222,-0.03,-0.02,0.93,0.18,4.15,1.34,886.27,22.63,
4492260,-0.02,-0.02,0.96,-0.06,4.09,1.34,886.27,22.64,
4492298,-0.01,-0.02,0.98,-0.06,4.09,1.53,886.26,22.64,
4492337,-0.02,-0.02,0.98,-0.06,4.03,1.28,886.3,22.63,
4492387,-0.02,-0.01,1.0,0.12,4.39,1.4,886.25,22.62,
4492425,-0.01,-0.01,1.02,0.18,4.15,1.22,886.29,22.63,
4492463,-0.02,-0.01,1.04,0.49,4.09,1.4,886.24,22.63,
4492501,-0.03,-0.01,1.05,0.73,4.15,1.22,886.21,22.64,
4492540,-0.01,-0.0,1.08,1.1,4.27,1.22,886.27,22.65,
4492578,-0.01,0.0,1.08,1.22,3.97,1.22,886.27,22.64,
4492616,-0.02,-0.0,1.09,1.65,4.03,0.98,886.3,22.64,
4492655,-0.02,-0.01,1.06,1.89,4.46,1.28,886.28,22.65,
4492693,-0.02,-0.01,1.05,2.26,4.46,1.04,886.29,22.65,
4492743,-0.02,-0.0,1.02,2.32,4.27,1.04,886.24,22.63,
4492781,-0.02,-0.0,1.01,2.5,4.27,0.98,886.27,22.63,
4492819,-0.02,-0.01,1.0,2.69,4.39,0.98,886.26,22.65,
4492858,-0.01,-0.01,1.0,2.81,4.27,0.92,886.28,22.64,
4492896,-0.02,-0.01,1.0,2.87,4.33,0.79,886.26,22.64,
4492934,-0.02,-0.01,1.0,3.05,3.91,0.79,886.26,22.64,
4492973,-0.02,-0.02,1.0,2.93,4.09,0.73,886.32,22.64,
4493011,-0.01,-0.02,1.0,2.99,4.15,0.61,886.27,22.64,
4493049,-0.02,-0.02,0.99,3.23,4.21,0.49,886.31,22.65,
4493088,-0.02,-0.02,1.0,2.93,4.27,0.49,886.26,22.65,
4493138,-0.01,-0.01,1.0,3.05,4.39,0.43,886.3,22.64,
4493176,-0.02,-0.01,1.0,3.11,4.09,0.37,886.3,22.64,
4493214,-0.03,-0.03,0.97,2.99,4.58,0.43,886.24,22.63,
4493253,-0.01,-0.02,0.95,2.81,4.03,0.37,886.31,22.65,
4493291,-0.01,-0.02,0.97,3.3,3.6,0.31,886.28,22.65,
4493329,-0.02,-0.02,0.92,3.3,3.91,0.43,886.25,22.64,
4493368,-0.02,-0.02,0.95,3.91,3.66,0.18,886.31,22.65,
4493406,-0.01,-0.03,0.92,3.66,4.03,0.18,886.35,22.66,
4493444,-0.02,-0.03,0.92,4.09,2.99,0.31,886.29,22.65,
4493483,-0.02,-0.03,0.91,3.97,3.17,0.24,886.3,22.65,
4493533,-0.02,-0.02,0.94,4.09,2.56,0.06,886.3,22.65,
4493571,-0.02,-0.03,0.91,4.09,2.38,0.24,886.26,22.65,
4493609,-0.02,-0.02,0.94,4.27,1.28,0.24,886.27,22.65,
4493647,-0.01,-0.02,0.93,3.85,1.65,0.0,886.27,22.65,
4493686,-0.02,-0.02,0.93,3.78,1.34,0.24,886.31,22.66,
4493724,-0.02,-0.03,0.94,3.42,1.34,0.18,886.25,22.66,
4493762,-0.02,-0.03,0.94,3.36,1.28,0.06,886.27,22.66,
4493800,-0.02,-0.02,0.94,3.11,1.4,0.0,886.32,22.66,
4493839,-0.02,-0.03,0.96,3.23,1.46,0.06,886.29,22.65,
4493889,-0.02,-0.02,0.94,3.05,1.59,-0.06,886.3,22.64,
4493927,-0.03,-0.02,0.96,3.23,2.26,0.06,886.28,22.65,
4493965,-0.02,-0.03,0.96,3.54,2.62,-0.12,886.31,22.66,
4494003,-0.02,-0.02,0.97,3.85,2.2,-0.24,886.35,22.65,
4494042,-0.02,-0.02,0.95,4.27,2.81,-0.31,886.38,22.66,
4494080,-0.02,-0.02,0.95,4.82,2.69,-0.24,886.32,22.65,
4494118,-0.01,-0.02,0.95,5.13,2.81,-0.31,886.3,22.65,
4494157,-0.03,-0.03,0.94,5.43,2.32,-0.31,886.35,22.65,
4494195,-0.03,-0.03,0.93,5.86,2.44,-0.24,886.39,22.66,
4494233,-0.01,-0.03,0.9,5.98,2.44,-0.37,886.32,22.65,
4494283,-0.02,-0.03,0.89,6.41,1.95,-0.43,886.3,22.65,
4494322,-0.03,-0.03,0.86,6.16,1.53,-0.24,886.37,22.65,
4494360,-0.03,-0.03,0.87,6.59,1.59,-0.31,886.32,22.64,
4494398,-0.02,-0.04,0.83,6.41,1.59,-0.31,886.38,22.65,
4494436,-0.03,-0.03,0.84,6.71,0.67,-0.31,886.34,22.65,
4494475,-0.03,-0.04,0.81,6.59,0.98,-0.31,886.36,22.65,
4494513,-0.02,-0.04,0.82,6.65,0.43,-0.18,886.35,22.66,
4494551,-0.02,-0.04,0.82,6.77,0.12,-0.24,886.35,22.66,
4494590,-0.03,-0.04,0.81,6.65,-0.43,-0.31,886.31,22.65,
4494640,-0.02,-0.04,0.82,6.59,-0.49,-0.18,886.4,22.65,
4494678,-0.01,-0.04,0.83,6.41,-1.22,-0.37,886.33,22.65,
4494716,-0.02,-0.04,0.81,6.41,-1.4,-0.18,886.37,22.66,
4494754,-0.03,-0.05,0.78,6.16,-1.53,-0.31,886.37,22.65,
4494793,-0.02,-0.05,0.79,6.1,-1.65,-0.31,886.36,22.65,
4494831,-0.03,-0.04,0.76,5.86,-1.22,-0.37,886.38,22.66,
4494869,-0.04,-0.05,0.74,5.74,-0.98,-0.31,886.44,22.66,
4494908,-0.01,-0.05,0.78,5.74,-0.55,-0.55,886.38,22.65,
4494946,-0.02,-0.05,0.77,5.43,-0.49,-0.49,886.4,22.65,
4494984,-0.04,-0.05,0.78,5.49,-0.24,-0.31,886.48,22.65,
4495060,-0.03,-0.04,0.78,5.07,1.22,-0.43,886.43,22.64,
4495098,-0.04,-0.04,0.78,5.0,1.65,-0.24,886.45,22.64,
4495137,-0.03,-0.06,0.76,4.88,2.44,-0.18,886.45,22.64,
4495227,-0.03,-0.05,0.82,4.39,1.77,0.06,886.47,22.6,
4495265,-0.03,-0.05,0.82,4.21,1.4,0.12,886.46,22.62,
4495303,-0.02,-0.05,0.86,4.03,1.28,0.06,886.46,22.63,
4495341,-0.03,-0.05,0.83,3.78,1.16,0.31,886.49,22.63,
4495380,-0.04,-0.04,0.84,3.36,0.24,0.43,886.48,22.62,
4495418,-0.03,-0.05,0.88,2.81,0.12,0.49,886.5,22.64,
4495468,-0.04,-0.05,0.9,2.44,-0.24,0.43,886.49,22.61,
4495506,-0.04,-0.05,0.93,2.26,-0.49,0.85,886.52,22.63,
4495544,-0.03,-0.04,0.93,1.89,-0.61,0.79,886.52,22.63,
4495583,-0.03,-0.04,0.93,1.71,-0.67,0.98,886.55,22.64,
4495621,-0.03,-0.05,0.91,1.65,-0.55,1.16,886.58,22.65,
4495659,-0.04,-0.05,0.93,1.65,-0.85,1.34,886.54,22.63,
4495698,-0.03,-0.04,0.93,1.65,-1.04,1.34,886.54,22.64,
4495736,-0.04,-0.04,0.95,1.89,-1.65,1.46,886.59,22.65,
4495774,-0.04,-0.05,0.95,1.71,-1.34,1.65,886.6,22.64,
4495813,-0.03,-0.05,0.97,1.59,-1.16,1.71,886.57,22.65,
4495863,-0.04,-0.04,1.0,1.53,-0.85,1.89,886.59,22.62,
4495901,-0.04,-0.04,1.0,1.46,-0.24,2.01,886.6,22.64,
4495939,-0.05,-0.03,1.02,1.71,0.61,2.08,886.55,22.64,
4495977,-0.04,-0.05,1.03,1.89,1.22,2.2,886.61,22.62,
4496016,-0.04,-0.03,1.02,2.08,0.92,2.5,886.6,22.63,
4496054,-0.05,-0.04,1.03,2.62,2.69,2.32,886.63,22.65,
4496092,-0.04,-0.05,0.97,2.26,3.3,2.44,886.64,22.63,
4496131,-0.04,-0.04,1.0,2.75,3.23,2.81,886.64,22.65,
4496169,-0.04,-0.05,0.92,2.75,3.36,2.81,886.69,22.66,
4496219,-0.04,-0.04,0.93,3.05,2.44,3.11,886.7,22.63,
4496257,-0.04,-0.05,0.84,2.75,2.69,3.3,886.74,22.64,
4496295,-0.04,-0.05,0.89,3.05,1.22,3.36,886.68,22.64,
4496334,-0.04,-0.06,0.83,2.56,2.2,3.78,886.76,22.65,
4496372,-0.04,-0.05,0.86,2.38,1.46,3.91,886.71,22.65,
4496410,-0.04,-0.05,0.86,2.26,1.77,3.97,886.73,22.65,
4496449,-0.03,-0.05,0.87,2.01,1.95,4.21,886.8,22.65,
4496487,-0.04,-0.06,0.88,1.71,2.14,4.52,886.77,22.65,
4496525,-0.04,-0.06,0.88,1.16,2.56,4.39,886.81,22.65,
4496563,-0.02,-0.04,0.93,0.98,2.69,4.33,886.79,22.65,
4496613,-0.03,-0.05,0.96,0.79,3.85,4.76,886.87,22.64,
4496652,-0.03,-0.05,0.99,0.79,3.66,4.58,886.84,22.65,
4496690,-0.04,-0.05,1.0,0.61,4.21,4.58,886.84,22.64,
4496728,-0.02,-0.04,1.02,0.43,4.82,4.58,886.88,22.65,
4496767,-0.01,-0.04,1.05,0.43,4.88,4.76,886.89,22.65,
4496805,-0.02,-0.05,1.02,0.18,5.07,4.76,886.95,22.65,
4496843,-0.03,-0.05,1.07,0.49,4.82,4.88,886.96,22.65,
4496882,-0.02,-0.05,1.08,0.18,5.25,4.94,886.93,22.65,
4496920,-0.01,-0.04,1.11,0.24,4.64,5.07,886.97,22.65,
4496958,-0.02,-0.04,1.08,0.12,4.76,5.13,886.97,22.65,
4497008,-0.01,-0.04,1.07,-0.12,5.13,5.07,886.98,22.63,
4497046,-0.02,-0.05,1.08,-0.31,5.43,5.19,887.03,22.65,
4497085,-0.01,-0.04,1.11,0.0,4.76,5.25,887.03,22.65,
4497123,-0.02,-0.05,1.09,0.0,5.25,5.07,887.04,22.65,
4497161,-0.01,-0.04,1.11,0.18,4.58,4.88,887.11,22.65,
4497199,0.0,-0.05,1.14,0.49,4.82,5.0,887.03,22.65,
4497238,-0.01,-0.05,1.1,0.43,4.09,4.94,887.02,22.65,
4497276,-0.01,-0.05,1.16,0.92,4.27,4.94,887.14,22.65,
4497314,0.01,-0.05,1.13,0.73,4.58,4.82,887.14,22.66,
4497364,-0.0,-0.05,1.1,1.16,4.27,4.7,887.17,22.65,
4497402,-0.01,-0.05,1.06,1.22,4.39,4.82,887.19,22.65,
4497441,0.01,-0.05,1.09,2.08,4.15,4.52,887.18,22.66,
4497479,0.01,-0.06,1.04,1.89,4.15,4.58,887.16,22.66,
4497517,-0.0,-0.05,1.08,2.5,2.81,4.39,887.18,22.65,
4497556,0.0,-0.06,1.02,2.26,3.78,4.39,887.17,22.65,
4497594,-0.0,-0.06,1.02,2.38,3.3,4.21,887.18,22.66,
4497632,0.01,-0.06,1.03,2.32,3.42,4.33,887.2,22.67,
4497671,0.02,-0.06,1.0,2.14,3.05,4.15,887.22,22.67,
4497709,0.01,-0.06,1.01,2.26,2.87,4.03,887.21,22.65,
4497759,0.02,-0.06,1.0,1.77,2.69,3.85,887.26,22.66,
4497797,0.02,-0.06,1.01,1.65,2.69,3.6,887.23,22.66,
4497835,0.01,-0.06,1.0,1.1,2.99,3.42,887.27,22.65,
4497874,0.02,-0.05,1.04,1.22,2.56,3.3,887.3,22.66,
4497912,0.02,-0.07,1.01,0.98,3.48,3.11,887.27,22.66,
4497950,0.02,-0.06,1.04,0.98,2.75,2.87,887.32,22.68,
4497989,0.02,-0.06,1.05,0.79,3.17,2.69,887.3,22.66,
4498027,0.03,-0.06,1.05,0.85,2.87,2.5,887.31,22.66,
4498065,0.01,-0.06,1.02,0.49,3.23,2.32,887.31,22.66,
4498104,0.03,-0.06,1.02,0.37,3.05,2.08,887.33,22.65,
4498180,0.02,-0.06,1.05,0.31,2.44,1.59,887.29,22.62,
4498218,0.02,-0.06,1.08,0.49,2.08,1.46,887.36,22.64,
4498256,0.02,-0.06,1.12,0.18,2.2,1.28,887.32,22.65,
4498346,0.01,-0.05,1.16,0.49,1.95,0.98,887.38,22.61,
4498384,0.03,-0.05,1.17,0.55,1.65,0.79,887.33,22.63,
4498423,0.04,-0.05,1.22,0.98,1.22,0.79,887.33,22.63,
4498461,0.02,-0.06,1.17,0.61,1.71,0.61,887.4,22.64,
4498499,0.02,-0.05,1.2,1.22,1.53,0.37,887.39,22.64,
4498537,0.03,-0.07,1.18,1.46,2.75,0.24,887.47,22.64,
4498576,0.03,-0.07,1.14,1.77,1.95,0.0,887.38,22.65,
4498626,0.02,-0.06,1.07,1.34,2.69,-0.18,887.46,22.63,
4498664,0.03,-0.05,1.08,1.53,2.87,-0.55,887.39,22.64,
4498702,0.03,-0.07,1.02,1.1,3.42,-0.61,887.44,22.64,
4498741,0.03,-0.07,1.07,1.46,2.99,-0.85,887.42,22.65,
4498779,0.03,-0.08,1.02,0.73,4.88,-1.16,887.43,22.65,
4498817,0.02,-0.05,1.05,0.92,4.15,-1.34,887.48,22.65,
4498856,0.02,-0.06,1.06,0.79,4.39,-1.34,887.47,22.64,
4498894,0.02,-0.07,1.04,0.55,4.46,-1.46,887.47,22.65,
4498932,0.02,-0.07,1.07,0.79,4.82,-1.77,887.47,22.65,
4498982,0.03,-0.06,1.06,0.55,5.43,-1.77,887.49,22.64,
4499020,0.01,-0.06,1.07,0.73,5.0,-2.14,887.51,22.63,
4499059,0.01,-0.07,1.05,0.73,5.86,-2.38,887.51,22.65,
4499097,0.01,-0.07,1.09,0.98,5.13,-2.32,887.55,22.65,
4499135,0.01,-0.07,1.09,0.85,5.19,-2.38,887.54,22.65,
4499174,-0.01,-0.06,1.1,1.22,4.58,-2.56,887.55,22.65,
4499212,0.01,-0.06,1.08,1.04,4.82,-2.44,887.54,22.64,
4499250,0.02,-0.06,1.15,1.4,4.27,-2.69,887.57,22.65,
4499288,-0.01,-0.08,1.11,1.28,4.94,-2.69,887.63,22.66,
4499327,-0.02,-0.07,1.15,1.89,4.03,-2.62,887.62,22.66,
4499377,-0.01,-0.07,1.13,2.01,4.58,-2.69,887.66,22.64,
4499415,0.0,-0.07,1.14,2.2,3.23,-2.69,887.64,22.66,
4499453,-0.01,-0.07,1.08,2.14,2.75,-2.62,887.59,22.65,
4499492,-0.01,-0.07,1.07,2.01,2.2,-2.5,887.57,22.65,
4499530,0.0,-0.07,1.06,2.2,1.65,-2.56,887.6,22.65,
4499568,-0.0,-0.07,1.04,2.2,0.92,-2.56,887.59,22.65,
4499606,-0.02,-0.08,1.0,2.26,0.79,-2.44,887.65,22.66,
4499645,-0.03,-0.08,0.97,2.2,0.73,-2.5,887.61,22.65,
4499683,-0.02,-0.08,0.96,2.01,0.67,-2.56,887.58,22.66,
4499721,-0.01,-0.08,0.93,1.83,0.85,-2.75,887.65,22.64,
4499771,-0.01,-0.08,0.93,1.71,0.61,-2.62,887.59,22.64,
4499809,-0.03,-0.08,0.94,1.34,0.61,-2.69,887.63,22.65,
4499848,-0.04,-0.08,0.93,0.98,1.22,-2.32,887.64,22.65,
4499886,-0.04,-0.08,0.97,0.67,0.98,-2.5,887.61,22.66,
4499924,-0.03,-0.08,0.97,0.37,1.53,-2.32,887.61,22.66,
4499963,-0.03,-0.07,1.02,0.24,1.65,-2.32,887.64,22.65,
4500001,-0.04,-0.09,1.03,0.0,3.36,-2.2,887.61,22.66,
4500039,-0.04,-0.08,1.05,0.0,3.91,-2.14,887.66,22.65,
4500077,-0.05,-0.07,1.05,0.49,4.7,-2.01,887.66,22.66,
4500127,-0.05,-0.08,1.0,0.67,6.16,-1.95,887.63,22.65,
4500166,-0.04,-0.07,1.02,0.92,6.23,-1.95,887.61,22.64,
4500204,-0.03,-0.08,0.99,0.92,6.47,-1.71,887.62,22.65,
4500242,-0.05,-0.08,0.98,1.1,6.1,-1.53,887.67,22.66,
4500281,-0.04,-0.08,0.98,0.85,6.16,-1.46,887.68,22.66,
4500319,-0.03,-0.08,1.0,0.73,5.37,-1.34,887.67,22.66,
4500357,-0.05,-0.08,1.0,0.73,5.07,-1.04,887.67,22.65,
4500395,-0.05,-0.08,0.98,0.85,4.33,-1.04,887.67,22.66,
4500434,-0.05,-0.08,0.97,0.49,4.52,-1.04,887.68,22.66,
4500472,-0.06,-0.07,0.99,0.61,4.39,-0.85,887.62,22.66,
4500522,-0.04,-0.07,0.97,0.49,4.64,-0.67,887.64,22.64,
4500560,-0.05,-0.07,1.0,0.61,4.39,-0.55,887.65,22.66,
4500598,-0.07,-0.07,1.01,0.43,4.33,-0.37,887.59,22.66,
4500637,-0.07,-0.08,1.03,0.43,4.82,-0.18,887.61,22.65,
4500675,-0.07,-0.08,1.03,0.06,5.0,-0.12,887.61,22.65,
4500713,-0.06,-0.07,1.06,0.18,4.46,-0.06,887.61,22.66,
4500751,-0.08,-0.07,1.08,0.12,4.58,0.12,887.64,22.66,
4500790,-0.08,-0.07,1.13,0.24,5.19,0.37,887.58,22.65,
4500828,-0.07,-0.07,1.18,0.18,5.98,0.43,887.63,22.65,
4500878,-0.07,-0.08,1.2,0.43,5.43,0.92,887.64,22.64,
4500916,-0.08,-0.08,1.15,0.55,5.0,1.16,887.62,22.66,
4500954,-0.06,-0.07,1.21,0.79,3.97,1.22,887.61,22.66,
4500993,-0.06,-0.08,1.17,0.49,3.91,1.65,887.66,22.66,
4501031,-0.06,-0.07,1.18,0.79,2.5,1.89,887.65,22.66,
4501069,-0.07,-0.09,1.14,0.92,2.99,2.2,887.67,22.64,
4501108,-0.07,-0.08,1.11,0.73,1.89,2.5,887.63,22.66,
4501146,-0.07,-0.07,1.1,1.34,2.44,2.62,887.66,22.66,
4501184,-0.07,-0.09,1.02,0.85,2.32,2.62,887.65,22.66,
4501222,-0.06,-0.09,0.97,0.92,2.44,2.62,887.64,22.65,
4501298,-0.05,-0.09,0.95,0.55,2.62,3.23,887.59,22.63,
4501337,-0.06,-0.09,0.97,0.18,2.75,3.23,887.61,22.63,
4501375,-0.07,-0.09,0.96,-0.06,2.99,3.36,887.66,22.66,
4501465,-0.06,-0.08,0.99,-0.43,1.34,4.15,887.62,22.6,
4501503,-0.06,-0.08,0.96,-0.55,0.73,4.03,887.7,22.62,
4501541,-0.07,-0.08,0.96,-0.43,0.0,4.52,887.67,22.63,
4501579,-0.05,-0.08,0.96,-0.18,-1.04,4.64,887.68,22.62,
4501618,-0.04,-0.08,0.99,-0.31,-0.98,4.64,887.72,22.63,
4501656,-0.03,-0.09,0.99,0.06,-1.65,4.94,887.73,22.63,
4501706,-0.05,-0.09,0.96,0.06,-1.77,5.07,887.71,22.62,
4501744,-0.05,-0.08,0.92,0.49,-1.1,4.82,887.74,22.63,
4501782,-0.04,-0.08,0.83,0.43,-0.55,5.13,887.72,22.63,
4501821,-0.03,-0.08,0.82,0.79,-0.06,4.88,887.73,22.65,
4501859,-0.03,-0.08,0.76,0.85,0.85,4.82,887.75,22.64,
4501897,-0.05,-0.08,0.72,1.04,1.34,4.94,887.72,22.64,
4501935,-0.04,-0.08,0.8,1.1,0.85,5.0,887.73,22.65,
4501974,-0.03,-0.08,0.87,0.79,0.85,5.13,887.74,22.65,
4502012,-0.05,-0.09,0.89,0.55,1.71,5.13,887.79,22.64,
4502050,-0.04,-0.08,0.93,0.79,2.08,5.07,887.79,22.65,
4502100,-0.03,-0.08,0.9,0.61,2.2,5.19,887.76,22.64,
4502138,-0.03,-0.08,0.93,0.98,2.08,5.13,887.83,22.65,
4502177,-0.01,-0.07,0.92,0.67,3.54,5.0,887.82,22.65,
4502215,-0.02,-0.08,0.95,1.22,3.42,5.0,887.83,22.64,
4502253,-0.02,-0.08,0.92,1.04,3.17,5.13,887.87,22.64,
4502291,-0.03,-0.07,1.0,1.65,2.14,4.94,887.86,22.66,
4502330,-0.01,-0.09,1.0,1.4,2.62,4.88,887.82,22.65,
4502368,-0.01,-0.09,1.02,1.59,1.95,4.94,887.87,22.66,
4502406,-0.02,-0.08,1.05,1.46,1.89,4.94,887.89,22.66,
4502456,-0.03,-0.09,0.99,1.46,2.56,4.82,887.87,22.63,
4502494,-0.02,-0.08,0.99,1.34,3.54,4.64,887.86,22.64,
4502533,-0.02,-0.08,0.96,1.71,2.99,4.94,887.88,22.65,
4502571,-0.0,-0.08,0.96,1.4,2.44,4.64,887.86,22.66,
4502609,-0.02,-0.09,0.97,1.65,3.54,4.39,887.95,22.65,
4502647,-0.0,-0.09,0.94,1.34,3.42,4.64,887.86,22.64,
4502686,-0.01,-0.08,1.03,1.65,1.95,4.33,887.93,22.65,
4502724,-0.01,-0.08,1.03,1.16,2.87,4.33,887.88,22.66,
4502762,0.01,-0.08,1.0,1.1,2.81,4.27,887.93,22.66,
4502800,0.01,-0.08,0.98,0.92,1.83,4.39,887.93,22.68,
4502850,-0.01,-0.08,0.92,1.65,0.61,4.33,887.96,22.65,
4502889,0.01,-0.09,0.87,1.89,-0.06,4.27,887.95,22.64,
4502927,0.03,-0.09,0.79,2.75,-0.43,3.91,887.9,22.66,
4502965,0.03,-0.09,0.75,1.89,-0.98,3.3,887.92,22.65,
4503003,-0.0,-0.08,0.8,3.23,-0.12,3.17,887.93,22.65,
4503042,0.03,-0.08,0.73,1.65,1.34,2.93,887.84,22.65,
4503080,0.0,-0.07,0.81,2.44,1.1,2.69,887.95,22.65,
4503118,0.01,-0.11,0.73,0.73,2.08,2.75,887.98,22.66,
4503157,0.02,-0.09,0.84,0.85,0.61,2.08,888.01,22.65,
4503195,-0.01,-0.1,0.85,0.55,1.95,1.95,887.97,22.67,
4503245,0.03,-0.06,0.93,1.04,0.92,1.65,888.05,22.65,
4503283,0.02,-0.08,0.89,0.73,1.83,1.59,888.08,22.65,
4503321,-0.01,-0.09,0.88,0.61,1.71,1.65,888.03,22.65,
4503360,-0.01,-0.09,1.0,1.16,0.43,1.4,888.03,22.65,
4503398,0.02,-0.09,1.04,0.55,0.31,1.16,887.99,22.65,
4503436,0.02,-0.07,1.12,0.85,-1.22,1.04,888.01,22.65,
4503475,-0.0,-0.09,1.11,0.98,0.49,1.1,888.07,22.66,
4503513,-0.01,-0.08,1.2,0.85,0.18,1.04,888.03,22.65,
4503551,0.01,-0.08,1.22,0.67,1.04,0.79,888.1,22.66,
4503589,-0.0,-0.08,1.1,0.31,0.37,0.73,888.14,22.65,
4503639,-0.03,-0.1,1.09,0.98,0.61,0.79,888.12,22.64,
4503678,0.02,-0.11,0.98,0.06,1.1,0.37,888.05,22.64,
4503716,0.01,-0.07,1.06,0.79,-0.24,0.37,888.13,22.65,
4503754,-0.03,-0.08,0.98,0.31,0.18,0.61,888.07,22.65,
4503792,-0.01,-0.1,0.98,0.43,1.71,0.43,888.18,22.65,
4503831,0.0,-0.09,1.01,0.0,3.05,0.0,888.14,22.65,
4503869,0.02,-0.09,1.07,0.12,1.77,0.12,888.19,22.67,
4503907,-0.01,-0.08,1.04,-0.61,3.36,0.0,888.15,22.65,
4503945,-0.02,-0.07,1.12,-0.06,3.36,-0.12,888.19,22.67,
4503995,0.0,-0.08,1.14,-0.49,3.97,-0.12,888.14,22.64,
4504034,-0.03,-0.08,1.24,0.43,3.23,-0.18,888.18,22.65,
4504072,-0.01,-0.08,1.16,-0.37,4.58,-0.24,888.19,22.66,
4504110,-0.01,-0.06,1.3,0.43,3.72,-0.37,888.15,22.64,
4504149,-0.01,-0.1,1.19,-0.37,4.76,-0.12,888.23,22.65,
4504187,-0.0,-0.08,1.22,0.06,3.6,-0.18,888.22,22.65,
4504225,-0.02,-0.08,1.12,0.0,4.88,0.0,888.25,22.66,
4504263,-0.01,-0.08,1.08,0.85,5.0,-0.31,888.25,22.66,
4504302,0.0,-0.07,1.04,0.73,4.94,-0.31,888.26,22.66,
4504340,-0.0,-0.08,1.01,0.55,4.88,-0.18,888.22,22.66,
4504416,-0.01,-0.09,1.02,0.43,4.64,-0.24,888.23,22.63,
4504454,0.0,-0.08,1.04,0.37,3.66,-0.24,888.2,22.64,
4504493,-0.06,-0.08,1.01,0.61,2.56,-0.18,888.24,22.66,
4504583,0.0,-0.08,0.98,0.06,3.97,-0.55,888.28,22.61,
4504621,-0.01,-0.07,0.95,0.31,4.03,-0.31,888.28,22.63,
4504659,-0.02,-0.09,0.91,0.73,4.88,-0.37,888.26,22.63,
4504698,-0.01,-0.08,0.9,1.1,4.82,-0.55,888.27,22.63,
4504736,0.01,-0.09,0.9,1.46,5.0,-0.73,888.23,22.63,
4504774,-0.01,-0.08,0.76,0.73,4.39,-0.55,888.26,22.64,
4504824,-0.02,-0.07,0.81,1.65,3.85,-0.73,888.3,22.63,
4504863,0.0,-0.09,0.71,0.12,4.27,-0.79,888.24,22.63,
4504901,-0.01,-0.05,0.85,0.61,2.44,-0.67,888.3,22.64,
4504939,-0.04,-0.1,0.79,0.55,3.11,-0.55,888.28,22.64,
4504977,-0.02,-0.07,0.92,0.67,3.11,-0.67,888.3,22.65,
4505016,-0.0,-0.08,0.98,0.92,3.97,-0.55,888.3,22.65,
4505054,-0.03,-0.07,1.05,0.61,3.11,-0.37,888.29,22.64,
4505092,-0.03,-0.08,1.08,1.1,3.66,-0.43,888.31,22.64,
4505131,-0.0,-0.06,1.23,1.16,2.01,-0.73,888.24,22.63,
4505169,-0.01,-0.09,1.16,1.04,3.11,-0.06,888.38,22.66,
4505219,-0.04,-0.06,1.19,1.53,1.34,-0.12,888.31,22.64,
4505257,-0.01,-0.08,1.14,1.59,2.69,-0.24,888.32,22.64,
4505296,-0.01,-0.06,1.06,2.01,1.65,-0.12,888.39,22.63,
4505334,-0.03,-0.06,1.08,2.75,0.73,0.06,888.4,22.64,
4505372,-0.02,-0.08,1.01,2.32,1.04,0.06,888.38,22.64,
4505411,-0.03,-0.07,1.03,2.5,0.06,0.12,888.33,22.64,
4505449,-0.02,-0.07,1.02,2.32,-0.18,0.12,888.37,22.65,
4505487,-0.03,-0.08,0.99,2.26,-0.06,0.18,888.39,22.65,
4505526,-0.03,-0.08,0.97,2.5,0.43,0.06,888.36,22.65,
4505576,-0.01,-0.08,1.0,2.5,0.37,0.18,888.39,22.64,
4505614,-0.03,-0.07,0.94,2.5,0.85,0.24,888.4,22.65,
4505652,-0.04,-0.08,0.91,2.44,1.46,0.24,888.39,22.64,
4505690,-0.03,-0.07,0.97,2.44,1.34,0.18,888.38,22.64,
4505729,-0.02,-0.08,0.94,2.44,2.69,0.24,888.39,22.64,
4505767,-0.03,-0.07,0.95,2.38,3.48,0.12,888.41,22.65,
4505805,-0.04,-0.08,0.95,2.38,4.33,0.43,888.4,22.64,
4505844,-0.04,-0.08,0.93,2.26,4.21,0.43,888.36,22.65,
4505882,-0.04,-0.08,0.96,2.56,4.64,0.37,888.41,22.65,
4505920,-0.05,-0.07,0.93,2.26,4.76,0.49,888.42,22.64,
4505970,-0.02,-0.08,0.96,2.56,5.25,0.67,888.4,22.64,
4506009,-0.02,-0.08,0.94,2.56,5.37,0.67,888.35,22.63,
4506047,-0.04,-0.07,0.99,2.93,4.7,0.92,888.41,22.64,
4506085,-0.05,-0.08,0.93,2.62,5.07,0.98,888.43,22.63,
4506124,-0.04,-0.08,0.94,2.99,4.46,0.98,888.45,22.63,
4506162,-0.03,-0.08,0.91,2.75,4.7,0.98,888.38,22.64,
4506200,-0.03,-0.07,0.87,2.69,4.94,0.98,888.44,22.64,
4506238,-0.03,-0.07,0.87,2.62,5.43,1.22,888.44,22.63,
4506277,-0.03,-0.07,0.88,2.5,5.43,1.28,888.42,22.64,
4506315,-0.03,-0.07,0.89,2.5,5.68,1.34,888.42,22.65,
4506365,-0.03,-0.06,0.92,2.14,5.13,1.4,888.41,22.62,
4506403,-0.04,-0.07,0.88,1.95,5.98,1.53,888.44,22.63,
4506442,-0.03,-0.08,0.9,1.89,5.19,1.53,888.45,22.63,
4506480,-0.03,-0.07,0.88,1.53,5.49,1.59,888.46,22.64,
4506518,-0.03,-0.07,0.89,1.46,5.19,1.89,888.44,22.64,
4506557,-0.03,-0.07,0.9,1.34,4.88,1.89,888.49,22.64,
4506595,-0.03,-0.07,0.93,1.34,4.88,1.83,888.48,22.64,
4506633,-0.03,-0.07,0.96,1.22,4.46,1.95,888.44,22.64,
4506671,-0.03,-0.07,0.97,0.92,4.15,2.2,888.53,22.65,
4506721,-0.02,-0.07,0.98,1.16,3.85,2.14,888.53,22.63,
4506760,-0.02,-0.07,0.98,1.28,2.75,2.14,888.56,22.63,
4506798,-0.04,-0.07,0.96,1.4,2.87,2.38,888.56,22.63,
4506836,-0.03,-0.07,0.99,1.34,2.38,2.38,888.51,22.64,
4506875,-0.02,-0.07,1.02,1.46,1.59,2.38,888.59,22.65,
4506913,-0.02,-0.07,1.04,1.71,0.98,2.5,888.57,22.63,
4506951,-0.01,-0.06,1.04,1.59,0.55,2.56,888.53,22.65,
4506989,-0.03,-0.06,1.07,2.08,0.61,2.32,888.56,22.63,
4507028,-0.03,-0.07,1.02,1.59,0.73,2.38,888.57,22.64,
4507066,-0.03,-0.06,1.12,2.14,0.43,2.38,888.55,22.65,
4507116,-0.01,-0.08,1.03,1.83,1.1,2.5,888.6,22.63,
4507154,-0.03,-0.06,1.04,2.5,-0.18,2.26,888.64,22.63,
4507193,-0.03,-0.07,0.99,2.56,1.16,2.2,888.59,22.64,
4507231,-0.01,-0.07,0.99,2.62,0.92,1.95,888.64,22.64,
4507269,-0.02,-0.06,1.1,3.23,0.79,2.26,888.58,22.63,
4507307,-0.06,-0.07,1.01,2.56,1.77,2.2,888.55,22.63,
4507346,-0.04,-0.06,1.11,2.81,1.1,2.08,888.59,22.64,
4507384,-0.02,-0.06,1.17,2.26,2.26,2.14,888.58,22.64,
4507422,-0.04,-0.06,1.21,2.32,1.83,2.2,888.62,22.64,
4507460,-0.02,-0.08,1.24,1.83,3.54,2.32,888.67,22.64,
4507536,-0.03,-0.06,1.21,2.01,3.97,2.32,888.65,22.61,
4507575,-0.03,-0.06,1.12,2.14,4.03,2.26,888.68,22.63,
4507613,-0.03,-0.06,1.15,2.26,3.6,2.26,888.67,22.63,
4507703,-0.01,-0.07,1.14,2.26,4.27,2.38,888.68,22.59,
4507741,-0.01,-0.08,1.08,2.2,4.39,2.38,888.7,22.61,
4507779,-0.03,-0.07,1.09,2.26,4.52,2.32,888.65,22.6,
4507818,-0.01,-0.09,1.04,2.38,4.88,2.38,888.74,22.62,
4507856,-0.01,-0.07,1.04,2.62,3.97,2.44,888.75,22.61,
4507894,-0.01,-0.08,0.93,2.62,3.17,2.5,888.69,22.62,
4507944,-0.0,-0.07,0.88,2.5,2.14,2.32,888.74,22.61,
4507983,-0.01,-0.07,0.83,2.32,2.08,2.38,888.71,22.63,
4508021,-0.01,-0.08,0.79,1.83,1.1,2.44,888.74,22.62,
4508059,-0.02,-0.07,0.8,2.14,1.1,2.38,888.71,22.62,
4508097,-0.02,-0.07,0.83,1.77,1.89,2.38,888.7,22.62,
4508136,-0.01,-0.07,0.85,1.53,2.87,2.38,888.75,22.63,
4508174,-0.01,-0.07,0.89,1.16,3.23,2.32,888.74,22.62,
4508212,-0.01,-0.07,0.92,1.04,3.97,2.2,888.68,22.62,
4508251,-0.01,-0.08,0.93,0.92,4.33,2.38,888.72,22.62,
4508289,0.0,-0.07,0.95,0.98,4.52,2.14,888.73,22.62,
4508339,-0.02,-0.07,0.92,1.04,5.49,2.14,888.73,22.62,
4508377,-0.01,-0.08,0.9,1.34,5.98,2.08,888.8,22.63,
4508415,0.0,-0.08,0.9,1.53,5.92,2.08,888.78,22.61,
4508454,-0.0,-0.07,0.88,1.89,5.55,1.89,888.76,22.62,
4508492,-0.01,-0.07,0.86,2.2,5.62,2.14,888.78,22.62,
4508530,0.01,-0.07,0.86,2.14,5.31,1.95,888.73,22.63,
4508569,-0.01,-0.08,0.88,2.2,4.94,2.08,888.79,22.64,
4508607,-0.0,-0.08,0.91,2.08,5.55,2.01,888.75,22.63,
4508645,0.0,-0.07,0.93,2.01,5.8,1.83,888.77,22.64,
4508683,-0.01,-0.08,0.93,2.2,5.8,1.83,888.74,22.63,
4508733,0.0,-0.07,0.98,2.26,6.16,1.83,888.75,22.62,
4508771,0.0,-0.08,0.97,2.14,6.47,1.77,888.82,22.64,
4508810,0.0,-0.08,0.93,2.44,6.65,1.53,888.8,22.63,
4508848,0.01,-0.07,0.93,2.44,7.51,1.53,888.79,22.63,
4508886,0.02,-0.07,0.93,2.69,7.63,1.53,888.81,22.64,
4508925,0.01,-0.08,0.91,2.69,8.54,1.34,888.79,22.64,
4508963,0.01,-0.07,0.92,2.56,8.12,1.04,888.8,22.64,
4509001,0.02,-0.07,0.97,2.87,8.24,0.85,888.79,22.64,
4509039,0.02,-0.08,1.01,2.75,7.39,1.16,888.83,22.64,
4509078,0.01,-0.06,1.0,2.62,6.04,0.98,888.85,22.64,
4509127,0.0,-0.08,0.98,2.44,7.81,0.79,888.86,22.64,
4509166,0.05,-0.07,1.0,2.32,6.77,0.85,888.92,22.64,
4509204,0.02,-0.06,0.97,2.32,5.43,0.67,888.95,22.64,
4509242,0.01,-0.07,0.97,2.62,5.19,0.92,888.89,22.64,
4509280,0.04,-0.07,0.99,2.26,5.37,0.55,888.85,22.64,
4509319,0.05,-0.07,1.08,2.44,3.36,0.49,888.88,22.64,
4509357,0.03,-0.07,1.08,2.56,2.75,0.43,888.82,22.64,
4509395,0.01,-0.06,1.1,2.5,2.26,0.31,888.89,22.64,
4509433,0.04,-0.06,1.15,2.5,2.14,0.24,888.93,22.64,
4509483,0.03,-0.07,1.12,2.2,1.65,0.06,888.96,22.64,
4509522,0.01,-0.06,1.13,2.08,1.89,-0.06,888.9,22.65,
4509560,0.02,-0.07,1.07,1.89,2.44,-0.31,888.94,22.64,
4509598,0.04,-0.06,1.09,2.44,1.4,-0.31,888.89,22.63,
4509636,0.03,-0.08,1.03,2.26,2.62,-0.61,888.9,22.63,
4509675,0.02,-0.06,1.06,2.56,1.83,-0.92,888.93,22.65,
4509713,0.03,-0.08,1.03,2.38,2.93,-0.92,888.97,22.64,
4509751,0.02,-0.06,1.05,2.32,3.05,-1.16,888.97,22.65,
4509789,0.01,-0.07,1.06,2.38,4.39,-1.28,888.93,22.65,
4509828,0.01,-0.07,1.04,1.95,4.7,-1.4,888.97,22.65,
4509878,0.0,-0.08,1.04,1.89,5.55,-1.65,888.95,22.62,
4509916,0.02,-0.07,1.02,1.77,5.92,-2.01,888.96,22.63,
4509954,0.02,-0.06,1.08,1.83,5.74,-1.95,888.94,22.63,
4509993,0.02,-0.07,1.05,1.71,5.8,-2.14,889.0,22.63,
4510031,0.0,-0.06,1.07,1.34,5.25,-2.14,889.01,22.65,
4510069,0.01,-0.07,1.08,1.1,5.07,-2.14,889.04,22.64,
4510107,0.01,-0.06,1.11,1.22,4.58,-2.38,889.02,22.63,
4510145,0.02,-0.06,1.1,1.04,4.33,-2.56,889.02,22.64,
4510184,0.01,-0.06,1.1,0.92,3.78,-2.38,889.01,22.64,
4510222,0.01,-0.07,1.06,0.92,3.54,-2.69,889.15,22.63,
4510272,0.0,-0.06,1.04,1.04,2.44,-2.81,889.05,22.62,
4510310,-0.02,-0.06,1.02,1.04,2.5,-2.87,889.05,22.64,
4510348,0.0,-0.07,1.02,1.22,2.32,-2.99,889.03,22.62,
4510387,-0.01,-0.07,1.03,1.16,2.32,-3.23,889.03,22.63,
4510425,-0.01,-0.07,1.0,1.4,1.77,-3.17,889.09,22.64,
4510463,-0.01,-0.06,0.99,1.28,1.59,-3.23,889.04,22.63,
4510502,-0.02,-0.07,0.97,1.28,1.95,-3.42,889.04,22.62,
4510540,-0.01,-0.07,0.95,1.46,1.65,-3.6,889.07,22.62,
4510578,-0.02,-0.07,0.94,1.77,1.4,-3.42,889.02,22.62,
4510655,-0.03,-0.07,0.91,1.95,1.28,-3.54,889.0,22.59,
4510694,-0.03,-0.07,0.92,2.2,0.98,-3.42,889.03,22.6,
4510732,-0.03,-0.07,0.88,2.38,0.92,-3.54,889.06,22.61,
4510822,-0.04,-0.07,0.86,2.38,0.61,-3.17,889.04,22.58,
4510861,-0.04,-0.07,0.87,2.5,0.18,-3.42,889.05,22.6,
4510899,-0.04,-0.07,0.88,2.32,0.55,-3.23,889.06,22.61,
4510937,-0.04,-0.08,0.91,2.44,0.55,-3.11,889.07,22.61,
4510975,-0.04,-0.07,0.91,2.26,0.73,-3.36,889.04,22.61,
4511014,-0.05,-0.07,0.91,2.32,0.12,-3.17,889.02,22.61,
4511052,-0.06,-0.07,0.9,2.44,0.24,-2.87,889.03,22.61,
4511102,-0.05,-0.07,0.88,2.26,0.18,-2.75,889.06,22.6,
4511140,-0.07,-0.07,0.89,1.65,-0.55,-2.44,889.01,22.61,
4511178,-0.06,-0.06,0.91,1.46,-0.43,-2.2,889.07,22.62,
4511217,-0.04,-0.07,0.91,1.1,-0.49,-2.2,889.0,22.61,
4511255,-0.05,-0.06,0.91,0.85,-0.73,-2.08,889.04,22.61,
4511293,-0.06,-0.06,0.92,0.55,-0.67,-2.08,889.01,22.61,
4511332,-0.05,-0.07,0.94,0.31,0.06,-1.83,889.1,22.63,
4511370,-0.07,-0.06,0.99,0.55,0.37,-1.77,889.05,22.62,
4511408,-0.08,-0.07,0.97,0.85,1.46,-1.46,889.16,22.62,
4511458,-0.07,-0.06,1.01,0.67,1.53,-1.46,889.1,22.61,
4511496,-0.06,-0.06,1.02,0.61,2.38,-1.22,889.08,22.62,
4511534,-0.06,-0.06,1.02,0.73,1.89,-0.98,889.11,22.62,
4511573,-0.07,-0.06,1.07,0.73,1.89,-0.73,889.12,22.62,
4511611,-0.04,-0.06,1.07,0.67,1.95,-0.55,889.11,22.62,
4511649,-0.06,-0.06,1.09,0.79,0.61,-0.24,889.16,22.63,
4511687,-0.07,-0.05,1.1,0.92,-0.12,-0.06,889.15,22.62,
4511726,-0.05,-0.06,1.13,0.85,-1.16,0.06,889.13,22.63,
4511764,-0.04,-0.06,1.12,0.98,-1.77,0.24,889.11,22.63,
4511802,-0.07,-0.05,1.22,1.59,-1.77,0.49,889.16,22.61,
4511852,-0.05,-0.07,1.13,0.61,0.73,0.31,889.18,22.62,
4511891,-0.07,-0.03,1.34,1.83,-1.28,0.31,889.1,22.63,
4511929,-0.07,-0.08,1.14,0.55,2.38,0.67,889.14,22.62,
4511967,-0.03,-0.03,1.25,0.92,0.0,0.55,889.13,22.63,
4512005,-0.04,-0.07,1.21,1.4,2.08,0.61,889.18,22.63,
4512044,-0.05,-0.06,1.11,0.61,0.73,0.92,889.2,22.64,
4512082,-0.04,-0.05,1.19,1.4,1.53,0.67,889.18,22.63,
4512120,-0.04,-0.07,1.08,0.24,3.36,0.73,889.19,22.63,
4512158,-0.05,-0.05,1.14,1.1,1.89,1.16,889.19,22.64,
4512208,-0.05,-0.08,1.09,0.43,3.23,0.92,889.2,22.63,
4512247,-0.05,-0.06,1.18,0.85,2.26,1.1,889.19,22.63,
4512285,-0.02,-0.06,1.13,0.24,2.69,1.16,889.15,22.62,
4512323,-0.04,-0.06,1.2,0.49,1.83,1.04,889.19,22.64,
4512361,-0.04,-0.06,1.15,-0.06,2.87,1.28,889.21,22.63,
4512400,-0.04,-0.05,1.2,0.43,1.83,1.22,889.22,22.63,
4512438,-0.03,-0.07,1.17,0.0,2.38,1.59,889.2,22.62,
4512476,-0.03,-0.06,1.18,0.37,0.92,1.4,889.27,22.64,
4512515,-0.05,-0.07,1.19,0.43,1.83,1.59,889.22,22.64,
4512553,-0.03,-0.07,1.14,0.79,1.71,1.65,889.24,22.63,
4512603,-0.05,-0.06,1.15,1.22,1.83,1.71,889.26,22.63,
4512641,-0.03,-0.06,1.11,1.1,1.89,1.77,889.2,22.63,
4512679,-0.02,-0.06,1.1,1.4,1.4,1.59,889.2,22.63,
4512718,-0.04,-0.07,1.07,1.22,1.04,1.65,889.24,22.64,
4512756,-0.02,-0.07,1.14,1.59,0.31,1.83,889.26,22.64,
4512794,-0.03,-0.07,1.08,1.16,0.85,1.77,889.25,22.64,
4512832,-0.03,-0.06,1.07,1.46,0.24,1.71,889.21,22.65,
4512871,-0.04,-0.07,1.05,1.34,1.04,1.83,889.21,22.63,
4512909,-0.04,-0.08,1.04,1.83,1.46,1.71,889.2,22.64,
4512959,-0.03,-0.08,0.96,1.34,2.69,1.59,889.19,22.62,
4512997,-0.03,-0.06,0.99,1.53,3.72,1.65,889.25,22.62,
4513035,-0.01,-0.08,0.95,1.22,3.97,1.71,889.18,22.63,
4513074,-0.02,-0.07,1.0,1.4,3.36,1.53,889.16,22.64,
4513112,-0.04,-0.08,0.97,1.34,4.27,1.59,889.22,22.63,
4513150,-0.03,-0.08,0.99,1.28,4.21,1.71,889.21,22.63,
4513188,-0.01,-0.06,1.01,1.34,4.33,1.53,889.23,22.63,
4513227,-0.03,-0.07,0.96,1.4,4.52,1.59,889.2,22.64,
4513265,-0.02,-0.07,0.94,1.65,4.88,1.46,889.22,22.64,
4513303,-0.01,-0.07,0.96,1.71,5.68,1.4,889.19,22.63,
4513353,-0.04,-0.07,0.93,1.83,5.92,1.65,889.21,22.62,
4513391,-0.03,-0.07,0.92,2.08,5.31,1.53,889.16,22.62,
4513430,-0.01,-0.08,0.94,2.2,5.49,1.53,889.25,22.63,
4513468,-0.02,-0.07,0.87,1.77,4.58,1.65,889.24,22.63,
4513506,-0.02,-0.06,0.86,2.2,4.09,1.59,889.2,22.63,
4513544,-0.01,-0.07,0.84,2.01,3.85,1.59,889.27,22.63,
4513583,-0.01,-0.07,0.8,1.77,3.6,1.59,889.22,22.64,
4513621,-0.01,-0.07,0.85,1.83,2.99,1.34,889.2,22.63,
4513659,-0.02,-0.09,0.84,1.53,3.23,1.34,889.15,22.64,
4513697,-0.0,-0.08,0.89,1.4,2.75,1.34,889.21,22.63,
4513773,-0.03,-0.07,0.9,1.53,3.54,1.22,889.19,22.6,
4513812,-0.01,-0.07,0.94,1.71,4.09,0.98,889.21,22.61,
4513850,-0.01,-0.08,0.93,1.34,4.15,0.98,889.19,22.61,
4513940,-0.04,-0.07,0.92,1.77,3.97,1.04,889.2,22.58,
4513978,-0.02,-0.07,0.93,1.89,3.78,1.04,889.25,22.6,
4514016,-0.03,-0.07,0.93,1.95,2.87,1.16,889.24,22.6,
4514055,-0.03,-0.08,0.87,2.01,2.44,1.16,889.13,22.6,
4514093,-0.03,-0.07,0.86,1.77,2.01,1.04,889.21,22.61,
4514131,-0.03,-0.07,0.88,1.71,1.95,1.22,889.13,22.6,
4514181,-0.03,-0.08,0.88,1.59,2.01,1.34,889.18,22.6,
4514220,-0.06,-0.06,0.95,1.83,2.14,1.22,889.14,22.61,
4514258,-0.03,-0.07,0.96,1.59,3.54,1.28,889.22,22.6,
4514296,-0.02,-0.07,1.01,1.77,3.42,1.34,889.18,22.59,
4514334,-0.04,-0.07,0.96,1.4,4.7,1.59,889.26,22.62,
4514373,-0.03,-0.06,0.98,1.53,4.76,1.4,889.18,22.61,
4514411,-0.03,-0.07,0.99,1.34,4.94,1.53,889.26,22.62,
4514449,-0.01,-0.07,0.99,1.46,4.39,1.34,889.24,22.62,
4514488,-0.02,-0.06,1.01,1.28,4.27,1.53,889.21,22.62,
4514526,-0.02,-0.07,1.0,1.28,5.0,1.46,889.18,22.62,
4514576,-0.01,-0.07,1.06,0.98,5.86,1.28,889.23,22.61,
4514614,-0.04,-0.07,1.09,0.92,5.49,1.16,889.22,22.63,
4514652,-0.03,-0.06,1.14,1.34,6.1,1.16,889.19,22.61,
4514691,-0.02,-0.06,1.17,1.34,6.96,0.85,889.21,22.61,
4514729,-0.01,-0.04,1.24,1.46,7.08,0.92,889.26,22.61,
4514767,-0.02,-0.05,1.26,1.59,7.63,0.98,889.21,22.61,
4514805,-0.04,-0.05,1.25,1.53,9.03,0.98,889.16,22.61,
4514844,-0.02,-0.05,1.32,1.59,8.85,0.98,889.21,22.62,
4514882,-0.01,-0.06,1.28,1.28,7.75,0.98,889.2,22.63,
4514920,-0.01,-0.04,1.27,1.65,4.88,1.16,889.29,22.64,
4514970,0.01,-0.06,1.17,1.83,4.09,0.85,889.22,22.61,
4515009,0.0,-0.06,1.13,2.01,1.59,1.1,889.16,22.63,
4515047,-0.01,-0.06,1.09,2.44,-0.49,1.34,889.16,22.62,
4515085,-0.01,-0.07,1.05,2.75,-0.85,1.22,889.13,22.62,
4515123,-0.01,-0.08,1.04,3.17,-1.95,0.85,889.14,22.62,
4515162,0.0,-0.07,1.0,3.42,-3.05,0.79,889.14,22.62,
4515200,-0.0,-0.07,0.98,3.72,-4.76,0.73,889.11,22.62,
4515238,-0.01,-0.08,0.95,3.85,-3.85,0.49,889.15,22.62,
4515277,-0.0,-0.07,0.92,3.66,-4.09,0.67,889.09,22.62,
4515327,-0.01,-0.08,0.86,3.72,-4.46,0.49,889.12,22.61,
4515365,-0.02,-0.07,0.89,3.54,-5.62,0.18,889.1,22.62,
4515403,-0.02,-0.07,1.0,3.66,-4.88,0.24,889.16,22.62,
4515441,-0.01,-0.08,1.03,2.87,-3.54,0.12,889.14,22.61,
4515480,-0.0,-0.07,1.04,2.69,-3.11,0.0,889.17,22.61,
4515518,-0.02,-0.08,1.01,2.14,-1.95,0.0,889.22,22.61,
4515556,-0.01,-0.08,1.05,2.5,-1.77,-0.12,889.24,22.61,
4515594,-0.01,-0.08,0.96,2.08,-0.73,-0.24,889.2,22.62,
4515633,-0.02,-0.08,0.93,2.56,-0.67,-0.24,889.16,22.61,
4515671,-0.01,-0.09,0.88,2.32,0.18,-0.31,889.19,22.61,
4515721,-0.01,-0.08,0.91,2.01,0.31,-0.55,889.17,22.61,
4515759,-0.0,-0.09,0.91,1.89,0.55,-0.61,889.12,22.61,
4515797,-0.02,-0.09,0.96,1.71,0.98,-0.61,889.16,22.61,
4515836,-0.03,-0.09,0.97,1.77,0.49,-0.79,889.14,22.6,
4515874,-0.04,-0.08,0.93,2.14,0.67,-0.49,889.16,22.62,
4515912,-0.04,-0.08,0.87,2.14,0.43,-0.43,889.17,22.62,
4515951,-0.04,-0.09,0.81,2.56,1.22,-0.55,889.16,22.62,
4515989,-0.05,-0.09,0.73,2.26,2.75,-0.67,889.06,22.62,
4516027,-0.05,-0.07,0.75,1.71,3.23,-0.49,889.13,22.61,
4516077,-0.01,-0.09,0.81,1.4,2.87,-0.31,889.13,22.62,
4516115,-0.06,-0.09,0.85,1.1,3.05,-0.43,889.14,22.61,
4516154,-0.05,-0.09,0.93,1.22,3.66,-0.24,889.12,22.62,
4516192,-0.01,-0.08,1.04,0.85,2.93,-0.37,889.09,22.61,
4516230,-0.04,-0.09,1.03,0.61,2.87,-0.18,889.1,22.62,
4516268,-0.05,-0.09,1.12,0.79,2.99,0.06,889.16,22.62,
4516307,-0.03,-0.1,1.16,0.67,3.85,-0.31,889.11,22.63,
4516345,-0.04,-0.06,1.18,0.55,2.5,0.12,889.06,22.62,
4516383,-0.07,-0.07,1.23,1.04,2.75,0.12,889.11,22.62,
4516421,-0.04,-0.09,1.21,0.73,4.27,0.0,889.12,22.64,
4516471,-0.06,-0.07,1.31,0.98,3.36,0.12,889.06,22.61,
4516510,-0.05,-0.1,1.26,0.61,4.7,0.43,889.03,22.62,
4516548,-0.06,-0.08,1.26,0.79,3.97,0.24,889.04,22.63,
4516586,-0.06,-0.07,1.28,0.92,4.39,0.43,888.99,22.62,
4516625,-0.06,-0.08,1.22,1.1,3.78,0.61,889.07,22.62,
4516663,-0.07,-0.07,1.23,0.92,4.7,0.73,889.01,22.62,
4516701,-0.08,-0.08,1.24,1.1,4.03,1.04,889.01,22.62,
4516739,-0.05,-0.09,1.26,1.53,3.66,1.1,889.0,22.62,
4516778,-0.05,-0.07,1.25,1.28,2.87,1.46,889.04,22.62,
4516854,-0.06,-0.09,1.11,1.65,2.26,1.95,889.06,22.6,
4516892,-0.06,-0.08,1.14,1.71,1.46,2.32,889.05,22.61,
4516930,-0.04,-0.1,1.08,1.71,1.83,2.32,889.04,22.61,
4517020,-0.03,-0.08,1.02,1.1,1.1,2.62,889.0,22.59,
4517059,-0.04,-0.09,1.0,0.98,0.61,2.75,889.02,22.6,
4517097,-0.03,-0.1,1.02,0.92,0.18,2.75,889.02,22.61,
4517135,-0.03,-0.1,0.98,0.37,0.67,2.69,889.04,22.61,
4517174,-0.06,-0.09,0.95,0.18,0.49,2.87,888.99,22.6,
4517212,-0.03,-0.08,0.94,-0.31,1.1,2.69,888.96,22.6,
4517250,-0.03,-0.09,0.93,-0.79,1.22,2.81,888.99,22.61,
4517300,-0.03,-0.09,0.95,-0.98,1.46,2.93,888.97,22.6,
4517338,-0.04,-0.08,0.98,-0.92,2.44,2.99,888.93,22.62,
4517377,-0.04,-0.08,1.01,-1.1,3.42,3.05,889.0,22.61,
4517415,-0.03,-0.09,1.06,-0.98,3.66,3.11,889.01,22.62,
4517453,-0.03,-0.09,1.06,-0.85,4.21,2.99,888.97,22.61,
4517492,-0.02,-0.08,1.11,-0.73,4.52,3.05,888.98,22.62,
4517530,-0.02,-0.08,1.11,-0.43,4.82,3.11,888.91,22.61,
4517568,-0.02,-0.09,1.13,-0.37,4.46,3.11,888.96,22.62,
4517607,-0.02,-0.09,1.12,-0.37,5.19,2.93,888.98,22.62,
4517645,-0.02,-0.08,1.1,-0.61,5.0,3.11,888.97,22.63,
4517695,-0.03,-0.09,1.1,-0.55,4.94,3.23,888.92,22.61,
4517733,-0.02,-0.09,1.09,-0.73,4.88,3.17,888.93,22.62,
4517772,-0.02,-0.09,1.12,-0.98,5.19,3.05,888.93,22.63,
4517810,-0.01,-0.09,1.11,-1.1,5.19,2.99,888.89,22.61,
4517848,-0.02,-0.08,1.14,-1.04,4.76,3.3,888.92,22.61,
4517886,-0.02,-0.09,1.14,-1.16,4.52,3.3,888.84,22.62,
4517925,-0.01,-0.08,1.17,-1.04,4.33,3.23,888.89,22.61,
4517963,-0.01,-0.08,1.17,-1.4,4.39,3.05,888.88,22.62,
4518001,-0.03,-0.08,1.19,-1.28,4.09,3.23,888.91,22.62,
4518051,-0.02,-0.09,1.17,-1.4,4.15,3.17,888.85,22.61,
4518090,-0.01,-0.08,1.17,-1.34,3.97,2.99,888.86,22.62,
4518128,-0.02,-0.09,1.11,-1.77,4.09,3.05,888.84,22.62,
4518166,-0.01,-0.09,1.1,-1.83,3.78,3.17,888.8,22.61,
4518205,-0.02,-0.09,1.09,-2.69,3.3,3.11,888.81,22.61,
4518243,-0.01,-0.08,1.14,-2.87,2.44,3.05,888.79,22.62,
4518281,-0.02,-0.08,1.16,-3.17,2.87,3.11,888.83,22.62,
4518319,-0.01,-0.08,1.2,-3.23,3.11,2.93,888.75,22.61,
4518358,-0.02,-0.08,1.27,-3.72,3.17,2.87,888.74,22.63,
4518396,-0.02,-0.08,1.38,-3.66,4.88,2.75,888.71,22.62,
4518446,-0.03,-0.08,1.38,-4.21,5.25,2.75,888.68,22.61,
4518484,-0.02,-0.06,1.46,-4.03,5.43,2.75,888.71,22.62,
4518523,-0.02,-0.07,1.41,-4.52,6.59,2.5,888.75,22.62,
4518561,-0.01,-0.06,1.5,-4.27,5.92,2.5,888.72,22.63,
4518599,-0.0,-0.08,1.46,-4.52,6.47,2.5,888.68,22.63,
4518638,-0.03,-0.06,1.49,-4.46,5.0,2.62,888.68,22.62,
4518676,-0.02,-0.06,1.55,-4.39,5.43,2.62,888.65,22.62,
4518714,-0.01,-0.06,1.51,-4.7,4.52,2.69,888.65,22.62,
4518753,-0.01,-0.04,1.57,-4.64,3.3,2.56,888.62,22.63,
4518803,-0.02,-0.06,1.54,-4.64,2.62,2.62,888.54,22.61,
4518841,-0.0,-0.04,1.57,-4.52,2.56,2.69,888.59,22.61,
4518879,0.0,-0.07,1.54,-4.52,2.2,2.69,888.55,22.61,
4518917,-0.02,-0.06,1.55,-3.97,1.28,2.62,888.52,22.61,
4518956,-0.01,-0.05,1.49,-3.72,1.89,2.5,888.6,22.61,
4518994,0.0,-0.05,1.49,-2.5,1.28,2.2,888.58,22.63,
4519032,0.01,-0.06,1.43,-1.46,1.95,2.01,888.53,22.61,
4519071,0.0,-0.07,1.37,-0.67,1.04,1.77,888.51,22.61,
4519109,-0.0,-0.07,1.37,0.31,1.4,1.89,888.48,22.61,
4519147,0.0,-0.07,1.3,1.28,1.28,1.77,888.43,22.61,
4519197,-0.01,-0.07,1.29,2.08,0.55,1.65,888.49,22.6,
4519235,0.0,-0.07,1.27,2.44,0.49,1.4,888.36,22.61,
4519274,0.0,-0.06,1.26,2.44,0.37,1.34,888.36,22.61,
4519312,0.01,-0.07,1.2,2.44,0.85,1.16,888.32,22.61,
4519350,0.0,-0.07,1.15,2.08,0.85,1.04,888.27,22.61,
4519389,0.0,-0.07,1.09,1.4,1.65,0.79,888.26,22.62,
4519427,0.0,-0.08,1.06,0.79,1.53,0.67,888.23,22.61,
4519465,-0.0,-0.08,1.03,-0.24,1.65,0.73,888.14,22.59,
4519503,0.0,-0.08,1.02,-0.73,1.77,0.43,888.18,22.62,
4519553,0.0,-0.07,1.06,-1.1,1.65,0.49,888.16,22.6,
4519592,-0.01,-0.08,1.03,-1.59,2.26,0.31,888.13,22.61,
4519630,-0.0,-0.08,1.06,-1.65,2.5,0.12,888.1,22.61,
4519668,0.0,-0.08,1.07,-1.46,3.05,0.12,888.08,22.62,
4519707,-0.01,-0.07,1.11,-1.16,2.93,0.06,888.0,22.61,
4519745,-0.01,-0.07,1.13,-0.85,3.3,0.0,887.99,22.62,
4519783,-0.01,-0.08,1.1,-0.24,3.42,-0.18,888.0,22.61,
4519821,-0.0,-0.06,1.11,0.06,3.78,-0.31,887.95,22.61,
4519860,-0.01,-0.07,1.09,0.79,3.78,-0.37,887.97,22.62,
4519898,-0.01,-0.06,1.09,1.04,2.93,-0.49,887.88,22.61,
4519974,-0.0,-0.07,1.08,1.77,1.77,-0.49,887.9,22.6,
4520012,-0.01,-0.06,1.08,1.95,1.53,-0.55,887.85,22.61,
4520050,-0.02,-0.06,1.08,2.56,1.77,-0.67,887.77,22.61,
4520140,-0.03,-0.07,1.1,2.75,1.1,-0.43,887.71,22.56,
4520179,-0.03,-0.05,1.14,2.38,1.53,-0.73,887.69,22.58,
4520217,-0.0,-0.06,1.1,1.95,2.56,-0.73,887.65,22.58,
4520255,-0.03,-0.05,1.09,1.53,1.95,-0.79,887.63,22.59,
4520294,-0.03,-0.06,1.09,1.59,2.56,-0.79,887.59,22.58,
4520332,-0.02,-0.06,1.07,1.77,2.99,-0.85,887.54,22.6,
4520382,-0.02,-0.05,1.09,2.08,2.87,-0.67,887.5,22.58,
4520420,-0.03,-0.06,1.05,1.95,3.36,-0.79,887.5,22.59,
4520458,-0.01,-0.06,1.07,1.95,3.42,-0.73,887.34,22.58,
4520497,-0.01,-0.06,1.03,1.53,3.11,-0.79,887.38,22.6,
4520535,-0.03,-0.06,1.0,1.22,3.05,-0.55,887.36,22.6,
4520573,-0.02,-0.06,0.97,0.61,3.36,-0.79,887.35,22.6,
4520612,-0.02,-0.06,0.98,0.37,3.17,-0.79,887.28,22.61,
4520650,-0.02,-0.07,0.93,0.0,3.66,-0.67,887.28,22.59,
4520688,-0.04,-0.06,0.94,0.31,3.23,-0.73,887.2,22.6,
4520726,-0.02,-0.06,0.94,0.55,4.21,-0.79,887.27,22.62,
4520776,-0.02,-0.06,0.93,0.98,4.27,-0.79,887.19,22.6,
4520815,-0.03,-0.06,0.93,1.4,4.82,-0.73,887.13,22.6,
4520853,-0.04,-0.07,0.88,1.4,5.13,-0.92,887.15,22.61,
4520891,-0.05,-0.05,0.92,2.38,5.0,-0.85,887.09,22.61,
4520929,-0.04,-0.07,0.84,2.08,5.8,-0.61,887.01,22.6,
4520968,-0.05,-0.05,0.88,2.56,4.58,-0.61,887.01,22.61,
4521006,-0.05,-0.06,0.85,2.69,6.16,-0.49,886.93,22.61,
4521044,-0.04,-0.05,0.85,3.11,5.68,-0.31,886.99,22.61,
4521083,-0.05,-0.05,0.86,3.36,5.43,-0.24,886.89,22.61,
4521133,-0.07,-0.05,0.86,3.78,5.55,0.12,886.88,22.6,
4521171,-0.04,-0.06,0.83,3.72,5.92,0.12,886.81,22.61,
4521209,-0.05,-0.04,0.83,4.09,4.64,0.31,886.77,22.61,
4521248,-0.06,-0.05,0.81,4.39,5.07,0.55,886.78,22.61,
4521286,-0.04,-0.05,0.78,4.09,4.52,0.67,886.74,22.61,
4521324,-0.04,-0.05,0.82,4.52,3.6,0.61,886.68,22.61,
4521363,-0.05,-0.05,0.75,4.27,3.42,1.22,886.71,22.62,
4521401,-0.07,-0.05,0.76,4.94,2.44,1.22,886.6,22.61,
4521439,-0.03,-0.06,0.73,4.27,2.32,1.4,886.57,22.62,
4521477,-0.05,-0.05,0.75,4.39,0.85,1.46,886.59,22.61,
4521527,-0.05,-0.06,0.66,3.85,1.28,2.01,886.54,22.6,
4521566,-0.05,-0.05,0.72,4.58,-0.24,2.08,886.47,22.61,
4521604,-0.05,-0.07,0.65,4.58,-0.43,2.26,886.52,22.61,
4521642,-0.04,-0.05,0.66,4.82,-0.98,2.44,886.45,22.6,
4521681,-0.03,-0.05,0.59,5.62,-0.06,2.5,886.41,22.61,
4521719,-0.05,-0.04,0.56,5.55,-1.34,2.75,886.41,22.61,
4521757,-0.05,-0.05,0.56,6.35,-2.2,2.99,886.42,22.61,
4521796,-0.05,-0.07,0.5,6.1,-1.28,3.11,886.39,22.6,
4521834,-0.05,-0.06,0.48,5.86,-1.83,3.23,886.39,22.6,
4521872,-0.03,-0.05,0.45,5.74,-2.62,3.36,886.33,22.61,
4521922,-0.03,-0.06,0.42,4.94,-3.23,3.6,886.31,22.6,
4521961,-0.02,-0.05,0.44,4.27,-2.99,3.66,886.3,22.61,
4521999,-0.04,-0.06,0.45,3.72,-2.93,3.91,886.27,22.6,
4522037,-0.04,-0.05,0.48,3.3,-3.36,3.85,886.29,22.61,
4522075,-0.03,-0.05,0.51,3.05,-3.11,3.72,886.25,22.6,
4522114,-0.03,-0.06,0.51,2.81,-1.95,3.78,886.24,22.6,
4522152,-0.02,-0.05,0.5,2.62,-0.85,3.66,886.28,22.6,
4522190,-0.04,-0.05,0.52,2.81,-0.43,3.85,886.21,22.61,
4522229,-0.04,-0.05,0.48,2.44,2.01,3.91,886.22,22.59,
4522279,-0.04,-0.05,0.56,2.87,4.03,3.97,886.18,22.58,
4522317,-0.04,-0.06,0.55,2.69,5.49,3.91,886.22,22.58,
4522355,-0.04,-0.05,0.6,2.75,6.16,4.03,886.09,22.6,
4522394,-0.03,-0.05,0.61,2.75,7.02,4.03,886.21,22.59,
4522432,-0.02,-0.04,0.64,2.75,6.77,4.15,886.16,22.61,
4522470,-0.02,-0.05,0.67,2.62,6.96,4.33,886.18,22.61,
4522508,-0.03,-0.05,0.68,2.38,6.71,4.39,886.19,22.61,
4522547,-0.03,-0.04,0.73,2.38,6.35,4.58,886.15,22.61,
4522585,-0.03,-0.04,0.72,2.32,6.41,4.46,886.12,22.6,
4522623,-0.02,-0.03,0.8,2.81,5.98,4.7,886.13,22.61,
4522673,-0.01,-0.03,0.82,2.75,6.04,4.64,886.15,22.61,
4522712,-0.01,-0.02,0.9,3.23,5.43,4.76,886.16,22.6,
4522750,-0.01,-0.03,0.9,3.23,5.37,4.7,886.15,22.61,
4522788,-0.02,-0.02,0.92,3.78,4.7,4.94,886.17,22.61,
4522827,-0.03,-0.03,0.91,3.91,4.82,4.7,886.16,22.6,
4522865,-0.01,-0.02,0.94,4.33,4.58,4.64,886.14,22.6,
4522903,-0.01,-0.02,0.93,4.46,4.58,4.64,886.13,22.61,
4522942,-0.02,-0.01,0.9,4.33,4.33,4.7,886.1,22.61,
4522980,-0.02,-0.02,0.91,4.27,4.27,4.82,886.08,22.61,
4523056,-0.02,-0.02,0.96,3.97,3.42,4.82,886.08,22.57,
4523094,-0.01,-0.03,0.93,3.48,3.66,4.76,886.14,22.59,
4523132,-0.01,-0.02,0.95,3.54,3.11,4.7,886.07,22.58,
4523222,-0.01,-0.02,0.93,3.48,2.08,4.76,886.05,22.56,
4523261,-0.01,-0.03,0.91,3.42,2.38,4.7,886.06,22.57,
4523299,0.01,-0.03,0.92,3.48,1.71,4.7,886.11,22.58,
4523337,-0.0,-0.02,0.91,3.78,1.28,4.7,886.11,22.57,
4523376,0.0,-0.03,0.92,3.91,0.98,4.52,886.1,22.57,
4523414,-0.0,-0.02,0.93,4.03,0.85,4.46,886.03,22.58,
4523452,0.01,-0.03,0.94,4.15,0.24,4.52,886.09,22.58,
4523502,0.0,-0.03,0.92,4.39,0.12,4.15,886.07,22.57,
4523540,0.0,-0.03,0.92,4.52,-0.12,4.09,886.12,22.59,
4523579,0.01,-0.03,0.92,4.76,-0.49,4.09,886.09,22.59,
4523617,-0.0,-0.03,0.88,5.0,-0.55,4.15,886.06,22.58,
4523655,0.01,-0.03,0.87,5.25,-0.98,4.09,886.07,22.59,
4523694,0.01,-0.03,0.86,5.49,-0.67,3.85,886.05,22.59,
4523732,0.01,-0.04,0.83,5.19,-0.98,3.91,886.06,22.61,
4523770,-0.0,-0.03,0.84,5.55,-0.98,3.54,885.98,22.61,
4523809,0.01,-0.04,0.8,5.25,-0.61,3.48,886.06,22.6,
4523847,0.01,-0.04,0.8,5.31,-0.61,3.3,886.04,22.6,
4523897,0.01,-0.04,0.76,5.13,0.49,3.05,886.04,22.58,
4523935,0.01,-0.03,0.75,5.0,0.92,3.05,886.05,22.61,
4523973,0.0,-0.04,0.74,5.31,1.71,2.75,886.07,22.59,
4524012,0.0,-0.04,0.76,5.62,2.2,2.62,886.1,22.6,
4524050,0.01,-0.04,0.8,6.04,2.93,2.38,886.03,22.6,
4524088,0.01,-0.04,0.79,6.41,4.33,2.14,886.07,22.6,
4524127,0.0,-0.03,0.75,7.02,4.82,2.01,886.05,22.6,
4524165,0.01,-0.03,0.76,7.63,5.19,1.95,886.08,22.61,
4524203,0.01,-0.05,0.72,7.75,5.8,1.71,886.05,22.61,
4524242,0.0,-0.04,0.71,8.0,5.92,1.65,885.99,22.6,
4524292,0.01,-0.04,0.68,8.18,6.65,1.59,886.09,22.6,
4524330,0.02,-0.04,0.69,8.36,5.92,1.28,886.02,22.61,
4524368,0.01,-0.04,0.67,8.42,6.04,1.28,886.04,22.6,
4524407,0.01,-0.05,0.64,8.0,6.41,1.16,886.01,22.61,
4524445,0.0,-0.04,0.68,8.06,5.74,1.04,886.0,22.61,
4524483,0.01,-0.05,0.64,7.57,5.86,0.92,886.06,22.6,
4524522,-0.0,-0.04,0.65,7.26,5.62,1.04,886.05,22.61,
4524560,0.01,-0.05,0.64,6.96,5.19,0.92,886.1,22.62,
4524598,0.01,-0.05,0.67,6.53,5.13,0.85,886.09,22.61,
4524649,0.0,-0.04,0.67,6.47,4.46,0.67,886.05,22.58,
4524687,0.01,-0.04,0.68,6.53,4.09,0.73,886.11,22.61,
4524725,0.0,-0.05,0.67,6.29,3.85,0.61,886.08,22.6,
4524764,0.01,-0.04,0.69,6.1,2.99,0.49,886.07,22.6,
4524802,0.0,-0.05,0.68,5.74,2.87,0.37,886.09,22.61,
4524840,0.01,-0.04,0.7,5.37,1.83,0.37,886.12,22.61,
4524878,0.01,-0.04,0.72,4.94,1.71,0.31,886.11,22.6,
4524917,0.01,-0.05,0.71,4.58,1.28,0.24,886.13,22.61,
4524955,-0.0,-0.04,0.77,4.64,0.79,0.24,886.18,22.62,
4524993,-0.0,-0.04,0.76,4.21,1.34,0.06,886.2,22.61,
4525043,0.01,-0.04,0.82,4.7,1.16,-0.06,886.21,22.6,
4525082,0.0,-0.04,0.82,4.7,1.46,-0.24,886.21,22.61,
4525120,-0.0,-0.03,0.84,4.94,1.4,-0.31,886.27,22.62,
4525158,0.0,-0.04,0.82,5.25,2.01,-0.37,886.26,22.61,
4525197,-0.0,-0.04,0.82,5.55,1.77,-0.37,886.24,22.6,
4525235,-0.01,-0.04,0.8,5.8,2.14,-0.49,886.25,22.62,
4525273,0.0,-0.04,0.79,5.62,2.75,-0.55,886.26,22.61,
4525312,-0.0,-0.04,0.78,5.55,3.05,-0.67,886.25,22.6,
4525350,-0.0,-0.04,0.77,5.25,3.6,-0.79,886.3,22.61,
4525388,-0.0,-0.04,0.75,4.58,3.23,-0.85,886.25,22.61,
4525438,-0.01,-0.04,0.77,4.15,2.75,-0.67,886.33,22.6,
4525476,-0.01,-0.04,0.77,3.48,2.32,-0.73,886.32,22.61,
4525515,-0.0,-0.04,0.79,3.17,2.14,-0.92,886.38,22.61,
4525553,-0.0,-0.04,0.81,2.69,1.59,-0.73,886.4,22.6,
4525591,-0.0,-0.04,0.85,2.62,1.46,-0.92,886.39,22.61,
4525629,-0.02,-0.04,0.87,2.32,1.71,-0.85,886.39,22.6,
4525668,-0.02,-0.03,0.89,2.26,1.71,-0.92,886.4,22.61,
4525706,-0.01,-0.03,0.93,2.26,1.34,-0.92,886.47,22.61,
4525744,-0.0,-0.03,0.97,2.32,1.4,-0.92,886.46,22.61,
4525794,-0.0,-0.02,0.98,2.44,1.46,-0.85,886.46,22.59,
4525832,-0.01,-0.03,0.98,2.75,1.28,-0.85,886.48,22.6,
4525871,-0.01,-0.02,0.96,2.87,1.22,-0.73,886.52,22.61,
4525909,-0.01,-0.03,0.93,2.87,1.4,-0.85,886.52,22.61,
4525947,-0.01,-0.03,0.94,3.17,1.04,-0.85,886.52,22.61,
4525986,-0.02,-0.03,0.94,3.3,0.85,-0.73,886.56,22.61,
4526024,-0.02,-0.04,0.94,3.6,0.55,-0.79,886.53,22.6,
4526062,-0.01,-0.03,0.94,3.66,0.79,-0.92,886.5,22.61,
4526101,-0.02,-0.03,0.92,3.85,0.43,-0.79,886.56,22.6,
4526139,-0.02,-0.03,0.9,3.72,0.67,-0.85,886.61,22.61,
4526215,-0.02,-0.04,0.9,3.97,0.92,-0.73,886.62,22.6,
4526253,-0.02,-0.04,0.89,3.97,0.67,-0.92,886.63,22.6,
4526292,-0.03,-0.04,0.89,4.27,1.22,-0.61,886.65,22.6,
4526382,-0.02,-0.04,0.91,4.15,1.89,-0.55,886.72,22.57,
4526420,-0.03,-0.03,0.92,4.21,1.28,-0.55,886.71,22.58,
4526458,-0.02,-0.04,0.92,4.21,2.01,-0.61,886.76,22.59,
4526497,-0.04,-0.04,0.9,4.03,2.5,-0.31,886.78,22.6,
4526535,-0.04,-0.04,0.91,4.52,2.5,-0.37,886.78,22.6,
4526573,-0.04,-0.05,0.85,4.09,3.72,-0.24,886.8,22.59,
4526623,-0.03,-0.04,0.89,4.46,3.42,-0.18,886.77,22.59,
4526662,-0.02,-0.05,0.87,4.39,4.15,0.0,886.82,22.6,
4526700,-0.03,-0.05,0.86,4.39,4.58,-0.06,886.9,22.61,
4526738,-0.03,-0.05,0.87,4.33,4.94,0.06,886.89,22.59,
4526777,-0.03,-0.05,0.9,4.21,5.13,0.24,886.89,22.6,
4526815,-0.02,-0.05,0.87,4.15,4.94,0.31,886.89,22.6,
4526853,-0.02,-0.05,0.87,4.09,5.19,0.31,886.95,22.61,
4526891,-0.02,-0.05,0.88,3.72,4.46,0.49,886.95,22.61,
4526930,-0.01,-0.06,0.89,3.54,4.52,0.43,887.01,22.6,
4526968,-0.0,-0.05,0.86,2.99,4.52,0.49,886.98,22.61,
4527018,-0.01,-0.05,0.92,3.17,3.91,0.67,886.99,22.59,
4527057,-0.01,-0.06,0.87,2.5,4.03,0.55,887.02,22.6,
4527095,-0.02,-0.05,0.91,2.75,3.66,0.49,887.02,22.6,
4527133,-0.02,-0.06,0.85,2.26,4.15,0.49,887.05,22.6,
4527171,-0.02,-0.05,0.87,2.38,3.6,0.55,887.1,22.61,
4527210,-0.01,-0.05,0.87,2.38,4.09,0.37,887.04,22.6,
4527248,-0.04,-0.05,0.88,2.14,4.03,0.43,887.1,22.6,
4527286,-0.03,-0.05,0.88,2.26,4.52,0.43,887.19,22.61,
4527325,-0.02,-0.06,0.86,1.77,4.58,0.43,887.21,22.61,
4527375,-0.03,-0.05,0.89,1.83,4.94,0.61,887.19,22.59,
4527413,-0.03,-0.05,0.9,1.59,5.07,0.67,887.21,22.6,
4527451,-0.03,-0.05,0.94,1.71,4.88,0.67,887.23,22.6,
4527490,-0.02,-0.05,0.94,1.34,5.0,0.79,887.24,22.61,
4527528,-0.02,-0.04,1.01,1.77,4.64,0.79,887.28,22.59,
4527566,-0.03,-0.05,1.0,1.71,5.55,0.79,887.32,22.61,
4527605,-0.02,-0.05,1.02,1.83,4.76,0.79,887.4,22.61,
4527643,-0.02,-0.05,1.0,1.4,5.19,0.92,887.41,22.61,
4527681,-0.02,-0.05,0.98,1.71,5.43,0.73,887.46,22.6,
4527719,-0.02,-0.05,0.98,2.08,5.19,1.04,887.44,22.6,
4527769,-0.02,-0.05,0.97,2.2,4.46,1.04,887.44,22.6,
4527808,-0.02,-0.06,0.98,2.2,4.52,1.16,887.49,22.62,
4527846,-0.01,-0.05,0.99,2.14,4.64,1.1,887.47,22.6,
4527884,-0.03,-0.05,0.99,2.38,4.39,1.28,887.49,22.61,
4527923,-0.02,-0.05,1.0,1.95,4.09,1.22,887.47,22.61,
4527961,-0.02,-0.05,1.0,1.95,4.21,1.16,887.58,22.61,
4527999,-0.02,-0.06,0.99,1.89,4.03,1.16,887.53,22.61,
4528037,-0.01,-0.06,0.97,1.4,3.6,1.16,887.51,22.61,
4528075,-0.03,-0.06,0.96,1.22,3.6,1.04,887.56,22.62,
4528114,-0.02,-0.06,0.94,1.04,4.09,1.28,887.68,22.61,
4528164,-0.02,-0.06,0.95,0.85,3.97,1.22,887.68,22.61,
4528202,-0.02,-0.07,0.94,0.67,4.33,1.16,887.73,22.6,
4528240,-0.02,-0.06,0.96,0.67,4.15,1.04,887.75,22.61,
4528278,-0.03,-0.06,0.98,0.55,4.39,1.22,887.68,22.61,
4528317,-0.03,-0.06,0.99,0.73,3.72,1.4,887.72,22.61,
4528355,-0.03,-0.06,0.99,0.61,3.66,1.34,887.81,22.62,
4528393,-0.02,-0.06,0.97,0.06,3.6,1.34,887.79,22.62,
4528432,-0.01,-0.05,1.01,-0.18,2.75,1.53,887.82,22.61,
4528470,-0.02,-0.05,1.03,-0.37,2.2,1.65,887.86,22.61,
4528520,-0.01,-0.06,1.09,-0.31,1.65,1.71,887.87,22.61,
4528558,-0.01,-0.05,1.14,-0.31,1.28,1.71,887.93,22.61,
4528597,-0.03,-0.05,1.15,-0.55,1.46,1.83,887.88,22.61,
4528635,-0.02,-0.05,1.19,-0.24,1.53,1.71,887.94,22.61,
4528673,-0.01,-0.05,1.2,-0.24,2.01,1.65,887.98,22.61,
4528712,-0.01,-0.04,1.21,-0.24,1.1,1.71,888.04,22.61,
4528750,-0.02,-0.04,1.2,-0.06,1.4,1.71,888.05,22.61,
4528788,-0.02,-0.05,1.17,-0.06,1.89,1.65,888.03,22.61,
4528826,-0.0,-0.04,1.22,0.18,1.89,1.59,888.01,22.61,
4528865,-0.01,-0.05,1.18,-0.18,2.01,1.46,888.12,22.62,
4528915,-0.03,-0.04,1.22,0.18,2.38,1.1,888.13,22.6,
4528953,-0.01,-0.04,1.23,0.37,3.91,1.16,888.13,22.61,
4528991,-0.0,-0.05,1.24,0.37,4.09,0.92,888.15,22.61,
4529029,-0.01,-0.05,1.21,0.49,4.27,0.98,888.17,22.62,
4529068,-0.02,-0.05,1.19,0.73,4.46,0.92,888.18,22.61,
4529106,-0.01,-0.05,1.16,0.85,4.82,0.92,888.17,22.61,
4529144,-0.01,-0.04,1.16,1.1,4.27,0.79,888.2,22.61,
4529183,-0.02,-0.05,1.17,1.04,4.82,0.92,888.25,22.61,
4529221,-0.01,-0.06,1.15,0.98,5.13,0.85,888.29,22.61,
4529259,-0.01,-0.05,1.2,1.04,4.76,0.67,888.26,22.61,
4529410,-0.01,-0.06,1.07,1.4,3.23,0.85,888.35,22.56,
4529448,-0.02,-0.07,1.03,1.71,2.93,0.73,888.4,22.57,
4529487,-0.02,-0.07,0.98,1.53,2.93,0.55,888.39,22.56,
4529577,-0.02,-0.07,0.95,1.77,2.32,0.43,888.44,22.55,
4529615,-0.02,-0.07,0.94,1.89,2.81,0.49,888.43,22.56,
4529653,-0.01,-0.08,0.89,1.53,3.3,0.43,888.44,22.57,
4529692,-0.02,-0.07,0.92,1.53,2.44,0.37,888.45,22.57,
4529730,-0.02,-0.07,0.9,1.22,3.05,0.37,888.48,22.57,
4529768,-0.02,-0.08,0.94,1.16,2.87,0.24,888.5,22.57,
4529818,0.0,-0.07,0.98,0.98,2.99,0.24,888.54,22.58,
4529857,-0.01,-0.07,1.01,0.92,2.08,0.24,888.5,22.58,
4529895,-0.01,-0.08,0.99,0.49,2.14,0.18,888.54,22.57,
4529933,-0.01,-0.08,1.02,0.73,1.28,0.12,888.53,22.58,
4529971,-0.0,-0.07,1.07,0.55,0.61,0.06,888.54,22.57,
4530010,-0.01,-0.08,1.08,0.61,0.0,0.06,888.65,22.58,
4530048,-0.02,-0.07,1.09,0.61,0.55,0.12,888.61,22.59,
4530086,-0.0,-0.08,1.05,0.61,0.98,-0.06,888.64,22.58,
4530125,-0.03,-0.08,1.06,0.73,0.67,0.0,888.67,22.58,
4530163,-0.01,-0.08,1.1,1.04,0.98,0.0,888.66,22.59,
4530213,-0.01,-0.08,1.05,1.04,2.08,-0.43,888.72,22.57,
4530251,0.0,-0.08,1.05,0.61,2.38,-0.37,888.65,22.58,
4530289,0.0,-0.07,1.08,0.55,2.01,-0.55,888.71,22.58,
4530328,-0.03,-0.08,1.1,0.18,3.11,-0.67,888.75,22.59,
4530366,-0.0,-0.07,1.14,0.18,2.62,-0.85,888.73,22.59,
4530404,-0.02,-0.07,1.15,0.24,3.11,-0.79,888.75,22.59,
4530443,-0.02,-0.08,1.12,0.18,3.3,-0.73,888.81,22.59,
4530481,-0.01,-0.07,1.13,0.55,3.3,-1.1,888.8,22.59,
4530519,-0.0,-0.08,1.1,0.43,2.81,-0.79,888.83,22.61,
4530569,-0.01,-0.08,1.02,0.55,2.56,-1.04,888.88,22.6,
4530608,-0.01,-0.08,0.94,0.24,2.5,-1.04,888.83,22.6,
4530646,-0.0,-0.08,0.92,0.43,1.16,-1.28,888.82,22.59,
4530684,-0.05,-0.08,0.87,0.37,0.43,-1.34,888.87,22.59,
4530722,-0.03,-0.09,0.85,0.12,1.71,-1.34,888.88,22.6,
4530760,0.0,-0.07,0.89,0.06,1.53,-1.46,888.89,22.6,
4530799,-0.04,-0.08,0.94,0.0,1.95,-1.16,888.93,22.6,
4530837,-0.03,-0.09,0.94,-0.06,2.08,-1.1,888.85,22.59,
4530875,-0.04,-0.08,1.0,-0.06,2.56,-1.34,888.89,22.6,
4530914,-0.03,-0.08,1.01,-0.06,3.11,-1.28,888.95,22.6,
4530964,-0.02,-0.07,1.06,0.06,2.75,-1.34,889.0,22.59,
4531002,-0.03,-0.07,1.08,-0.06,2.81,-1.34,889.02,22.6,
4531040,-0.02,-0.07,1.13,0.24,2.5,-1.28,888.95,22.6,
4531079,-0.03,-0.08,1.15,0.49,2.44,-1.1,889.04,22.6,
4531117,-0.02,-0.07,1.16,0.85,1.71,-1.22,889.02,22.6,
4531155,-0.03,-0.07,1.16,1.28,2.32,-1.16,888.99,22.61,
4531194,-0.03,-0.07,1.19,1.59,2.2,-1.28,888.96,22.6,
4531232,-0.03,-0.08,1.19,1.59,2.69,-1.1,889.0,22.59,
4531270,-0.05,-0.06,1.19,1.46,2.44,-1.22,888.99,22.61,
4531320,-0.05,-0.08,1.19,1.34,4.33,-1.1,889.02,22.59,
4531358,-0.04,-0.08,1.17,1.28,3.72,-0.98,889.09,22.6,
4531397,-0.06,-0.06,1.26,1.71,2.99,-1.04,889.06,22.6,
4531435,-0.05,-0.09,1.18,1.65,3.72,-0.67,889.1,22.61,
4531473,-0.05,-0.06,1.22,1.71,2.44,-0.67,889.14,22.61,
4531512,-0.04,-0.07,1.18,1.65,3.11,-0.43,889.12,22.6,
4531550,-0.05,-0.08,1.12,1.77,1.89,-0.18,889.15,22.6,
4531588,-0.05,-0.07,1.13,1.95,1.89,-0.06,889.17,22.6,
4531627,-0.04,-0.08,1.07,1.71,1.83,0.24,889.17,22.59,
4531665,-0.04,-0.07,1.11,1.77,0.49,0.06,889.13,22.6,
4531715,-0.03,-0.09,1.05,1.28,0.67,0.24,889.13,22.59,
4531753,-0.06,-0.08,1.05,1.53,0.73,0.49,889.13,22.6,
4531792,-0.04,-0.08,1.02,0.92,1.1,0.37,889.16,22.58,
4531830,-0.05,-0.08,1.06,1.46,0.37,0.55,889.21,22.61,
4531868,-0.05,-0.1,1.04,1.16,1.59,0.73,889.19,22.59,
4531906,-0.05,-0.09,1.01,0.98,1.71,0.61,889.21,22.6,
4531945,-0.05,-0.08,0.99,0.73,2.26,0.85,889.22,22.6,
4531983,-0.07,-0.08,0.96,0.49,2.2,0.85,889.2,22.59,
4532021,-0.06,-0.08,0.95,0.49,3.48,0.79,889.16,22.6,
4532072,-0.05,-0.09,0.93,0.31,3.3,0.73,889.2,22.59,
4532110,-0.06,-0.09,0.97,0.73,2.75,1.04,889.26,22.59,
4532148,-0.05,-0.09,0.94,0.31,3.23,1.1,889.28,22.6,
4532187,-0.06,-0.08,0.95,0.73,2.69,1.16,889.25,22.6,
4532225,-0.06,-0.09,0.94,0.49,3.23,1.46,889.23,22.6,
4532263,-0.06,-0.09,0.97,0.61,2.75,1.77,889.28,22.61,
4532302,-0.04,-0.08,1.0,0.24,2.5,1.65,889.3,22.61,
4532340,-0.05,-0.07,1.02,0.18,2.81,1.77,889.28,22.61,
4532378,-0.05,-0.09,1.04,-0.18,3.48,1.95,889.31,22.6,
4532417,-0.05,-0.08,1.11,-0.12,2.93,2.14,889.33,22.6,
4532493,-0.06,-0.08,1.12,0.06,3.3,2.5,889.37,22.58,
4532531,-0.05,-0.08,1.09,-0.12,4.39,2.32,889.36,22.59,
4532569,-0.04,-0.08,1.1,0.12,4.09,2.38,889.4,22.59,
4532659,-0.04,-0.08,1.09,0.55,5.25,2.69,889.37,22.56,
4532698,-0.05,-0.08,1.13,0.73,5.68,2.69,889.4,22.58,
4532736,-0.04,-0.09,1.09,0.79,5.62,2.81,889.46,22.58,
4532774,-0.05,-0.08,1.11,1.22,5.31,2.69,889.42,22.57,
4532813,-0.04,-0.09,1.06,1.1,5.92,2.87,889.49,22.58,
4532851,-0.03,-0.08,1.04,1.53,5.19,2.81,889.43,22.6,
4532889,-0.05,-0.08,1.07,1.71,5.92,2.99,889.42,22.58,
4532939,-0.06,-0.09,1.02,1.53,5.13,3.17,889.43,22.58,
4532977,-0.05,-0.08,1.03,1.53,4.88,3.36,889.54,22.59,
4533016,-0.04,-0.09,1.01,1.4,4.33,3.3,889.51,22.58,
4533054,-0.02,-0.07,1.02,1.65,3.91,3.48,889.5,22.59,
4533092,-0.03,-0.08,0.98,1.4,3.23,3.72,889.54,22.59,
4533131,-0.04,-0.09,0.97,1.95,1.95,3.66,889.5,22.59,
4533169,-0.03,-0.09,0.93,1.34,1.65,3.72,889.51,22.58,
4533207,-0.03,-0.08,0.96,1.65,0.43,3.72,889.55,22.58,
4533246,-0.02,-0.09,0.89,1.53,0.0,3.6,889.56,22.58,
4533296,-0.04,-0.09,0.91,2.01,-0.79,3.78,889.55,22.58,
4533334,-0.02,-0.09,0.87,1.71,-0.55,3.85,889.59,22.58,
4533372,-0.03,-0.08,0.89,2.26,-1.34,3.85,889.63,22.59,
4533411,-0.06,-0.09,0.86,2.26,-1.28,3.78,889.54,22.59,
4533449,-0.04,-0.09,0.84,2.2,-0.98,3.78,889.6,22.6,
4533487,-0.04,-0.09,0.86,2.38,-0.92,3.72,889.61,22.59,
4533526,-0.04,-0.09,0.81,1.83,-0.12,3.85,889.64,22.59,
4533564,-0.04,-0.09,0.84,2.01,0.24,3.78,889.64,22.59,
4533602,-0.02,-0.09,0.85,1.65,1.04,3.85,889.62,22.6,
4533640,-0.03,-0.08,0.91,1.89,1.28,3.85,889.63,22.6,
4533690,-0.02,-0.1,0.87,1.46,1.95,3.91,889.72,22.57,
4533729,-0.03,-0.08,0.87,1.34,1.59,3.91,889.75,22.6,
4533767,-0.01,-0.08,0.93,1.1,2.2,3.91,889.72,22.6,
4533805,0.01,-0.09,0.93,0.67,2.08,3.54,889.72,22.59,
4533844,-0.01,-0.08,0.97,0.79,2.14,3.6,889.73,22.59,
4533882,0.0,-0.08,1.01,0.49,2.38,3.72,889.76,22.61,
4533920,-0.01,-0.09,1.03,0.37,1.89,3.48,889.79,22.61,
4533959,-0.02,-0.09,1.05,-0.12,2.56,3.42,889.77,22.6,
4533997,-0.01,-0.08,1.1,-0.18,2.56,3.3,889.82,22.6,
4534035,0.0,-0.08,1.14,-0.31,2.2,3.11,889.82,22.61,
4534085,-0.01,-0.08,1.16,-0.37,2.01,3.11,889.84,22.59,
4534123,-0.01,-0.08,1.16,-0.67,2.69,3.05,889.89,22.6,
4534162,-0.01,-0.08,1.19,-0.73,1.83,2.99,889.82,22.59,
4534200,-0.03,-0.07,1.26,-0.43,1.53,2.99,889.87,22.6,
4534238,-0.02,-0.08,1.22,-0.49,1.95,3.11,889.89,22.59,
4534277,-0.01,-0.06,1.28,-0.18,1.22,2.87,889.88,22.58,
4534315,-0.01,-0.07,1.3,-0.31,1.71,3.17,889.93,22.62,
