timestamp,acc_x,acc_y,acc_z,rot_x,rot_y,rot_z,qfe,temp,Unnamed: 10
5351509,-0.03,-0.06,1.11,1.46,3.05,0.55,886.04,21.55,
5351548,-0.02,-0.09,1.07,1.22,5.37,0.73,886.05,21.56,
5351598,-0.02,-0.06,1.2,1.65,4.58,0.37,886.12,21.56,
5351636,-0.03,-0.08,1.19,0.85,6.65,0.67,886.02,21.54,
5351674,0.03,-0.07,1.24,0.31,4.33,0.37,886.09,21.58,
5351712,0.0,-0.05,1.32,0.12,4.52,0.24,886.1,21.56,
5351751,-0.02,-0.05,1.31,0.0,4.52,0.55,886.15,21.56,
5351789,0.01,-0.05,1.38,0.55,4.21,0.43,886.12,21.56,
5351827,0.04,-0.04,1.42,0.73,2.99,0.24,886.12,21.56,
5351865,-0.01,-0.07,1.34,1.1,3.66,0.67,886.16,21.56,
5351904,0.0,-0.08,1.21,1.22,4.46,0.24,886.22,21.57,
5351942,0.05,-0.07,1.27,2.2,3.36,-0.24,886.17,21.56,
5351992,-0.02,-0.07,1.01,1.77,3.42,0.0,886.25,21.54,
5352030,0.02,-0.06,1.06,3.36,2.62,-0.31,886.15,21.56,
5352068,0.0,-0.08,0.84,1.89,3.78,-0.67,886.12,21.56,
5352107,-0.01,-0.05,0.96,2.5,0.98,-0.55,886.17,21.57,
5352145,0.01,-0.1,0.96,1.83,2.44,-0.55,886.16,21.57,
5352183,0.01,-0.09,1.04,1.71,2.38,-1.34,886.17,21.56,
5352221,-0.02,-0.07,1.04,1.77,3.36,-0.98,886.16,21.56,
5352260,0.01,-0.05,1.11,1.1,2.87,-1.28,886.17,21.57,
5352298,0.0,-0.05,1.18,1.22,1.71,-1.34,886.16,21.56,
5352348,-0.02,-0.05,1.22,0.85,0.12,-1.22,886.22,21.57,
5352386,0.03,-0.08,1.24,1.22,1.1,-1.22,886.17,21.55,
5352425,0.03,-0.07,1.19,0.61,0.18,-1.65,886.19,21.56,
5352463,0.0,-0.05,1.29,1.83,-0.79,-1.65,886.23,21.56,
5352501,0.0,-0.08,1.16,0.92,0.98,-1.65,886.21,21.56,
5352539,-0.0,-0.06,1.27,2.08,-0.61,-1.83,886.19,21.57,
5352578,-0.01,-0.09,1.18,1.22,0.67,-1.83,886.17,21.56,
5352616,-0.0,-0.06,1.24,2.14,-1.34,-2.08,886.22,21.56,
5352654,0.0,-0.07,1.13,1.53,0.79,-2.2,886.24,21.57,
5352692,-0.01,-0.07,1.12,1.89,0.0,-2.26,886.22,21.56,
5352768,0.0,-0.09,1.05,2.01,1.16,-2.38,886.19,21.54,
5352807,-0.03,-0.06,1.06,2.2,1.28,-2.56,886.23,21.56,
5352845,-0.02,-0.07,1.05,1.89,1.34,-2.44,886.23,21.55,
5352935,-0.02,-0.08,1.05,2.01,0.55,-2.26,886.21,21.51,
5352973,-0.01,-0.07,1.05,1.95,0.12,-2.44,886.23,21.53,
5353012,-0.03,-0.07,1.02,1.77,-0.06,-2.26,886.22,21.54,
5353050,-0.03,-0.07,1.03,1.95,-0.85,-2.5,886.23,21.55,
5353088,-0.03,-0.08,0.99,1.83,-0.49,-2.32,886.16,21.54,
5353126,-0.02,-0.07,0.98,1.95,-0.24,-2.5,886.2,21.54,
5353176,-0.02,-0.07,0.96,1.83,-0.12,-2.38,886.16,21.53,
5353215,-0.03,-0.07,0.98,1.71,0.0,-2.32,886.22,21.55,
5353253,-0.02,-0.07,0.98,1.83,0.18,-2.38,886.2,21.56,
5353291,-0.04,-0.07,0.99,1.77,0.0,-2.56,886.24,21.55,
5353329,-0.04,-0.07,1.01,1.89,0.37,-2.32,886.24,21.54,
5353368,-0.03,-0.07,1.0,1.77,0.49,-2.38,886.15,21.54,
5353406,-0.03,-0.07,1.01,1.83,0.67,-2.44,886.2,21.56,
5353444,-0.04,-0.07,0.99,1.53,1.46,-2.2,886.17,21.56,
5353482,-0.04,-0.07,1.03,1.71,2.08,-2.01,886.15,21.56,
5353521,-0.04,-0.07,1.0,1.53,2.87,-2.08,886.19,21.56,
5353571,-0.05,-0.06,1.04,1.83,2.93,-2.01,886.17,21.55,
5353609,-0.05,-0.08,1.0,1.65,4.03,-1.65,886.2,21.56,
5353647,-0.05,-0.07,1.02,1.95,3.36,-1.71,886.17,21.55,
5353685,-0.06,-0.07,0.99,1.83,3.78,-1.46,886.15,21.56,
5353724,-0.07,-0.07,0.99,1.83,3.05,-1.28,886.1,21.55,
5353762,-0.07,-0.07,1.0,1.71,3.78,-1.04,886.14,21.56,
5353800,-0.05,-0.07,0.98,1.77,3.23,-0.92,886.1,21.54,
5353838,-0.07,-0.07,0.95,1.65,2.62,-0.67,886.11,21.57,
5353877,-0.06,-0.07,0.94,1.89,2.81,-0.49,886.1,21.55,
5353927,-0.06,-0.07,0.94,2.2,2.01,-0.12,886.09,21.55,
5353965,-0.06,-0.07,0.9,2.32,0.85,0.12,886.04,21.55,
5354003,-0.07,-0.07,0.88,2.62,0.43,0.37,886.08,21.55,
5354041,-0.07,-0.08,0.81,2.2,0.43,0.55,886.07,21.58,
5354080,-0.05,-0.07,0.85,2.62,-0.37,0.92,886.04,21.55,
5354118,-0.08,-0.08,0.76,2.26,0.24,1.1,886.04,21.57,
5354156,-0.07,-0.07,0.83,2.75,0.06,1.22,886.05,21.56,
5354194,-0.06,-0.09,0.82,2.56,1.28,1.4,886.03,21.56,
5354233,-0.07,-0.06,0.89,2.26,0.61,1.95,886.07,21.57,
5354271,-0.07,-0.07,0.92,2.01,0.73,2.2,886.05,21.57,
5354321,-0.06,-0.06,1.05,1.77,0.55,2.38,886.09,21.55,
5354359,-0.05,-0.07,1.09,1.46,0.92,2.87,886.12,21.56,
5354398,-0.05,-0.06,1.13,1.77,1.46,2.99,886.09,21.56,
5354436,-0.05,-0.07,1.13,1.46,2.44,3.11,886.09,21.57,
5354474,-0.05,-0.06,1.12,1.71,2.38,3.17,886.1,21.58,
5354512,-0.04,-0.07,1.1,2.01,3.36,3.11,886.09,21.57,
5354551,-0.04,-0.07,1.02,2.26,3.91,3.3,886.16,21.57,
5354589,-0.03,-0.07,1.01,2.62,3.42,3.42,886.08,21.57,
5354627,-0.04,-0.07,0.98,2.93,4.15,3.6,886.14,21.57,
5354665,-0.05,-0.08,0.97,3.17,4.03,3.6,886.14,21.56,
5354716,-0.03,-0.07,0.98,3.05,4.21,3.66,886.17,21.55,
5354754,-0.05,-0.07,0.95,2.69,4.39,3.72,886.14,21.57,
5354792,-0.02,-0.07,0.97,2.75,3.91,3.78,886.14,21.57,
5354830,-0.03,-0.07,0.96,2.81,4.03,3.66,886.17,21.58,
5354869,-0.03,-0.07,0.95,2.99,3.78,3.97,886.15,21.58,
5354907,-0.01,-0.07,0.96,2.87,3.85,4.15,886.13,21.57,
5354945,-0.03,-0.08,0.98,2.99,3.66,4.09,886.18,21.59,
5354983,-0.01,-0.08,0.98,2.75,3.42,4.09,886.12,21.56,
5355022,-0.03,-0.08,0.96,2.62,2.93,4.15,886.1,21.58,
5355072,-0.03,-0.06,0.98,2.38,2.38,4.21,886.13,21.57,
5355110,-0.02,-0.08,0.97,2.01,2.69,4.21,886.08,21.56,
5355148,-0.02,-0.07,1.0,2.01,2.38,3.97,886.09,21.57,
5355187,-0.04,-0.07,1.01,1.77,2.69,4.03,886.11,21.58,
5355225,-0.03,-0.07,1.05,1.59,3.05,4.03,886.13,21.56,
5355263,-0.02,-0.07,1.05,1.53,3.11,4.03,886.14,21.57,
5355301,-0.03,-0.07,1.04,1.53,2.87,4.03,886.1,21.57,
5355340,-0.04,-0.08,0.98,1.59,3.54,4.09,886.11,21.56,
5355378,-0.03,-0.08,1.02,2.26,3.48,3.97,886.13,21.57,
5355416,-0.03,-0.08,0.91,1.83,4.39,3.97,886.12,21.56,
5355466,-0.02,-0.08,0.93,2.38,2.5,4.21,886.08,21.54,
5355505,-0.03,-0.08,0.9,2.01,3.05,4.39,886.13,21.56,
5355543,-0.05,-0.08,0.9,2.26,2.75,4.33,886.06,21.56,
5355581,-0.02,-0.08,0.9,1.65,1.53,4.58,886.12,21.57,
5355619,-0.03,-0.07,0.95,1.89,0.92,4.52,886.06,21.57,
5355658,-0.04,-0.08,0.9,1.16,2.38,4.76,886.1,21.58,
5355696,-0.03,-0.07,0.97,1.22,2.14,4.76,886.12,21.57,
5355734,-0.01,-0.07,0.95,0.85,2.69,4.94,886.09,21.57,
5355773,-0.04,-0.07,0.95,0.79,2.62,4.7,886.06,21.58,
5355811,-0.03,-0.08,0.93,0.55,3.48,4.76,886.11,21.58,
5355887,-0.0,-0.07,0.95,0.67,2.87,5.13,886.16,21.54,
5355925,-0.03,-0.07,0.91,0.85,2.69,5.0,886.06,21.54,
5355963,-0.01,-0.08,0.91,1.28,2.5,5.13,886.16,21.56,
5356054,-0.01,-0.07,0.84,1.83,1.34,5.19,886.14,21.53,
5356092,-0.0,-0.08,0.81,1.22,1.1,5.0,886.11,21.54,
5356130,-0.01,-0.08,0.87,1.16,0.79,4.94,886.08,21.55,
5356168,-0.0,-0.08,0.91,0.85,0.43,4.94,886.09,21.54,
5356207,-0.01,-0.07,0.94,0.85,0.49,4.82,886.07,21.56,
5356245,0.01,-0.07,0.99,0.73,0.43,4.76,886.1,21.56,
5356295,0.0,-0.08,1.01,0.85,0.61,4.82,886.11,21.53,
5356333,0.0,-0.08,0.97,1.1,1.1,4.52,886.18,21.55,
5356371,-0.0,-0.07,0.99,1.34,1.16,4.52,886.14,21.55,
5356410,0.01,-0.07,0.99,1.53,0.92,4.33,886.09,21.55,
5356448,0.01,-0.08,1.01,1.46,1.16,4.21,886.12,21.56,
5356486,0.01,-0.08,1.03,1.4,1.59,3.97,886.16,21.56,
5356524,0.01,-0.08,1.05,0.92,1.46,4.09,886.1,21.56,
5356563,0.01,-0.07,1.09,0.67,0.31,3.91,886.11,21.57,
5356601,0.02,-0.08,1.08,0.31,0.55,4.09,886.06,21.56,
5356639,0.02,-0.07,1.11,0.37,0.49,3.72,886.11,21.57,
5356689,0.02,-0.08,1.05,0.55,1.1,3.42,886.15,21.54,
5356727,0.02,-0.07,1.05,1.04,-0.06,3.17,886.1,21.56,
5356766,0.02,-0.08,1.02,1.16,0.55,3.05,886.15,21.55,
5356804,0.04,-0.08,0.99,1.16,0.55,2.87,886.09,21.54,
5356842,0.02,-0.07,1.0,1.28,0.31,2.56,886.1,21.56,
5356880,0.0,-0.08,0.93,0.85,0.55,2.32,886.06,21.56,
5356919,0.03,-0.07,0.94,0.85,0.92,1.83,886.14,21.56,
5356957,0.03,-0.07,0.91,0.73,2.01,1.65,886.05,21.56,
5356995,0.01,-0.08,0.86,0.98,2.14,1.77,886.1,21.57,
5357033,0.02,-0.08,0.87,1.1,2.69,1.34,886.13,21.56,
5357083,0.02,-0.08,0.87,0.79,3.91,0.85,886.07,21.55,
5357122,0.03,-0.07,0.88,0.31,4.39,0.61,886.11,21.57,
5357160,0.01,-0.07,0.91,0.12,4.94,0.37,886.16,21.56,
5357198,-0.01,-0.08,0.91,0.06,5.49,0.37,886.13,21.58,
5357236,0.0,-0.07,0.93,-0.06,5.25,0.12,886.19,21.58,
5357275,0.0,-0.07,0.97,-0.12,6.23,0.12,886.15,21.56,
5357313,0.0,-0.07,0.98,-0.12,6.23,0.06,886.13,21.57,
5357351,0.01,-0.07,1.05,0.12,6.23,0.0,886.2,21.57,
5357389,-0.01,-0.06,1.08,0.0,6.16,0.06,886.17,21.58,
5357428,0.01,-0.05,1.2,0.24,4.82,-0.12,886.17,21.57,
5357478,0.0,-0.07,1.17,0.31,5.62,-0.06,886.19,21.56,
5357516,-0.02,-0.04,1.23,1.16,3.6,-0.18,886.18,21.57,
5357554,-0.01,-0.05,1.24,1.77,4.21,0.06,886.18,21.58,
5357593,0.0,-0.05,1.19,2.08,3.17,-0.49,886.22,21.56,
5357631,-0.01,-0.04,1.21,2.62,1.89,-0.12,886.19,21.57,
5357669,-0.02,-0.07,1.15,3.11,1.89,-0.12,886.21,21.57,
5357707,-0.0,-0.07,1.13,3.42,1.34,-0.12,886.22,21.57,
5357746,-0.04,-0.06,1.03,3.36,1.04,-0.06,886.22,21.57,
5357784,-0.06,-0.06,0.95,3.78,1.89,-0.06,886.22,21.58,
5357834,-0.0,-0.09,0.85,3.78,3.3,-0.18,886.16,21.57,
5357872,-0.02,-0.07,0.79,3.91,1.46,-0.18,886.19,21.58,
5357911,-0.04,-0.1,0.71,4.7,2.38,-0.06,886.14,21.57,
5357949,-0.01,-0.07,0.68,3.91,3.05,0.12,886.17,21.58,
5357987,-0.02,-0.08,0.71,4.52,2.01,-0.06,886.13,21.57,
5358025,-0.01,-0.1,0.65,4.21,2.2,0.06,886.18,21.58,
5358064,-0.01,-0.06,0.58,3.17,2.38,0.06,886.09,21.56,
5358102,-0.0,-0.06,0.72,3.85,2.32,-0.06,886.2,21.57,
5358140,-0.01,-0.09,0.67,3.3,2.69,0.12,886.13,21.58,
5358178,-0.03,-0.07,0.71,3.36,3.11,0.0,886.21,21.58,
5358228,-0.02,-0.09,0.73,2.81,3.17,-0.06,886.17,21.56,
5358267,-0.01,-0.07,0.77,2.81,1.95,0.0,886.16,21.57,
5358305,-0.01,-0.07,0.78,2.32,1.46,-0.06,886.2,21.57,
5358343,-0.01,-0.08,0.82,2.62,1.77,-0.06,886.16,21.57,
5358381,-0.01,-0.08,0.83,2.2,1.65,0.06,886.22,21.57,
5358420,-0.02,-0.08,0.88,2.38,0.79,0.18,886.23,21.57,
5358458,-0.02,-0.08,0.84,1.83,1.46,0.18,886.16,21.57,
5358496,-0.03,-0.06,0.89,2.14,0.43,0.06,886.23,21.56,
5358535,-0.02,-0.09,0.85,2.2,0.79,0.18,886.2,21.57,
5358585,-0.02,-0.08,0.91,2.69,0.0,0.06,886.2,21.56,
5358623,-0.0,-0.08,0.87,2.26,0.67,0.18,886.24,21.56,
5358661,-0.0,-0.07,0.9,2.38,0.92,0.0,886.25,21.56,
5358699,-0.05,-0.08,0.9,2.81,1.59,0.12,886.21,21.56,
5358738,-0.04,-0.08,0.9,2.81,1.59,0.18,886.24,21.57,
5358776,-0.04,-0.07,0.89,2.62,2.62,0.0,886.26,21.56,
5358814,-0.03,-0.06,0.89,2.08,3.42,0.31,886.26,21.57,
5358852,-0.04,-0.08,0.89,2.44,4.27,0.37,886.27,21.57,
5358891,-0.02,-0.07,0.91,2.32,3.91,0.31,886.31,21.57,
5358929,-0.04,-0.08,0.9,2.26,4.52,0.49,886.29,21.57,
5359006,-0.05,-0.08,0.9,2.32,5.74,0.67,886.34,21.55,
5359045,-0.04,-0.08,0.92,2.38,6.04,0.73,886.3,21.54,
5359083,-0.02,-0.07,0.94,2.14,5.86,0.85,886.37,21.57,
5359173,-0.04,-0.07,0.96,2.2,5.62,1.16,886.3,21.53,
5359211,-0.03,-0.08,0.98,2.32,5.62,1.28,886.33,21.54,
5359250,-0.02,-0.07,1.05,2.56,5.13,1.22,886.32,21.53,
5359288,-0.03,-0.07,1.01,2.2,5.55,1.53,886.42,21.55,
5359326,-0.05,-0.07,1.03,2.56,5.37,1.4,886.41,21.55,
5359364,-0.04,-0.08,0.98,2.01,6.29,1.77,886.37,21.54,
5359403,-0.02,-0.06,1.04,2.38,5.31,1.71,886.37,21.55,
5359453,-0.04,-0.08,1.02,2.44,5.19,1.95,886.35,21.54,
5359491,-0.02,-0.07,1.04,2.87,4.7,1.95,886.43,21.56,
5359529,-0.03,-0.07,1.06,2.69,5.13,2.2,886.41,21.55,
5359568,-0.03,-0.08,1.03,3.05,4.27,2.44,886.42,21.55,
5359606,-0.02,-0.08,1.02,3.11,4.39,2.32,886.46,21.55,
5359644,-0.02,-0.07,0.98,2.93,4.76,2.32,886.43,21.56,
5359683,-0.02,-0.07,1.0,2.99,4.46,2.56,886.48,21.55,
5359721,-0.03,-0.08,0.95,2.93,4.58,2.62,886.47,21.55,
5359759,-0.01,-0.06,0.99,3.17,3.42,2.5,886.49,21.57,
5359809,-0.01,-0.08,0.98,2.69,3.17,2.56,886.53,21.56,
5359848,-0.02,-0.08,0.98,2.75,2.62,2.81,886.52,21.55,
5359886,-0.02,-0.07,0.96,2.5,3.11,2.56,886.55,21.56,
5359924,-0.02,-0.07,1.0,2.62,2.5,2.44,886.53,21.57,
5359963,-0.0,-0.08,0.96,2.5,2.2,2.5,886.55,21.57,
5360001,-0.01,-0.07,0.94,2.56,1.89,2.56,886.53,21.57,
5360039,-0.03,-0.08,0.92,3.05,2.2,2.56,886.57,21.57,
5360078,-0.02,-0.08,0.89,2.56,1.65,2.56,886.5,21.57,
5360116,-0.03,-0.07,0.94,2.87,1.04,2.5,886.54,21.57,
5360154,-0.02,-0.08,0.94,2.32,1.83,2.56,886.55,21.56,
5360204,-0.0,-0.07,1.0,2.32,1.71,2.62,886.54,21.56,
5360242,-0.0,-0.07,0.97,2.26,2.38,2.32,886.54,21.56,
5360281,-0.01,-0.07,0.99,2.2,1.28,2.44,886.61,21.56,
5360319,-0.02,-0.08,0.99,2.14,2.2,2.5,886.54,21.57,
5360357,-0.02,-0.07,0.93,2.14,1.4,2.5,886.64,21.57,
5360396,-0.02,-0.09,0.94,2.56,1.71,2.32,886.65,21.57,
5360434,-0.01,-0.08,0.87,2.08,2.56,2.14,886.56,21.56,
5360472,-0.03,-0.07,0.93,2.75,2.5,2.08,886.59,21.56,
5360510,-0.02,-0.08,0.89,2.14,3.97,2.08,886.61,21.56,
5360549,-0.03,-0.08,0.91,2.08,3.54,2.14,886.64,21.56,
5360599,-0.02,-0.08,0.91,1.71,3.97,2.01,886.68,21.56,
5360637,-0.02,-0.08,0.93,1.53,3.91,1.65,886.69,21.57,
5360675,-0.01,-0.08,0.96,1.65,4.09,1.95,886.65,21.56,
5360714,-0.01,-0.08,0.96,1.89,4.21,1.95,886.72,21.58,
5360752,-0.02,-0.09,0.93,1.65,4.09,1.83,886.71,21.57,
5360790,-0.03,-0.07,0.95,1.71,3.91,2.01,886.7,21.57,
5360828,-0.02,-0.07,0.96,1.59,4.39,1.89,886.68,21.56,
5360867,-0.01,-0.08,1.01,1.28,3.97,1.77,886.68,21.56,
5360905,-0.02,-0.08,1.02,0.98,4.46,2.08,886.71,21.56,
5360955,-0.02,-0.08,1.06,1.22,3.97,1.95,886.77,21.55,
5360993,-0.01,-0.08,1.08,1.28,4.33,1.89,886.79,21.55,
5361031,-0.01,-0.08,1.08,1.28,3.97,1.83,886.76,21.56,
5361070,-0.02,-0.08,1.08,1.04,3.97,1.83,886.75,21.56,
5361108,-0.02,-0.08,1.05,0.98,3.66,1.83,886.79,21.55,
5361146,-0.01,-0.08,1.09,1.04,3.66,1.71,886.74,21.55,
5361185,-0.01,-0.07,1.07,1.04,3.42,1.71,886.78,21.56,
5361223,-0.01,-0.08,1.09,1.04,3.11,1.71,886.81,21.55,
5361261,-0.01,-0.08,1.08,0.92,3.17,1.53,886.81,21.56,
5361300,-0.02,-0.07,1.09,1.34,2.56,1.65,886.81,21.55,
5361350,-0.02,-0.08,1.07,1.1,2.81,1.77,886.79,21.54,
5361388,-0.01,-0.07,1.06,1.34,2.14,1.65,886.85,21.56,
5361426,-0.02,-0.07,1.06,1.28,2.32,1.71,886.86,21.54,
5361464,-0.01,-0.09,1.03,1.34,2.56,1.53,886.85,21.55,
5361503,-0.01,-0.07,1.07,1.71,2.26,1.77,886.85,21.56,
5361541,-0.01,-0.08,1.04,1.65,2.56,1.46,886.85,21.56,
5361579,-0.01,-0.08,1.04,1.89,2.5,1.53,886.88,21.55,
5361618,-0.0,-0.08,1.02,1.89,2.75,1.34,886.9,21.56,
5361656,-0.0,-0.08,1.01,2.26,2.56,1.28,886.91,21.56,
5361694,0.0,-0.08,0.97,2.38,3.42,1.22,886.83,21.56,
5361744,-0.01,-0.08,0.97,2.75,3.05,1.04,886.91,21.54,
5361782,-0.0,-0.09,0.9,2.5,3.72,1.04,886.91,21.55,
5361821,-0.0,-0.08,0.92,2.81,3.05,0.92,886.88,21.54,
5361859,-0.0,-0.08,0.92,2.62,3.42,0.79,886.97,21.55,
5361897,-0.01,-0.09,0.92,2.38,3.11,0.55,886.87,21.55,
5361936,-0.0,-0.08,0.96,2.56,3.48,0.73,886.96,21.56,
5361974,0.01,-0.08,0.96,2.32,2.75,0.67,886.9,21.55,
5362012,-0.0,-0.08,0.98,2.62,1.65,0.67,886.97,21.56,
5362050,-0.01,-0.09,0.91,2.38,1.71,0.67,886.97,21.56,
5362126,-0.0,-0.08,0.86,2.81,1.1,0.43,886.94,21.52,
5362165,0.0,-0.08,0.85,3.11,0.73,0.37,887.02,21.54,
5362203,-0.02,-0.08,0.84,3.05,1.16,0.37,887.01,21.54,
5362293,-0.01,-0.09,0.86,2.5,1.83,0.31,887.02,21.5,
5362331,-0.0,-0.08,0.88,2.14,1.65,0.06,886.97,21.52,
5362370,-0.0,-0.09,0.9,1.83,2.5,0.12,886.98,21.52,
5362408,-0.0,-0.09,0.9,1.83,1.71,0.12,887.0,21.53,
5362446,-0.02,-0.08,0.88,1.22,1.89,0.06,887.06,21.53,
5362485,-0.02,-0.08,0.91,1.53,1.65,-0.18,887.05,21.53,
5362523,-0.02,-0.09,0.88,1.22,2.2,-0.12,887.06,21.52,
5362573,-0.03,-0.08,0.9,1.22,2.2,-0.12,887.07,21.52,
5362611,-0.02,-0.08,0.91,1.1,2.38,-0.18,887.05,21.53,
5362649,-0.03,-0.08,0.9,0.92,2.26,-0.18,887.13,21.54,
5362688,-0.03,-0.09,0.9,0.98,2.56,-0.12,887.07,21.53,
5362726,-0.03,-0.08,0.92,0.79,2.81,-0.12,887.02,21.53,
5362764,-0.02,-0.08,0.95,0.85,3.17,-0.12,887.04,21.53,
5362803,-0.02,-0.07,1.0,0.43,2.99,-0.18,887.12,21.54,
5362841,-0.03,-0.09,1.05,0.49,3.78,-0.06,887.12,21.54,
5362879,-0.04,-0.08,1.1,0.55,3.6,0.18,887.14,21.54,
5362929,-0.04,-0.07,1.12,0.61,3.72,0.18,887.12,21.53,
5362968,-0.03,-0.08,1.14,0.67,3.48,0.24,887.19,21.54,
5363006,-0.03,-0.08,1.15,0.79,4.15,0.06,887.21,21.54,
5363044,-0.02,-0.09,1.12,0.92,4.15,0.18,887.19,21.54,
5363082,-0.02,-0.07,1.13,0.85,3.6,0.24,887.23,21.54,
5363121,-0.02,-0.07,1.13,1.22,2.69,0.31,887.22,21.55,
5363159,-0.03,-0.08,1.06,1.28,2.38,0.31,887.2,21.55,
5363197,-0.02,-0.08,1.07,1.53,1.77,0.43,887.18,21.55,
5363235,-0.02,-0.09,1.03,2.01,1.34,0.37,887.25,21.56,
5363274,-0.02,-0.08,0.99,2.01,0.67,0.37,887.25,21.56,
5363324,-0.02,-0.09,0.98,2.14,0.73,0.37,887.18,21.54,
5363362,-0.03,-0.09,0.93,1.83,0.85,0.31,887.21,21.54,
5363400,-0.04,-0.09,0.95,1.59,1.4,0.18,887.24,21.55,
5363438,-0.05,-0.08,0.93,1.46,1.34,0.37,887.21,21.54,
5363477,-0.04,-0.09,0.97,1.22,1.22,0.31,887.24,21.53,
5363515,-0.04,-0.09,0.98,1.28,1.46,0.31,887.26,21.53,
5363553,-0.04,-0.09,0.95,1.16,1.46,0.61,887.27,21.53,
5363591,-0.04,-0.08,0.99,1.16,1.4,0.55,887.22,21.53,
5363630,-0.04,-0.09,0.99,1.16,2.26,0.55,887.25,21.53,
5363668,-0.04,-0.07,1.04,0.85,1.89,0.67,887.31,21.54,
5363718,-0.06,-0.08,1.01,0.79,3.6,0.67,887.29,21.53,
5363756,-0.04,-0.08,1.06,0.98,4.15,0.85,887.31,21.54,
5363795,-0.04,-0.09,1.04,0.67,5.13,0.79,887.28,21.54,
5363833,-0.06,-0.07,1.05,0.85,5.68,0.92,887.38,21.54,
5363871,-0.04,-0.07,1.06,0.79,7.69,1.04,887.34,21.54,
5363909,-0.03,-0.08,1.08,1.16,8.0,1.04,887.34,21.54,
5363948,-0.04,-0.09,1.12,1.1,8.67,1.16,887.38,21.56,
5363986,-0.04,-0.08,1.15,0.98,9.09,1.22,887.4,21.54,
5364024,-0.02,-0.09,1.18,1.1,10.44,1.4,887.36,21.54,
5364074,-0.02,-0.08,1.17,1.16,9.7,1.16,887.44,21.53,
5364113,-0.04,-0.08,1.17,1.34,10.38,1.46,887.46,21.55,
5364151,-0.01,-0.09,1.15,1.46,10.62,1.4,887.45,21.53,
5364189,-0.01,-0.07,1.19,1.65,9.03,1.59,887.43,21.54,
5364227,0.0,-0.07,1.21,1.77,6.96,1.53,887.46,21.55,
5364266,0.01,-0.08,1.23,1.95,5.43,1.4,887.48,21.56,
5364304,-0.01,-0.09,1.12,1.16,4.76,1.53,887.48,21.56,
5364342,0.0,-0.08,1.19,2.08,2.62,1.34,887.49,21.56,
5364381,-0.0,-0.09,1.11,1.83,3.36,1.34,887.54,21.56,
5364419,-0.01,-0.07,1.13,2.75,1.04,1.4,887.49,21.55,
5364469,-0.01,-0.1,1.04,2.56,1.71,1.04,887.48,21.54,
5364507,-0.01,-0.09,1.09,2.69,0.85,0.85,887.56,21.56,
5364545,0.0,-0.09,1.09,2.44,1.34,0.92,887.42,21.55,
5364584,0.01,-0.09,1.11,2.38,1.04,0.49,887.54,21.56,
5364622,0.0,-0.1,1.11,2.08,2.14,0.49,887.51,21.55,
5364660,0.0,-0.08,1.12,2.01,0.98,0.31,887.43,21.55,
5364698,-0.01,-0.09,1.13,2.2,0.37,0.37,887.52,21.55,
5364737,0.0,-0.09,1.13,1.83,-0.18,0.06,887.52,21.56,
5364775,-0.02,-0.08,1.16,2.08,-0.37,0.06,887.54,21.56,
5364813,-0.01,-0.08,1.1,1.53,0.61,-0.18,887.56,21.56,
5364863,-0.0,-0.1,1.13,1.77,1.71,-0.55,887.47,21.54,
5364901,-0.01,-0.08,1.06,0.92,2.38,-0.55,887.51,21.55,
5364940,-0.01,-0.08,1.18,2.01,1.95,-0.73,887.52,21.55,
5364978,0.0,-0.09,1.0,0.49,2.87,-0.98,887.5,21.56,
5365016,-0.01,-0.07,1.19,2.08,0.24,-1.1,887.5,21.56,
5365054,-0.01,-0.12,1.12,1.1,3.48,-1.16,887.53,21.54,
5365093,0.0,-0.07,1.12,0.98,1.04,-1.46,887.53,21.56,
5365131,-0.02,-0.09,1.25,1.89,1.28,-1.34,887.52,21.55,
5365169,-0.01,-0.11,1.11,0.55,2.08,-1.4,887.49,21.54,
5365245,-0.01,-0.1,1.15,0.98,2.32,-1.65,887.54,21.52,
5365284,-0.01,-0.08,1.18,1.65,-0.49,-1.77,887.55,21.52,
5365322,-0.0,-0.09,1.15,1.71,0.92,-2.08,887.52,21.54,
5365412,-0.03,-0.09,1.09,1.46,1.16,-2.08,887.48,21.51,
5365450,-0.03,-0.08,1.11,1.95,0.85,-2.32,887.51,21.52,
5365489,-0.03,-0.09,1.08,1.46,2.32,-2.38,887.45,21.53,
5365527,-0.04,-0.09,1.03,1.28,1.59,-2.32,887.44,21.52,
5365565,-0.04,-0.08,1.06,1.4,1.89,-2.44,887.5,21.53,
5365604,-0.05,-0.09,1.02,1.53,2.56,-2.38,887.39,21.53,
5365642,-0.05,-0.09,1.0,1.34,2.14,-2.32,887.42,21.53,
5365692,-0.06,-0.1,0.98,1.53,2.75,-2.26,887.44,21.53,
5365730,-0.05,-0.08,1.01,1.77,1.4,-2.08,887.42,21.52,
5365768,-0.05,-0.09,1.03,2.14,1.65,-1.89,887.43,21.53,
5365807,-0.05,-0.09,0.94,2.14,1.53,-1.89,887.37,21.53,
5365845,-0.06,-0.08,0.95,2.38,0.43,-1.71,887.36,21.52,
5365883,-0.09,-0.1,0.87,2.08,0.67,-1.59,887.37,21.53,
5365922,-0.07,-0.09,0.9,1.89,0.37,-1.46,887.4,21.53,
5365960,-0.05,-0.1,0.91,1.34,1.1,-1.22,887.39,21.53,
5365998,-0.07,-0.09,0.91,1.04,0.49,-1.16,887.35,21.52,
5366048,-0.09,-0.09,0.91,1.22,0.55,-0.85,887.38,21.53,
5366087,-0.08,-0.09,0.9,0.98,0.92,-0.79,887.35,21.53,
5366125,-0.07,-0.09,0.95,1.4,0.92,-0.55,887.31,21.53,
5366163,-0.08,-0.09,0.93,1.04,1.34,-0.43,887.32,21.53,
5366202,-0.08,-0.09,0.95,1.4,1.59,-0.06,887.37,21.53,
5366240,-0.08,-0.08,0.93,1.1,2.56,0.06,887.33,21.53,
5366278,-0.09,-0.08,0.93,1.53,1.83,0.31,887.33,21.53,
5366316,-0.08,-0.09,0.89,1.16,2.87,0.37,887.34,21.53,
5366355,-0.08,-0.08,0.91,1.28,2.14,0.67,887.33,21.54,
5366393,-0.08,-0.08,0.87,1.34,2.14,0.92,887.38,21.54,
5366443,-0.1,-0.07,0.89,1.71,0.85,1.1,887.32,21.52,
5366481,-0.09,-0.09,0.89,1.34,1.04,1.59,887.36,21.52,
5366520,-0.07,-0.09,0.96,1.59,0.55,1.77,887.35,21.53,
5366558,-0.07,-0.09,0.94,1.16,0.43,1.95,887.38,21.53,
5366596,-0.09,-0.08,0.95,1.1,0.12,2.2,887.41,21.54,
5366635,-0.08,-0.09,0.96,1.04,0.55,2.5,887.38,21.54,
5366673,-0.08,-0.09,0.95,0.49,0.67,2.75,887.33,21.53,
5366711,-0.08,-0.08,0.96,0.92,0.79,2.93,887.4,21.54,
5366750,-0.07,-0.08,0.92,0.61,1.16,3.17,887.43,21.54,
5366788,-0.07,-0.08,0.97,0.92,0.43,3.3,887.38,21.54,
5366838,-0.07,-0.09,0.98,1.04,0.31,3.6,887.42,21.55,
5366876,-0.06,-0.08,0.99,0.85,-0.67,4.15,887.41,21.53,
5366914,-0.08,-0.06,1.04,0.92,0.12,4.21,887.45,21.54,
5366953,-0.06,-0.08,1.04,0.98,0.37,4.46,887.48,21.54,
5366991,-0.07,-0.08,1.04,1.1,-0.49,4.58,887.47,21.53,
5367029,-0.04,-0.08,1.14,1.83,-0.37,4.58,887.52,21.55,
5367067,-0.03,-0.09,1.11,1.59,0.92,4.52,887.48,21.55,
5367106,-0.03,-0.07,1.19,1.95,0.31,4.7,887.48,21.54,
5367144,-0.03,-0.09,1.13,1.28,1.89,4.7,887.47,21.54,
5367194,-0.03,-0.08,1.17,1.22,1.65,4.52,887.45,21.53,
5367232,-0.03,-0.1,1.1,0.92,3.23,4.52,887.53,21.55,
5367270,-0.02,-0.09,1.1,0.98,1.77,4.46,887.54,21.55,
5367309,-0.03,-0.08,1.11,1.28,2.08,4.39,887.5,21.54,
5367347,-0.02,-0.09,1.04,0.85,2.56,4.52,887.53,21.54,
5367385,-0.02,-0.09,1.1,1.4,2.14,4.27,887.49,21.54,
5367423,-0.02,-0.09,1.05,0.92,2.75,4.21,887.5,21.55,
5367462,-0.01,-0.08,1.07,1.04,2.26,4.21,887.51,21.53,
5367500,-0.01,-0.08,1.06,0.73,2.75,4.21,887.47,21.54,
5367538,-0.01,-0.09,1.03,0.55,2.2,4.15,887.47,21.55,
5367588,-0.02,-0.09,1.04,0.12,1.95,3.91,887.49,21.54,
5367626,-0.01,-0.09,1.06,0.24,1.77,4.21,887.54,21.55,
5367665,-0.01,-0.09,1.09,0.06,1.46,3.91,887.53,21.53,
5367703,-0.03,-0.09,1.09,0.0,1.53,3.97,887.53,21.54,
5367741,-0.0,-0.09,1.1,0.18,1.77,3.91,887.54,21.53,
5367779,-0.01,-0.09,1.08,-0.06,2.01,3.97,887.54,21.54,
5367818,-0.01,-0.08,1.1,0.06,1.46,3.66,887.52,21.53,
5367856,-0.0,-0.09,1.09,-0.06,1.83,3.78,887.54,21.54,
5367894,-0.01,-0.09,1.12,0.0,1.28,3.42,887.45,21.53,
5367944,0.0,-0.09,1.12,-0.24,1.53,3.54,887.52,21.53,
5367982,-0.0,-0.08,1.14,-0.06,0.98,3.17,887.52,21.53,
5368021,-0.01,-0.09,1.14,-0.12,0.98,3.23,887.5,21.53,
5368059,-0.0,-0.09,1.12,-0.18,0.49,2.93,887.52,21.55,
5368097,0.01,-0.09,1.1,-0.43,1.16,2.81,887.48,21.53,
5368135,0.0,-0.09,1.08,-0.24,1.22,2.69,887.52,21.53,
5368174,-0.01,-0.08,1.1,0.12,1.16,2.69,887.46,21.53,
5368212,-0.01,-0.08,1.06,0.0,1.65,2.44,887.48,21.54,
5368250,0.0,-0.08,1.12,0.31,1.95,2.26,887.47,21.54,
5368288,-0.01,-0.09,1.07,0.06,2.62,2.2,887.45,21.54,
5368364,-0.01,-0.09,1.1,0.43,3.54,2.01,887.5,21.52,
5368403,-0.0,-0.09,1.09,0.67,3.11,1.95,887.48,21.53,
5368441,-0.01,-0.09,1.11,0.85,3.17,1.95,887.46,21.52,
5368531,-0.01,-0.09,1.07,1.22,4.09,1.71,887.4,21.49,
5368569,0.0,-0.09,1.06,1.28,3.91,1.46,887.46,21.51,
5368608,-0.02,-0.09,1.01,1.34,4.7,1.4,887.43,21.51,
5368646,-0.02,-0.09,1.01,1.59,4.88,1.59,887.41,21.5,
5368684,-0.01,-0.09,1.02,1.53,5.49,1.34,887.43,21.52,
5368723,-0.02,-0.08,1.0,1.65,5.25,1.22,887.4,21.52,
5368761,-0.03,-0.09,0.94,1.65,5.86,1.34,887.43,21.52,
5368811,-0.01,-0.09,1.0,2.01,6.23,1.04,887.37,21.51,
5368849,-0.01,-0.09,0.96,2.08,5.8,1.16,887.34,21.51,
5368887,-0.03,-0.08,1.0,2.38,5.13,1.16,887.37,21.51,
5368926,-0.01,-0.1,0.98,2.2,5.98,1.16,887.36,21.52,
5368964,-0.02,-0.08,1.04,2.56,5.19,0.92,887.35,21.51,
5369002,-0.02,-0.09,1.06,2.56,5.74,1.22,887.38,21.51,
5369041,-0.0,-0.09,1.02,2.75,5.07,1.16,887.37,21.52,
5369079,-0.03,-0.09,1.01,3.05,4.58,0.98,887.33,21.51,
5369117,-0.02,-0.1,0.97,2.93,5.31,1.22,887.36,21.53,
5369167,-0.0,-0.08,0.97,3.11,4.39,0.98,887.32,21.51,
5369205,-0.02,-0.08,0.91,3.05,4.33,1.22,887.29,21.52,
5369244,-0.01,-0.09,0.88,2.87,4.21,0.92,887.35,21.52,
5369282,0.0,-0.08,0.88,2.56,3.85,0.98,887.32,21.51,
5369320,-0.01,-0.09,0.88,2.2,3.66,0.92,887.3,21.51,
5369358,-0.02,-0.09,0.88,2.26,3.23,0.98,887.28,21.52,
5369397,-0.03,-0.09,0.85,2.14,3.54,0.92,887.32,21.53,
5369435,-0.01,-0.09,0.87,2.32,3.23,0.98,887.33,21.53,
5369473,-0.01,-0.09,0.86,2.26,3.85,0.73,887.27,21.52,
5369511,-0.01,-0.08,0.9,2.5,3.42,0.61,887.29,21.52,
5369561,-0.02,-0.09,0.87,2.38,4.33,0.73,887.28,21.5,
5369600,-0.02,-0.08,0.93,2.56,3.54,0.61,887.29,21.52,
5369638,-0.02,-0.1,0.92,2.69,4.52,0.55,887.3,21.53,
5369676,-0.02,-0.08,0.95,2.44,3.91,0.43,887.27,21.51,
5369714,-0.02,-0.08,0.97,2.32,4.58,0.31,887.31,21.52,
5369753,-0.01,-0.08,0.98,2.38,4.33,0.37,887.27,21.53,
5369791,-0.01,-0.07,1.07,2.56,4.03,0.37,887.25,21.52,
5369829,-0.02,-0.08,1.13,2.5,3.66,0.37,887.25,21.52,
5369868,-0.02,-0.08,1.13,2.62,3.85,0.43,887.32,21.53,
5369906,-0.03,-0.08,1.1,2.75,3.66,0.31,887.3,21.51,
5369956,-0.02,-0.1,0.89,2.44,3.6,0.43,887.24,21.51,
5369994,-0.03,-0.07,0.84,3.17,2.5,0.18,887.25,21.52,
5370032,-0.04,-0.09,0.65,2.81,4.52,0.12,887.23,21.53,
5370071,-0.02,-0.06,0.77,3.72,1.16,0.06,887.16,21.52,
5370109,-0.02,-0.09,0.75,4.21,2.08,0.31,887.2,21.53,
5370147,-0.04,-0.09,0.78,3.48,1.83,0.18,887.17,21.53,
5370186,-0.06,-0.09,0.94,4.27,1.04,0.24,887.15,21.54,
5370224,-0.04,-0.11,0.89,2.87,2.87,0.37,887.11,21.52,
5370262,-0.05,-0.08,0.95,3.23,1.53,0.31,887.18,21.53,
5370312,-0.04,-0.09,0.85,2.81,2.56,0.55,887.16,21.52,
5370350,-0.04,-0.09,0.85,3.05,2.44,0.61,887.18,21.54,
5370389,-0.04,-0.08,0.79,2.26,2.75,0.73,887.16,21.53,
5370427,-0.02,-0.08,0.86,2.44,1.4,0.85,887.17,21.53,
5370465,-0.01,-0.1,0.83,2.01,1.1,0.67,887.18,21.53,
5370503,-0.02,-0.08,0.82,2.01,0.49,0.85,887.17,21.54,
5370541,-0.01,-0.09,0.82,2.01,0.67,0.79,887.27,21.54,
5370580,-0.01,-0.09,0.79,1.89,-0.49,0.85,887.14,21.53,
5370618,-0.02,-0.08,0.76,1.83,0.31,0.55,887.17,21.54,
5370656,-0.02,-0.08,0.8,0.98,1.1,0.67,887.15,21.54,
5370706,-0.02,-0.1,0.82,0.92,2.81,0.61,887.16,21.53,
5370745,-0.03,-0.07,0.94,0.73,1.71,0.49,887.11,21.52,
5370783,-0.03,-0.09,1.01,1.1,3.78,0.43,887.11,21.53,
5370821,-0.0,-0.09,1.04,0.37,4.52,0.31,887.13,21.53,
5370859,-0.03,-0.08,1.05,0.92,4.15,0.24,887.21,21.53,
5370898,-0.04,-0.08,1.04,0.79,5.13,0.31,887.18,21.54,
5370936,-0.04,-0.08,1.09,1.53,4.76,0.31,887.2,21.53,
5370974,-0.02,-0.09,1.07,1.28,4.76,0.24,887.17,21.53,
5371013,-0.04,-0.07,1.07,1.59,4.33,0.49,887.19,21.53,
5371051,-0.02,-0.09,1.06,1.46,5.43,0.43,887.14,21.54,
5371101,-0.03,-0.08,1.07,1.83,4.27,0.37,887.22,21.52,
5371139,-0.04,-0.08,1.05,1.71,4.82,0.49,887.19,21.53,
5371177,-0.03,-0.08,1.08,2.01,4.15,0.55,887.19,21.53,
5371216,-0.04,-0.09,1.03,1.89,4.33,0.55,887.18,21.53,
5371254,-0.02,-0.08,1.02,1.77,3.6,0.55,887.15,21.53,
5371292,-0.03,-0.09,1.0,1.95,3.91,0.55,887.2,21.53,
5371330,-0.02,-0.08,0.97,2.2,3.54,0.61,887.17,21.53,
5371369,-0.03,-0.08,0.97,2.26,3.3,0.67,887.19,21.53,
5371407,-0.03,-0.09,0.96,2.08,3.97,0.61,887.19,21.54,
5371483,-0.04,-0.09,1.01,2.32,4.15,0.49,887.15,21.5,
5371522,-0.04,-0.08,1.01,2.81,3.6,0.43,887.13,21.53,
5371560,-0.04,-0.08,1.03,2.56,3.05,0.49,887.09,21.52,
5371650,-0.03,-0.07,1.01,2.75,1.95,0.79,887.18,21.5,
5371688,-0.01,-0.09,0.98,2.81,1.53,0.92,887.09,21.5,
5371726,-0.05,-0.08,0.94,2.69,0.73,0.98,887.14,21.5,
5371765,-0.03,-0.09,0.96,2.69,-0.18,1.04,887.13,21.5,
5371803,-0.02,-0.08,0.94,2.32,-0.12,1.1,887.14,21.5,
5371841,-0.02,-0.08,0.92,2.14,-0.49,0.92,887.14,21.51,
5371879,-0.04,-0.08,0.91,2.01,-0.73,1.16,887.18,21.53,
5371929,-0.04,-0.08,0.88,1.77,-0.73,1.1,887.15,21.52,
5371968,-0.03,-0.08,0.91,1.16,-1.4,1.1,887.14,21.51,
5372006,-0.03,-0.08,0.91,1.04,-1.71,1.28,887.17,21.52,
5372044,-0.04,-0.09,0.9,0.73,-1.83,1.28,887.1,21.51,
5372083,-0.04,-0.07,0.98,0.73,-2.26,1.22,887.12,21.53,
5372121,-0.04,-0.08,0.97,0.43,-1.83,1.46,887.16,21.52,
5372159,-0.03,-0.08,1.05,0.61,-2.62,1.46,887.16,21.52,
5372197,-0.03,-0.08,1.05,0.49,-1.89,1.53,887.14,21.52,
5372236,-0.04,-0.08,1.02,0.37,-1.83,1.59,887.13,21.53,
5372286,-0.04,-0.08,1.03,0.24,-1.28,1.59,887.14,21.51,
5372324,-0.04,-0.07,1.03,0.06,-1.28,1.59,887.16,21.52,
5372362,-0.05,-0.08,1.03,-0.06,-1.22,1.71,887.13,21.52,
5372401,-0.04,-0.08,1.04,-0.37,-1.16,1.65,887.15,21.53,
5372439,-0.03,-0.07,1.07,-0.24,-0.73,1.89,887.16,21.52,
5372477,-0.04,-0.07,1.08,-0.49,-0.55,1.77,887.17,21.53,
5372515,-0.04,-0.07,1.11,-0.37,-1.1,2.2,887.16,21.53,
5372554,-0.05,-0.08,1.1,-0.12,0.31,2.14,887.14,21.53,
5372592,-0.04,-0.08,1.12,0.06,0.79,2.2,887.24,21.53,
5372630,-0.04,-0.07,1.14,0.43,1.46,2.08,887.23,21.54,
5372680,-0.05,-0.06,1.11,0.79,2.14,2.32,887.14,21.51,
5372718,-0.04,-0.07,1.12,1.1,3.66,2.32,887.22,21.52,
5372757,-0.03,-0.07,1.1,0.98,3.78,2.2,887.19,21.52,
5372795,-0.05,-0.07,1.12,1.53,3.91,2.56,887.22,21.53,
5372833,-0.04,-0.07,1.09,1.46,4.82,2.56,887.17,21.53,
5372871,-0.02,-0.07,1.12,1.46,4.33,2.62,887.16,21.53,
5372910,-0.01,-0.07,1.1,1.46,3.91,2.81,887.13,21.53,
5372948,-0.04,-0.08,1.11,1.46,4.03,2.81,887.21,21.53,
5372986,-0.02,-0.07,1.1,1.65,4.64,2.87,887.19,21.54,
5373036,-0.03,-0.07,1.06,1.89,4.58,2.99,887.2,21.53,
5373075,-0.03,-0.07,1.08,2.08,4.03,3.05,887.2,21.54,
5373113,-0.01,-0.08,1.08,2.14,4.27,2.81,887.21,21.55,
5373151,-0.02,-0.07,1.05,2.44,4.33,2.81,887.15,21.53,
5373189,-0.01,-0.07,1.06,2.93,4.15,3.11,887.18,21.53,
5373227,-0.01,-0.08,1.03,2.93,4.33,3.05,887.15,21.54,
5373266,-0.02,-0.07,1.01,3.11,4.21,2.93,887.13,21.53,
5373304,-0.03,-0.07,1.0,3.23,4.52,2.81,887.09,21.53,
5373342,-0.02,-0.08,1.03,3.17,4.88,2.69,887.16,21.53,
5373380,-0.0,-0.08,1.05,2.93,5.25,2.81,887.15,21.53,
5373430,-0.01,-0.07,1.05,3.23,5.68,2.93,887.12,21.52,
5373469,-0.02,-0.08,0.95,3.11,6.16,3.05,887.17,21.53,
5373507,-0.02,-0.08,0.94,3.36,4.7,2.69,887.12,21.53,
5373545,-0.03,-0.08,0.88,3.54,4.82,2.93,887.16,21.54,
5373583,-0.02,-0.09,0.85,4.03,4.82,3.05,887.09,21.54,
5373622,0.0,-0.08,0.75,3.48,5.49,2.81,887.08,21.52,
5373660,-0.01,-0.07,0.79,3.6,4.52,2.87,887.12,21.52,
5373698,-0.02,-0.1,0.76,3.66,5.31,3.3,887.03,21.52,
5373736,-0.02,-0.1,0.73,2.75,5.43,2.93,887.03,21.52,
5373775,-0.01,-0.07,0.78,3.11,5.07,2.75,887.14,21.53,
5373825,-0.02,-0.08,0.74,2.56,5.0,2.81,887.04,21.51,
5373863,-0.01,-0.07,0.8,2.93,4.09,2.87,887.07,21.52,
5373901,-0.01,-0.09,0.79,2.69,4.7,2.81,887.08,21.53,
5373939,-0.02,-0.08,0.85,2.38,3.66,2.99,887.06,21.52,
5373978,-0.01,-0.08,0.88,2.62,3.36,2.93,887.09,21.53,
5374016,-0.03,-0.09,0.87,2.5,3.36,2.69,887.08,21.53,
5374054,-0.02,-0.08,0.86,2.14,3.72,2.81,887.09,21.53,
5374092,0.01,-0.08,0.97,2.32,3.3,2.81,887.06,21.52,
5374131,-0.0,-0.09,0.92,2.2,3.36,2.56,887.05,21.52,
5374181,-0.02,-0.07,1.03,2.56,3.17,2.5,887.05,21.51,
5374219,0.01,-0.09,1.0,2.44,4.03,2.38,887.08,21.53,
5374257,-0.0,-0.08,0.98,2.69,3.23,2.08,887.12,21.52,
5374295,0.0,-0.08,0.9,2.5,4.21,1.89,887.05,21.52,
5374334,-0.02,-0.08,0.87,3.05,4.15,2.01,887.08,21.53,
5374372,0.0,-0.09,0.82,3.17,3.97,1.77,887.08,21.52,
5374410,-0.01,-0.07,0.81,2.75,2.99,1.59,887.06,21.53,
5374449,-0.03,-0.07,0.83,3.36,2.87,1.77,887.1,21.53,
5374487,-0.02,-0.09,0.8,2.38,3.42,1.59,887.04,21.53,
5374525,-0.02,-0.08,0.85,2.5,2.32,1.4,887.12,21.53,
5374601,-0.03,-0.09,0.82,1.89,2.81,1.71,887.06,21.49,
5374639,-0.01,-0.08,0.89,2.32,1.95,1.59,887.04,21.51,
5374678,-0.01,-0.09,0.87,2.08,2.2,1.53,887.14,21.51,
5374768,-0.0,-0.08,0.93,1.77,2.5,1.4,887.1,21.48,
5374806,-0.02,-0.08,0.97,1.95,1.71,1.34,887.09,21.48,
5374844,-0.02,-0.09,0.96,1.65,2.26,1.1,887.1,21.48,
5374883,-0.01,-0.08,0.98,1.89,2.08,1.16,887.1,21.49,
5374921,-0.02,-0.08,0.97,1.4,2.01,1.16,887.07,21.49,
5374959,-0.01,-0.08,0.98,1.59,1.71,1.1,887.1,21.5,
5374997,-0.01,-0.09,1.03,1.4,2.5,0.98,887.14,21.52,
5375047,-0.01,-0.08,1.01,1.22,2.26,0.98,887.13,21.49,
5375086,-0.02,-0.08,1.05,1.28,1.65,0.85,887.1,21.49,
5375124,-0.01,-0.09,1.05,1.34,2.14,0.67,887.21,21.5,
5375162,0.0,-0.08,1.06,1.04,1.53,0.73,887.12,21.5,
5375200,-0.01,-0.09,1.07,1.16,1.77,0.67,887.11,21.51,
5375239,-0.02,-0.08,1.02,0.73,2.2,0.61,887.18,21.5,
5375277,-0.01,-0.07,1.06,1.22,1.95,0.61,887.14,21.5,
5375315,-0.01,-0.08,1.02,0.79,2.2,0.61,887.13,21.5,
5375354,-0.01,-0.08,1.03,1.04,1.59,0.55,887.12,21.51,
5375392,-0.01,-0.08,1.02,0.73,2.5,0.43,887.17,21.51,
5375442,-0.02,-0.08,1.04,0.79,1.95,0.49,887.13,21.49,
5375480,0.0,-0.08,1.02,0.79,1.71,0.43,887.12,21.5,
5375518,-0.01,-0.08,1.04,1.1,1.04,0.37,887.12,21.51,
5375556,-0.01,-0.09,1.02,0.98,0.67,0.43,887.14,21.5,
5375595,-0.01,-0.07,1.04,1.16,0.12,0.24,887.13,21.52,
5375633,-0.01,-0.08,1.06,1.28,0.12,0.24,887.16,21.5,
5375671,-0.01,-0.09,1.05,0.98,0.31,0.31,887.13,21.51,
5375709,-0.0,-0.09,1.05,1.1,0.37,0.31,887.13,21.5,
5375748,-0.01,-0.08,1.04,1.1,0.61,0.12,887.16,21.51,
5375798,-0.02,-0.08,1.05,1.46,1.1,-0.06,887.16,21.5,
5375836,0.0,-0.08,1.05,1.4,2.08,-0.12,887.18,21.52,
5375874,-0.01,-0.07,1.09,1.53,1.95,-0.24,887.12,21.51,
5375912,-0.01,-0.09,1.1,1.53,3.72,-0.43,887.13,21.5,
5375951,-0.01,-0.08,1.08,1.16,4.09,-0.43,887.13,21.51,
5375989,-0.02,-0.07,1.14,1.71,3.72,-0.61,887.15,21.51,
5376027,-0.02,-0.08,1.1,1.16,4.94,-0.61,887.18,21.52,
5376066,-0.01,-0.07,1.13,1.4,4.82,-0.61,887.15,21.51,
5376104,0.0,-0.07,1.17,1.28,4.82,-0.79,887.16,21.52,
5376142,0.01,-0.08,1.13,1.53,4.52,-0.92,887.14,21.52,
5376192,0.01,-0.07,1.15,1.71,4.39,-1.1,887.15,21.5,
5376231,0.0,-0.08,1.1,1.53,4.39,-0.98,887.2,21.5,
5376269,0.01,-0.08,1.09,2.01,3.11,-1.04,887.17,21.5,
5376307,-0.0,-0.08,1.01,1.77,3.78,-1.34,887.17,21.51,
5376345,0.0,-0.07,1.0,2.01,4.03,-1.4,887.2,21.51,
5376384,0.02,-0.08,1.01,2.14,3.3,-1.53,887.19,21.51,
5376422,-0.0,-0.08,1.0,2.2,1.89,-1.59,887.19,21.51,
5376460,-0.0,-0.07,1.04,2.14,1.34,-1.65,887.11,21.52,
5376498,0.01,-0.08,1.05,1.89,1.16,-1.65,887.19,21.52,
5376549,0.0,-0.08,1.08,1.65,-0.67,-1.65,887.15,21.5,
5376587,-0.01,-0.08,1.1,1.46,-0.55,-1.89,887.18,21.52,
5376625,-0.01,-0.08,1.07,1.22,0.31,-1.95,887.14,21.52,
5376663,-0.0,-0.07,1.12,1.4,-0.24,-1.95,887.16,21.52,
5376702,-0.02,-0.08,1.1,1.46,0.12,-2.14,887.14,21.52,
5376740,-0.02,-0.08,1.11,1.4,0.0,-2.2,887.12,21.52,
5376778,-0.01,-0.08,1.14,1.65,0.79,-2.44,887.1,21.52,
5376816,-0.01,-0.08,1.05,1.77,1.65,-2.62,887.08,21.52,
5376855,-0.01,-0.09,1.03,2.14,1.59,-2.62,887.09,21.52,
5376893,-0.01,-0.07,1.03,1.77,1.46,-2.75,887.1,21.52,
5376943,-0.03,-0.08,1.03,1.65,1.65,-2.75,887.12,21.52,
5376981,-0.04,-0.09,1.0,1.71,2.08,-2.75,887.07,21.51,
5377020,-0.03,-0.08,0.98,1.59,2.26,-2.87,887.11,21.52,
5377058,-0.03,-0.08,0.98,1.77,2.2,-2.87,887.05,21.53,
5377096,-0.03,-0.08,0.92,1.53,2.44,-2.62,887.01,21.51,
5377135,-0.07,-0.08,0.91,1.83,2.87,-2.87,887.0,21.53,
5377173,-0.04,-0.08,0.85,0.92,3.97,-2.56,887.0,21.52,
5377211,-0.05,-0.08,0.88,1.71,4.21,-2.5,886.96,21.51,
5377249,-0.05,-0.08,0.79,0.55,4.7,-2.38,887.02,21.51,
5377299,-0.07,-0.07,0.84,1.34,4.39,-2.32,886.97,21.5,
5377338,-0.06,-0.09,0.85,0.61,5.37,-2.14,886.96,21.5,
5377376,-0.07,-0.08,0.93,1.1,4.94,-2.01,886.9,21.51,
5377414,-0.04,-0.09,0.92,0.49,5.37,-1.83,886.95,21.5,
5377453,-0.07,-0.08,0.93,0.49,5.07,-1.59,887.01,21.52,
5377491,-0.07,-0.07,0.93,0.31,5.98,-1.28,886.98,21.51,
5377529,-0.06,-0.08,0.94,0.37,5.62,-1.16,886.91,21.52,
5377567,-0.07,-0.08,0.91,0.85,5.62,-0.85,886.98,21.51,
5377606,-0.07,-0.07,0.91,1.04,5.49,-0.67,886.95,21.52,
5377644,-0.07,-0.08,0.9,0.98,5.55,-0.43,886.96,21.51,
5377721,-0.06,-0.08,0.91,0.98,4.39,-0.06,886.89,21.49,
5377760,-0.06,-0.07,0.89,1.04,4.15,0.12,886.98,21.51,
5377798,-0.06,-0.07,0.93,1.4,3.17,0.37,886.89,21.51,
5377888,-0.08,-0.08,0.85,1.83,2.32,0.73,886.95,21.47,
5377926,-0.07,-0.07,0.84,1.71,2.5,0.98,886.96,21.47,
5377965,-0.07,-0.08,0.84,1.89,2.38,1.1,886.89,21.5,
5378003,-0.07,-0.08,0.87,2.08,2.26,1.46,886.99,21.49,
5378041,-0.08,-0.08,0.87,1.95,3.11,1.59,886.91,21.5,
5378080,-0.07,-0.07,0.93,2.14,3.36,1.77,886.95,21.5,
5378130,-0.07,-0.09,0.96,1.65,4.33,2.14,886.88,21.49,
5378168,-0.09,-0.08,0.98,1.77,4.27,2.14,886.92,21.49,
5378206,-0.07,-0.07,0.99,1.46,4.15,2.38,886.93,21.49,
5378244,-0.07,-0.08,0.99,1.77,3.36,2.81,886.93,21.5,
5378283,-0.06,-0.08,0.97,1.65,3.66,3.05,886.97,21.5,
5378321,-0.06,-0.08,0.98,2.2,3.3,3.36,886.93,21.5,
5378359,-0.06,-0.08,0.95,2.01,2.75,3.36,887.01,21.52,
5378397,-0.08,-0.08,0.97,2.32,2.14,3.54,886.94,21.51,
5378436,-0.06,-0.08,0.94,2.08,2.44,3.72,886.94,21.49,
5378474,-0.06,-0.08,0.94,2.38,1.65,4.15,886.92,21.51,
5378524,-0.06,-0.08,0.9,2.14,2.14,4.33,886.95,21.5,
5378562,-0.05,-0.08,0.91,2.08,1.77,4.21,886.97,21.51,
5378601,-0.05,-0.08,0.92,1.71,2.44,4.58,887.0,21.51,
5378639,-0.05,-0.08,0.93,1.95,1.83,4.52,887.0,21.51,
5378677,-0.05,-0.08,0.95,1.59,2.14,4.52,887.0,21.51,
5378715,-0.04,-0.08,0.95,1.53,1.83,4.64,887.02,21.51,
5378754,-0.03,-0.08,0.99,1.4,1.89,4.64,887.03,21.51,
5378792,-0.03,-0.08,0.97,1.4,1.65,4.7,887.0,21.52,
5378830,-0.04,-0.07,1.0,1.34,1.77,4.76,887.01,21.52,
5378868,-0.03,-0.09,0.97,1.34,2.93,4.7,886.99,21.51,
5378918,-0.04,-0.08,0.98,1.59,1.71,4.76,886.98,21.5,
5378957,-0.04,-0.08,0.96,1.28,2.5,4.58,887.08,21.51,
5378995,-0.02,-0.08,0.97,1.4,2.38,4.64,887.02,21.52,
5379033,-0.03,-0.08,0.95,1.16,2.62,4.46,887.03,21.53,
5379072,-0.03,-0.09,0.98,1.22,2.2,4.64,887.05,21.52,
5379110,-0.03,-0.09,0.97,0.85,2.81,4.46,887.05,21.52,
5379148,-0.03,-0.08,0.99,0.92,2.2,4.39,887.03,21.52,
5379187,-0.02,-0.08,1.01,0.61,2.26,4.52,887.05,21.52,
5379225,-0.02,-0.09,0.99,0.55,2.01,4.39,887.03,21.52,
5379275,-0.02,-0.08,1.01,0.79,1.89,4.33,887.05,21.52,
5379313,-0.0,-0.09,0.99,0.24,2.01,4.09,887.11,21.52,
5379351,-0.01,-0.08,1.0,0.24,1.95,4.09,887.07,21.51,
5379390,-0.01,-0.09,0.96,-0.06,2.75,3.91,887.08,21.52,
5379428,-0.02,-0.08,0.98,-0.31,2.2,3.97,887.08,21.52,
5379466,-0.01,-0.08,1.0,-0.43,2.26,3.85,887.08,21.52,
5379505,-0.01,-0.08,1.05,-0.67,1.95,3.6,887.11,21.52,
5379543,0.0,-0.08,1.05,-0.85,2.01,3.48,887.1,21.52,
5379581,-0.01,-0.08,1.07,-0.98,1.46,3.36,887.11,21.52,
5379620,-0.0,-0.08,1.1,-0.85,0.79,3.42,887.12,21.53,
5379670,-0.01,-0.08,1.09,-0.98,1.16,3.23,887.08,21.51,
5379708,-0.0,-0.08,1.12,-0.79,0.55,3.17,887.14,21.53,
5379746,-0.0,-0.08,1.13,-0.85,0.55,2.99,887.14,21.53,
5379785,-0.0,-0.08,1.13,-0.61,0.49,2.81,887.1,21.51,
5379823,0.0,-0.08,1.14,-0.43,0.55,2.75,887.1,21.52,
5379861,0.0,-0.07,1.13,-0.24,0.24,2.69,887.14,21.52,
5379899,-0.0,-0.08,1.12,0.0,0.55,2.26,887.16,21.53,
5379938,-0.0,-0.08,1.11,0.06,0.98,2.08,887.1,21.53,
5379976,0.0,-0.08,1.09,0.06,1.16,1.83,887.16,21.53,
5380014,-0.0,-0.08,1.12,0.18,0.98,1.59,887.09,21.52,
5380064,0.0,-0.08,1.1,0.0,1.77,1.28,887.07,21.51,
5380102,0.0,-0.07,1.13,0.37,1.53,1.22,887.09,21.52,
5380141,-0.01,-0.08,1.12,0.43,2.2,1.04,887.09,21.53,
5380179,-0.0,-0.08,1.11,0.85,2.26,1.04,887.1,21.52,
5380217,-0.01,-0.07,1.13,1.04,2.87,0.73,887.13,21.53,
5380255,-0.01,-0.08,1.07,1.34,2.87,0.61,887.1,21.52,
5380294,-0.0,-0.07,1.06,1.53,2.87,0.61,887.16,21.52,
5380332,0.0,-0.08,1.05,1.53,3.42,0.24,887.12,21.52,
5380370,-0.01,-0.08,1.05,1.71,3.66,0.37,887.13,21.53,
5380420,-0.02,-0.08,1.03,2.08,3.91,0.24,887.14,21.52,
5380459,-0.01,-0.08,1.03,2.5,3.72,0.06,887.13,21.52,
5380497,-0.0,-0.08,1.02,2.62,3.36,0.0,887.16,21.53,
5380535,-0.0,-0.08,1.0,2.75,3.05,0.0,887.1,21.53,
5380573,-0.01,-0.08,0.97,2.93,2.87,-0.06,887.13,21.53,
5380612,-0.01,-0.08,0.95,2.87,2.75,-0.06,887.08,21.53,
5380650,-0.01,-0.07,0.98,2.93,1.83,0.06,887.04,21.53,
5380688,-0.01,-0.08,0.95,2.75,1.83,-0.18,887.12,21.53,
5380726,-0.02,-0.08,0.99,2.93,1.71,0.0,887.04,21.53,
5380765,-0.0,-0.08,0.98,2.75,2.01,-0.24,887.09,21.53,
5380841,-0.02,-0.07,0.99,2.93,1.22,-0.31,887.14,21.49,
5380879,-0.01,-0.08,0.94,3.3,1.28,-0.37,887.09,21.5,
5380917,-0.01,-0.08,0.96,3.36,0.43,-0.43,887.08,21.51,
5381007,-0.02,-0.08,0.89,3.42,0.67,-0.43,887.03,21.48,
5381045,-0.02,-0.07,0.89,3.42,1.04,-0.67,887.05,21.49,
5381084,-0.03,-0.08,0.86,3.36,1.22,-0.37,887.02,21.5,
5381122,-0.03,-0.08,0.87,3.36,1.4,-0.49,887.07,21.5,
5381160,-0.03,-0.08,0.86,3.36,1.89,-0.49,887.02,21.51,
5381199,-0.03,-0.07,0.85,3.23,2.14,-0.55,887.08,21.51,
5381249,-0.03,-0.08,0.85,3.17,2.56,-0.31,887.01,21.5,
5381287,-0.03,-0.08,0.84,2.93,2.81,-0.49,887.04,21.51,
5381325,-0.03,-0.08,0.85,2.99,3.17,-0.37,887.11,21.51,
5381364,-0.03,-0.08,0.85,2.87,3.54,-0.49,886.99,21.5,
5381402,-0.03,-0.08,0.86,2.81,3.91,-0.49,887.03,21.51,
5381440,-0.03,-0.07,0.85,2.69,4.27,-0.49,887.08,21.51,
5381478,-0.03,-0.08,0.87,2.87,4.03,-0.24,887.05,21.5,
5381516,-0.03,-0.08,0.85,2.99,4.39,-0.31,887.02,21.52,
5381555,-0.03,-0.07,0.87,2.87,4.27,-0.31,887.05,21.5,
5381593,-0.03,-0.07,0.87,2.62,4.21,-0.06,887.08,21.51,
5381643,-0.03,-0.08,0.89,2.69,3.36,-0.06,887.09,21.51,
5381681,-0.04,-0.08,0.89,2.56,3.72,-0.12,887.07,21.52,
5381720,-0.02,-0.07,0.9,2.56,3.54,0.0,887.08,21.51,
5381758,-0.03,-0.07,0.91,2.56,3.36,0.12,887.01,21.51,
5381796,-0.04,-0.07,0.9,2.5,3.72,0.12,887.06,21.52,
5381834,-0.04,-0.08,0.91,2.56,3.85,0.24,887.07,21.51,
5381873,-0.04,-0.07,0.91,2.38,3.85,0.31,887.02,21.52,
5381911,-0.04,-0.07,0.92,2.32,3.85,0.31,887.05,21.52,
5381949,-0.04,-0.07,0.92,2.32,4.21,0.24,887.06,21.52,
5381999,-0.04,-0.07,0.94,2.32,4.09,0.37,887.03,21.5,
5382037,-0.03,-0.07,0.95,2.26,4.15,0.55,887.08,21.51,
5382076,-0.04,-0.07,0.95,2.38,4.21,0.61,887.13,21.51,
5382114,-0.04,-0.07,0.97,2.32,4.46,0.67,887.12,21.52,
5382152,-0.03,-0.07,0.98,2.44,4.03,0.79,887.12,21.52,
5382191,-0.03,-0.08,0.97,2.5,4.15,0.79,887.08,21.52,
5382229,-0.04,-0.07,0.96,2.56,4.39,0.98,887.07,21.52,
5382267,-0.04,-0.07,0.99,2.62,4.52,0.85,887.08,21.52,
5382305,-0.04,-0.07,0.96,2.99,4.58,0.98,887.08,21.51,
5382344,-0.04,-0.07,0.98,3.17,4.15,1.1,887.1,21.51,
5382394,-0.03,-0.07,0.98,3.48,4.39,1.22,887.12,21.5,
5382432,-0.03,-0.07,0.97,3.54,4.09,1.1,887.09,21.5,
5382470,-0.04,-0.07,0.94,3.48,3.6,1.34,887.14,21.52,
5382509,-0.05,-0.07,0.92,3.78,3.48,1.59,887.07,21.51,
5382547,-0.03,-0.08,0.87,3.54,3.91,1.4,887.09,21.53,
5382585,-0.03,-0.07,0.88,3.78,3.48,1.4,887.1,21.52,
5382623,-0.03,-0.07,0.86,3.6,2.93,1.71,887.1,21.52,
5382662,-0.03,-0.06,0.87,3.66,2.87,1.77,887.14,21.52,
5382700,-0.02,-0.07,0.87,3.48,3.23,1.71,887.09,21.52,
5382738,-0.03,-0.07,0.88,3.6,1.89,1.71,887.15,21.53,
5382788,-0.04,-0.07,0.89,3.48,1.65,1.83,887.09,21.51,
5382826,-0.02,-0.07,0.89,3.3,1.65,1.77,887.14,21.51,
5382865,-0.03,-0.07,0.88,3.42,1.28,1.95,887.12,21.52,
5382903,-0.03,-0.08,0.87,3.36,0.92,1.95,887.16,21.52,
5382941,-0.04,-0.07,0.86,3.3,0.98,1.83,887.19,21.5,
5382979,-0.03,-0.07,0.84,3.23,1.04,1.83,887.15,21.52,
5383018,-0.03,-0.07,0.85,3.3,0.85,2.01,887.15,21.52,
5383056,-0.03,-0.07,0.83,3.17,1.22,1.83,887.13,21.52,
5383094,-0.03,-0.07,0.84,3.11,1.1,2.01,887.12,21.52,
5383144,-0.02,-0.07,0.86,2.93,1.46,1.95,887.21,21.51,
5383183,-0.03,-0.07,0.85,2.81,1.4,2.01,887.16,21.52,
5383221,-0.02,-0.08,0.85,2.56,1.34,1.83,887.18,21.53,
5383259,-0.02,-0.07,0.87,2.5,1.46,1.71,887.22,21.52,
5383298,-0.03,-0.07,0.85,2.38,1.46,1.89,887.18,21.51,
5383336,-0.02,-0.07,0.87,2.2,0.73,1.95,887.2,21.52,
5383374,-0.02,-0.07,0.89,2.08,0.67,1.95,887.17,21.52,
5383412,-0.03,-0.08,0.88,2.2,0.79,1.89,887.21,21.52,
5383451,-0.04,-0.07,0.91,2.01,0.92,2.08,887.26,21.54,
5383489,-0.03,-0.07,0.92,1.77,1.65,1.95,887.26,21.52,
5383539,-0.02,-0.07,0.93,2.14,1.89,1.89,887.3,21.52,
5383577,-0.03,-0.07,0.91,1.95,2.32,1.89,887.25,21.52,
5383615,-0.03,-0.07,0.92,2.26,2.56,1.89,887.3,21.52,
5383654,-0.03,-0.07,0.93,2.38,2.87,1.89,887.31,21.53,
5383692,-0.02,-0.07,0.92,2.56,2.56,2.08,887.3,21.52,
5383730,-0.03,-0.07,0.93,2.81,2.32,2.01,887.3,21.52,
5383768,-0.03,-0.07,0.91,2.81,2.87,1.89,887.38,21.53,
5383807,-0.02,-0.07,0.94,3.23,2.5,2.08,887.33,21.53,
5383845,-0.02,-0.07,0.94,3.05,2.99,1.89,887.37,21.53,
5383883,-0.03,-0.07,0.95,3.05,2.44,1.95,887.38,21.53,
5383959,-0.02,-0.08,0.95,3.11,2.38,2.01,887.39,21.51,
5383997,-0.02,-0.07,0.93,3.23,2.44,1.95,887.39,21.51,
5384036,-0.02,-0.07,0.91,3.48,2.44,2.01,887.43,21.51,
5384126,-0.01,-0.07,0.9,3.97,2.38,2.01,887.42,21.49,
5384164,-0.02,-0.07,0.87,3.85,2.56,1.71,887.46,21.5,
5384202,-0.03,-0.08,0.89,4.09,2.2,1.83,887.45,21.51,
5384241,-0.01,-0.08,0.89,4.09,3.17,1.83,887.49,21.52,
5384279,-0.02,-0.07,0.9,4.15,2.87,1.89,887.41,21.5,
5384317,-0.02,-0.08,0.88,4.15,3.42,1.83,887.49,21.52,
5384367,-0.02,-0.07,0.87,4.21,2.87,1.89,887.52,21.52,
5384405,-0.02,-0.07,0.84,4.09,3.3,1.65,887.45,21.51,
5384444,-0.02,-0.07,0.83,3.97,2.32,1.83,887.55,21.53,
5384482,-0.01,-0.08,0.81,3.97,2.26,1.89,887.5,21.52,
5384520,-0.02,-0.07,0.8,3.72,2.01,1.59,887.48,21.52,
5384558,-0.02,-0.08,0.82,3.78,1.71,1.77,887.52,21.52,
5384597,-0.01,-0.08,0.81,3.3,1.59,1.83,887.54,21.54,
5384635,-0.02,-0.08,0.84,3.23,1.46,1.71,887.53,21.52,
5384673,-0.03,-0.08,0.82,2.87,1.83,1.71,887.58,21.53,
5384712,-0.03,-0.07,0.86,2.81,1.4,1.77,887.56,21.53,
5384761,-0.02,-0.08,0.86,2.14,1.89,1.59,887.64,21.51,
5384800,-0.02,-0.07,0.89,2.08,1.28,1.59,887.59,21.53,
5384838,-0.02,-0.08,0.92,1.77,1.95,1.71,887.63,21.54,
5384876,-0.01,-0.08,0.94,1.71,1.77,1.71,887.6,21.53,
5384914,-0.02,-0.08,0.95,1.77,2.38,1.46,887.64,21.54,
5384953,-0.02,-0.08,0.96,1.83,2.62,1.28,887.66,21.53,
5384991,-0.02,-0.08,0.95,1.65,2.56,1.4,887.66,21.53,
5385029,-0.02,-0.07,0.92,1.28,2.56,1.28,887.7,21.53,
5385067,-0.03,-0.08,0.97,1.65,2.5,1.53,887.65,21.53,
5385106,-0.02,-0.08,0.93,1.04,3.23,1.4,887.68,21.53,
5385156,-0.02,-0.08,0.99,1.53,2.5,1.65,887.72,21.53,
5385194,-0.01,-0.09,0.95,1.1,2.08,1.65,887.72,21.52,
5385232,-0.0,-0.07,1.03,1.46,0.92,1.22,887.81,21.53,
5385271,-0.03,-0.08,0.98,1.1,1.59,1.59,887.78,21.54,
5385309,-0.03,-0.07,1.0,1.04,0.79,1.53,887.74,21.53,
5385347,-0.01,-0.08,1.08,1.28,1.28,1.4,887.79,21.54,
5385385,-0.02,-0.08,1.02,0.61,1.28,1.53,887.77,21.53,
5385424,-0.04,-0.07,1.07,1.1,0.98,1.22,887.84,21.54,
5385462,-0.02,-0.09,1.05,1.1,2.01,1.28,887.83,21.53,
5385512,-0.01,-0.08,1.05,1.4,0.98,1.28,887.86,21.52,
5385550,-0.02,-0.08,0.97,1.22,1.46,1.22,887.82,21.53,
5385588,-0.03,-0.07,0.99,1.53,1.59,1.22,887.9,21.54,
5385627,-0.01,-0.09,0.94,0.73,2.14,1.22,887.85,21.54,
5385665,-0.03,-0.07,0.98,1.22,0.85,1.28,887.89,21.52,
5385703,-0.04,-0.08,0.96,0.79,2.01,1.34,887.91,21.54,
5385742,-0.02,-0.07,1.02,0.79,1.71,1.34,887.9,21.53,
5385780,-0.03,-0.07,1.09,0.61,1.59,1.28,887.87,21.53,
5385818,-0.03,-0.08,1.1,0.31,1.95,1.28,887.92,21.53,
5385856,-0.04,-0.07,1.16,0.73,2.93,1.34,887.95,21.53,
5385906,-0.03,-0.07,1.17,0.49,3.11,1.59,887.98,21.53,
5385945,-0.03,-0.07,1.22,0.92,3.36,1.28,887.98,21.53,
5385983,-0.02,-0.08,1.18,1.1,4.94,1.16,888.03,21.53,
5386021,-0.03,-0.08,1.18,1.28,4.46,1.34,887.98,21.52,
5386059,-0.04,-0.08,1.13,1.46,4.94,1.59,887.98,21.54,
5386098,-0.05,-0.08,1.1,1.77,4.82,1.71,887.98,21.53,
5386136,-0.02,-0.08,1.1,1.46,4.88,1.71,888.01,21.54,
5386174,-0.02,-0.08,1.1,1.4,4.52,1.71,888.1,21.52,
5386213,-0.02,-0.07,1.1,1.34,4.46,1.89,888.07,21.53,
5386251,-0.02,-0.08,1.11,1.16,4.52,2.08,888.06,21.54,
5386301,-0.03,-0.08,1.1,1.1,4.03,2.14,888.08,21.52,
5386339,-0.04,-0.08,1.09,1.22,3.66,2.08,888.08,21.52,
5386377,-0.03,-0.08,1.06,1.16,4.27,2.2,888.15,21.53,
5386416,-0.01,-0.08,1.05,1.28,4.03,2.08,888.09,21.53,
5386454,-0.02,-0.07,1.04,1.4,3.78,2.01,888.11,21.53,
5386492,-0.02,-0.08,1.0,1.1,3.91,2.14,888.16,21.53,
5386530,-0.04,-0.09,1.03,1.46,4.21,2.26,888.15,21.53,
5386569,-0.02,-0.09,0.99,1.34,4.88,2.26,888.2,21.53,
5386607,-0.02,-0.08,1.0,1.65,4.27,2.14,888.16,21.53,
5386657,-0.03,-0.09,0.92,1.46,5.55,2.26,888.16,21.52,
5386695,-0.01,-0.08,0.93,1.71,5.55,2.26,888.17,21.52,
5386733,-0.02,-0.09,0.9,1.22,6.41,2.14,888.17,21.53,
5386772,-0.02,-0.08,0.89,1.16,5.86,2.32,888.2,21.52,
5386810,-0.01,-0.08,0.95,0.73,6.65,2.08,888.16,21.52,
5386848,-0.02,-0.08,0.96,0.61,6.9,2.08,888.23,21.53,
5386886,-0.03,-0.08,1.0,0.67,6.35,2.26,888.19,21.52,
5386925,-0.01,-0.08,1.04,0.61,6.9,2.14,888.23,21.53,
5386963,-0.0,-0.09,1.03,0.55,6.9,2.26,888.27,21.53,
5387001,-0.02,-0.08,1.04,0.79,6.47,2.32,888.31,21.53,
5387077,-0.02,-0.08,1.06,0.92,5.62,2.44,888.36,21.51,
5387115,-0.01,-0.08,1.09,1.04,5.68,2.32,888.31,21.52,
5387154,-0.02,-0.08,1.04,0.85,5.13,2.2,888.26,21.52,
5387244,-0.0,-0.09,1.03,0.79,5.13,2.32,888.27,21.47,
5387282,0.0,-0.07,1.07,0.79,4.7,2.08,888.34,21.49,
5387320,-0.01,-0.08,1.06,0.73,4.76,2.26,888.39,21.51,
5387358,-0.01,-0.08,1.06,0.67,4.7,1.95,888.36,21.51,
5387397,-0.0,-0.08,1.1,0.67,4.46,1.95,888.39,21.51,
5387435,-0.0,-0.09,1.05,0.61,5.0,1.77,888.36,21.51,
5387473,0.01,-0.08,1.09,0.79,4.46,1.65,888.42,21.51,
5387523,0.01,-0.08,1.08,0.79,3.85,1.65,888.38,21.5,
5387561,-0.02,-0.09,1.05,0.92,3.97,1.59,888.43,21.52,
5387600,0.01,-0.08,1.08,0.85,3.78,1.28,888.43,21.52,
5387638,0.01,-0.08,1.1,0.49,3.36,1.28,888.4,21.5,
5387676,0.01,-0.08,1.11,0.31,2.38,1.28,888.47,21.52,
5387714,-0.01,-0.09,1.11,0.31,2.32,1.04,888.39,21.5,
5387753,0.02,-0.08,1.13,0.31,1.65,0.79,888.46,21.52,
5387791,0.02,-0.08,1.13,0.49,1.65,0.85,888.44,21.5,
5387829,-0.01,-0.08,1.09,0.43,1.71,0.67,888.49,21.51,
5387879,0.01,-0.09,1.07,1.04,1.71,0.67,888.55,21.51,
5387917,-0.01,-0.08,1.02,0.85,1.59,0.37,888.58,21.51,
5387956,0.01,-0.07,1.02,1.28,0.67,0.31,888.53,21.51,
5387994,-0.0,-0.09,0.96,1.1,1.71,0.18,888.45,21.51,
5388032,-0.0,-0.08,0.96,1.22,1.46,0.0,888.47,21.51,
5388070,0.0,-0.08,0.97,0.98,2.08,-0.12,888.48,21.51,
5388109,0.01,-0.08,0.99,0.98,1.77,-0.12,888.5,21.51,
5388147,-0.01,-0.09,1.0,0.98,1.53,-0.37,888.53,21.52,
5388185,-0.01,-0.09,1.02,0.85,1.4,-0.24,888.54,21.52,
5388223,-0.01,-0.08,1.06,0.92,1.04,-0.43,888.45,21.5,
5388273,-0.01,-0.08,1.07,1.1,0.79,-0.67,888.58,21.49,
5388312,-0.01,-0.09,1.06,1.22,0.85,-0.73,888.56,21.5,
5388350,-0.01,-0.09,1.02,1.16,1.71,-0.79,888.54,21.5,
5388388,-0.01,-0.08,1.03,0.98,1.59,-0.85,888.59,21.52,
5388427,-0.02,-0.08,1.02,1.16,1.65,-0.92,888.57,21.51,
5388465,-0.03,-0.08,1.02,1.22,1.89,-0.92,888.56,21.51,
5388503,-0.02,-0.08,1.04,1.22,2.01,-1.04,888.56,21.52,
5388541,-0.01,-0.08,1.06,1.16,2.2,-1.1,888.6,21.51,
5388580,-0.01,-0.08,1.05,1.16,2.38,-1.04,888.67,21.52,
5388618,-0.02,-0.08,1.05,1.1,2.69,-1.1,888.57,21.52,
5388668,-0.03,-0.08,1.04,1.16,2.81,-1.1,888.58,21.5,
5388706,-0.03,-0.08,1.05,1.16,2.93,-1.1,888.62,21.5,
5388744,-0.03,-0.08,1.07,1.04,3.36,-1.16,888.66,21.51,
5388782,-0.02,-0.08,1.07,1.22,3.11,-1.04,888.62,21.51,
5388821,-0.03,-0.08,1.07,1.1,3.17,-1.04,888.52,21.5,
5388859,-0.03,-0.08,1.08,1.59,2.93,-0.98,888.58,21.52,
5388897,-0.03,-0.08,1.09,1.46,3.05,-1.1,888.65,21.51,
5388935,-0.03,-0.07,1.08,1.46,2.56,-0.92,888.65,21.51,
5388974,-0.03,-0.07,1.1,1.65,2.81,-0.73,888.62,21.52,
5389024,-0.03,-0.08,1.1,1.28,2.56,-0.79,888.65,21.5,
5389062,-0.03,-0.07,1.13,1.34,1.71,-0.67,888.72,21.51,
5389100,-0.03,-0.08,1.11,1.22,2.26,-0.79,888.66,21.51,
5389138,-0.04,-0.08,1.11,1.1,1.65,-0.61,888.64,21.5,
5389177,-0.04,-0.08,1.11,0.92,1.59,-0.61,888.58,21.52,
5389215,-0.03,-0.08,1.09,1.16,0.98,-0.55,888.64,21.51,
5389253,-0.03,-0.08,1.04,1.28,0.85,-0.49,888.67,21.51,
5389291,-0.03,-0.08,1.02,1.46,0.49,-0.37,888.63,21.51,
5389330,-0.05,-0.08,0.99,1.53,0.61,-0.37,888.66,21.52,
5389368,-0.05,-0.08,0.96,1.65,0.85,-0.37,888.64,21.52,
5389418,-0.05,-0.08,0.94,1.59,0.98,-0.31,888.67,21.51,
5389456,-0.07,-0.08,0.93,1.53,1.53,-0.12,888.64,21.51,
5389494,-0.03,-0.08,0.95,1.4,2.14,-0.18,888.63,21.51,
5389533,-0.06,-0.08,0.95,1.22,2.56,-0.12,888.63,21.52,
5389571,-0.05,-0.08,1.0,1.34,2.2,0.12,888.63,21.52,
5389609,-0.05,-0.09,1.01,1.28,2.75,0.12,888.63,21.51,
5389647,-0.05,-0.08,1.02,1.04,2.81,0.18,888.64,21.52,
5389686,-0.05,-0.07,1.03,1.16,3.11,0.37,888.66,21.52,
5389724,-0.05,-0.08,1.03,1.1,3.17,0.43,888.66,21.53,
5389774,-0.07,-0.07,1.03,1.34,3.6,0.67,888.66,21.51,
5389812,-0.08,-0.08,1.01,1.77,3.78,0.61,888.68,21.53,
5389850,-0.05,-0.08,1.02,1.59,3.85,0.67,888.67,21.52,
5389889,-0.05,-0.08,0.98,1.53,4.76,0.79,888.67,21.51,
5389927,-0.04,-0.07,0.96,1.83,4.94,0.98,888.7,21.51,
5389965,-0.04,-0.08,0.94,1.83,5.55,1.22,888.71,21.51,
5390003,-0.05,-0.08,0.91,1.83,4.94,1.22,888.67,21.52,
5390042,-0.06,-0.08,0.92,1.89,5.74,1.16,888.72,21.52,
5390080,-0.03,-0.08,0.9,1.65,6.29,1.28,888.72,21.53,
5390118,-0.04,-0.07,0.97,1.95,5.0,1.28,888.67,21.52,
5390194,-0.04,-0.08,0.96,1.53,5.31,1.46,888.65,21.48,
5390233,-0.05,-0.08,0.99,1.28,4.58,1.65,888.69,21.51,
5390271,-0.05,-0.09,0.97,0.92,4.27,1.95,888.7,21.49,
5390361,-0.04,-0.08,1.05,1.16,2.14,2.32,888.74,21.47,
5390399,-0.03,-0.07,1.06,1.22,1.46,2.44,888.7,21.48,
5390438,-0.04,-0.08,1.07,1.22,0.79,2.56,888.77,21.48,
5390476,-0.03,-0.08,1.1,1.65,0.73,2.99,888.78,21.5,
5390514,-0.02,-0.08,1.12,1.71,1.4,2.87,888.79,21.5,
5390552,-0.02,-0.07,1.11,1.95,1.53,2.93,888.83,21.5,
5390602,-0.01,-0.07,1.05,1.77,1.59,2.69,888.8,21.49,
5390641,-0.02,-0.07,1.04,2.01,1.4,2.5,888.82,21.5,
5390679,0.01,-0.1,0.96,1.89,1.59,2.69,888.83,21.5,
5390717,-0.0,-0.07,0.95,2.14,-0.18,2.44,888.81,21.49,
5390755,-0.03,-0.09,0.89,2.32,0.55,2.38,888.83,21.5,
5390794,-0.03,-0.09,0.84,2.14,0.24,2.26,888.79,21.5,
5390832,-0.01,-0.08,0.9,2.38,-0.55,2.26,888.76,21.51,
5390870,-0.0,-0.09,0.84,1.77,-0.12,2.44,888.81,21.52,
5390908,-0.0,-0.09,0.87,1.83,-0.85,2.14,888.78,21.51,
5390947,-0.02,-0.09,0.85,1.53,-0.24,1.95,888.75,21.5,
5390997,-0.02,-0.09,0.9,1.95,-0.06,1.77,888.77,21.5,
5391035,-0.0,-0.08,0.9,1.16,0.24,1.53,888.8,21.5,
5391073,-0.04,-0.08,0.94,1.53,0.37,1.34,888.82,21.52,
5391111,-0.03,-0.08,0.94,1.1,2.01,1.53,888.86,21.51,
5391150,0.0,-0.07,0.98,1.04,1.4,0.85,888.86,21.51,
5391188,-0.03,-0.08,1.07,1.4,2.08,0.92,888.83,21.52,
5391226,-0.03,-0.09,1.04,1.1,3.3,0.98,888.86,21.51,
5391264,-0.03,-0.07,1.14,1.77,3.48,0.85,888.87,21.52,
5391303,-0.02,-0.07,1.07,1.4,3.85,0.98,888.87,21.53,
5391341,-0.03,-0.06,1.15,2.14,1.95,0.92,888.93,21.53,
5391391,-0.01,-0.09,1.1,1.59,3.54,0.98,888.88,21.5,
5391429,-0.01,-0.07,1.18,2.56,1.83,0.98,888.83,21.51,
5391467,-0.03,-0.09,1.11,2.08,2.56,1.22,888.9,21.52,
5391506,-0.04,-0.06,1.11,2.44,1.77,0.98,888.91,21.51,
5391544,-0.04,-0.08,1.1,2.38,3.05,1.1,888.93,21.52,
5391582,-0.01,-0.08,1.06,2.38,2.69,1.1,888.94,21.52,
5391620,-0.02,-0.08,1.04,2.99,2.81,0.98,888.93,21.52,
5391659,-0.02,-0.08,0.97,2.5,3.42,0.92,888.9,21.51,
5391697,-0.0,-0.07,1.03,2.99,2.62,0.85,888.89,21.51,
5391747,-0.03,-0.09,0.93,2.08,2.2,1.22,888.86,21.5,
5391785,-0.03,-0.08,0.97,2.62,1.59,1.04,888.92,21.5,
5391823,-0.01,-0.09,0.94,2.08,2.14,1.1,888.92,21.52,
5391862,0.0,-0.07,0.96,2.08,0.37,0.98,888.97,21.52,
5391900,-0.02,-0.09,0.94,2.01,0.61,1.04,888.94,21.52,
5391938,-0.03,-0.09,0.94,1.89,0.55,1.04,888.92,21.51,
5391976,-0.02,-0.08,0.96,1.83,0.73,0.98,888.9,21.51,
5392015,-0.02,-0.08,0.94,1.95,0.12,0.98,888.92,21.53,
5392053,-0.02,-0.09,0.89,1.77,0.55,0.79,888.87,21.52,
5392091,-0.01,-0.08,0.94,1.77,0.49,0.85,888.96,21.52,
5392141,-0.0,-0.09,0.9,1.53,-0.12,1.1,889.0,21.52,
5392179,-0.03,-0.08,0.92,1.53,-1.4,0.85,888.89,21.51,
5392218,-0.01,-0.08,0.95,1.1,-0.92,0.79,888.98,21.52,
5392256,-0.01,-0.09,0.94,1.04,-1.4,0.98,888.91,21.52,
5392294,-0.02,-0.08,0.91,0.98,-1.53,0.85,888.94,21.53,
5392332,-0.02,-0.08,0.87,0.98,-1.34,0.92,888.95,21.52,
5392371,-0.0,-0.08,0.9,1.22,-2.08,0.67,888.99,21.53,
5392409,-0.01,-0.09,0.85,1.22,-1.28,0.73,888.95,21.52,
5392447,-0.04,-0.08,0.83,1.16,-0.79,0.67,888.98,21.53,
5392485,-0.02,-0.09,0.86,1.53,0.67,0.73,888.99,21.52,
5392535,-0.01,-0.07,0.84,1.46,0.55,0.55,889.03,21.51,
5392574,-0.02,-0.08,0.9,1.65,0.98,0.49,889.04,21.53,
5392612,-0.01,-0.08,0.89,1.22,2.75,0.31,889.0,21.52,
5392650,-0.01,-0.07,1.0,1.83,2.99,0.43,888.95,21.51,
5392688,-0.02,-0.09,0.95,1.46,4.52,0.43,888.98,21.52,
5392727,-0.03,-0.08,1.0,2.14,3.78,0.43,889.02,21.52,
5392765,-0.03,-0.08,0.99,1.83,6.53,0.06,889.04,21.53,
5392803,-0.03,-0.07,1.0,1.89,7.57,0.18,889.04,21.53,
5392841,-0.01,-0.07,1.06,2.14,8.18,0.18,889.03,21.53,
5392891,-0.04,-0.07,1.06,1.77,8.61,0.31,889.03,21.51,
5392930,-0.04,-0.07,1.07,1.65,10.38,0.37,889.12,21.52,
5392968,-0.02,-0.07,1.04,1.4,10.07,0.31,889.05,21.53,
5393006,-0.04,-0.07,1.08,1.65,10.25,0.37,889.07,21.53,
5393045,-0.0,-0.07,1.07,1.4,10.74,0.31,889.04,21.54,
5393083,-0.03,-0.06,1.11,1.95,9.83,0.43,889.08,21.53,
5393121,-0.02,-0.08,1.07,1.95,10.44,0.61,889.03,21.53,
5393159,-0.02,-0.07,1.06,2.32,9.89,0.49,889.07,21.54,
5393197,-0.01,-0.07,1.07,2.26,10.62,0.37,889.12,21.53,
5393236,-0.02,-0.06,1.07,2.93,9.16,0.55,889.04,21.53,
5393312,-0.03,-0.07,1.02,3.23,8.06,0.61,889.09,21.5,
5393350,-0.02,-0.07,1.04,3.3,8.06,0.67,889.13,21.52,
5393388,-0.01,-0.08,1.0,3.54,6.9,0.73,889.06,21.52,
5393478,-0.01,-0.08,1.0,3.72,5.43,0.79,889.11,21.49,
5393517,-0.02,-0.07,1.02,3.78,4.15,0.67,889.06,21.5,
5393555,-0.0,-0.08,0.97,3.66,3.78,0.55,889.12,21.5,
5393593,-0.03,-0.08,0.99,3.97,2.38,0.61,889.13,21.51,
5393631,-0.01,-0.07,1.0,3.72,2.93,0.55,889.12,21.51,
5393670,-0.02,-0.08,0.98,3.78,2.38,0.37,889.01,21.52,
5393720,-0.0,-0.07,1.05,3.05,2.81,0.49,889.11,21.51,
5393758,-0.01,-0.08,1.02,2.99,3.91,0.43,889.08,21.51,
5393796,-0.04,-0.08,1.05,2.81,3.54,0.37,889.08,21.52,
5393834,-0.04,-0.07,1.04,2.69,3.3,0.31,889.11,21.53,
5393873,-0.03,-0.06,1.1,2.56,2.62,0.18,889.12,21.52,
5393911,-0.0,-0.08,1.05,2.26,3.36,0.24,889.13,21.51,
5393949,-0.03,-0.07,1.03,2.14,2.5,0.24,889.13,21.52,
5393987,-0.05,-0.07,1.03,2.5,3.6,0.18,889.12,21.52,
5394026,-0.02,-0.08,0.95,1.89,3.85,0.06,889.12,21.52,
5394064,-0.02,-0.06,1.05,2.26,1.34,0.31,889.14,21.53,
5394114,-0.03,-0.09,0.96,1.59,1.28,0.31,889.11,21.51,
5394152,-0.03,-0.06,1.05,2.38,0.31,0.24,889.08,21.51,
5394190,-0.02,-0.08,0.94,1.28,0.55,0.12,889.11,21.52,
5394229,-0.03,-0.06,1.0,1.83,-1.28,0.31,889.08,21.52,
5394267,-0.03,-0.08,0.93,1.28,0.12,0.12,889.21,21.52,
5394305,-0.03,-0.07,0.94,1.65,-0.61,0.12,889.17,21.52,
5394343,-0.03,-0.07,0.95,1.77,-0.98,0.06,889.18,21.53,
5394382,-0.03,-0.07,0.94,1.53,-0.98,0.06,889.16,21.53,
5394420,-0.02,-0.07,1.0,1.89,-1.22,0.12,889.2,21.53,
5394458,-0.03,-0.08,0.99,1.4,-1.28,-0.06,889.16,21.53,
5394508,-0.05,-0.08,1.01,1.53,-0.85,0.06,889.16,21.51,
5394546,-0.02,-0.07,1.01,1.4,-0.85,-0.12,889.24,21.51,
5394585,-0.02,-0.07,1.03,1.53,-0.98,-0.24,889.21,21.52,
5394623,-0.02,-0.07,1.0,1.04,-0.37,-0.06,889.22,21.52,
5394661,-0.03,-0.08,1.03,1.53,-0.43,-0.24,889.16,21.51,
5394699,-0.02,-0.08,1.03,1.22,-0.37,-0.12,889.21,21.51,
5394738,-0.01,-0.07,1.04,1.4,-0.49,-0.18,889.25,21.52,
5394776,-0.03,-0.08,1.03,1.28,-0.43,-0.37,889.25,21.52,
5394814,-0.04,-0.08,1.02,1.83,-0.73,-0.24,889.2,21.5,
5394864,-0.02,-0.07,1.02,1.28,0.73,-0.49,889.17,21.49,
5394902,-0.01,-0.07,1.03,1.34,0.49,-0.49,889.2,21.51,
5394941,-0.02,-0.07,1.06,1.59,0.37,-0.43,889.23,21.5,
5394979,-0.03,-0.08,1.07,1.34,0.67,-0.61,889.23,21.51,
5395017,-0.02,-0.07,1.13,1.53,0.55,-0.73,889.2,21.52,
5395055,-0.03,-0.07,1.17,1.34,0.43,-0.61,889.19,21.51,
5395094,-0.01,-0.07,1.21,1.34,-0.18,-0.43,889.2,21.52,
5395132,-0.04,-0.07,1.24,1.4,0.49,-0.61,889.25,21.52,
5395170,-0.02,-0.08,1.25,1.34,1.34,-0.73,889.28,21.52,
5395220,-0.02,-0.07,1.34,1.83,1.16,-0.79,889.2,21.5,
5395259,-0.07,-0.09,1.32,2.08,2.14,-0.67,889.21,21.51,
5395297,-0.04,-0.05,1.36,1.95,2.87,-1.04,889.25,21.53,
5395335,-0.01,-0.07,1.4,1.95,2.87,-0.92,889.24,21.51,
5395373,-0.02,-0.09,1.31,2.08,2.44,-1.1,889.23,21.52,
5395412,-0.06,-0.07,1.33,2.32,3.66,-1.04,889.19,21.52,
5395450,-0.0,-0.09,1.25,2.56,4.09,-0.92,889.22,21.53,
5395488,-0.03,-0.07,1.22,2.75,2.99,-1.1,889.23,21.52,
5395527,-0.05,-0.08,1.11,2.81,4.33,-0.79,889.26,21.52,
5395565,-0.04,-0.1,1.01,2.56,4.33,-0.85,889.22,21.52,
5395615,-0.06,-0.09,0.97,3.05,4.27,-0.98,889.13,21.5,
5395653,-0.04,-0.09,0.92,3.36,4.33,-0.85,889.14,21.51,
5395691,-0.02,-0.08,0.86,3.23,4.7,-0.73,889.17,21.52,
5395729,-0.06,-0.06,0.84,3.05,3.48,-0.67,889.14,21.52,
5395768,-0.07,-0.09,0.85,2.81,4.03,-0.61,889.12,21.51,
5395806,-0.03,-0.1,0.93,1.77,4.64,-0.73,889.14,21.52,
5395844,-0.02,-0.08,1.13,1.77,3.36,-0.37,889.05,21.5,
5395882,-0.02,-0.09,1.15,1.16,3.17,-0.12,889.08,21.52,
5395921,-0.06,-0.08,1.19,1.16,1.83,-0.24,889.15,21.52,
5395971,-0.03,-0.11,1.2,1.22,2.69,0.0,889.15,21.5,
5396009,-0.02,-0.09,1.22,1.46,0.67,-0.24,889.12,21.51,
5396047,-0.06,-0.07,1.17,1.28,1.28,-0.06,889.1,21.52,
5396086,-0.06,-0.07,1.17,1.1,1.53,0.12,889.15,21.51,
5396124,-0.05,-0.09,1.12,0.67,2.26,0.06,889.11,21.52,
5396162,-0.05,-0.09,1.11,0.73,1.28,0.12,889.16,21.52,
5396201,-0.04,-0.1,1.12,0.49,2.44,0.31,889.15,21.51,
5396239,-0.02,-0.08,1.07,0.06,2.56,0.06,889.09,21.51,
5396277,-0.04,-0.08,1.09,0.49,2.93,0.18,889.12,21.5,
5396315,-0.04,-0.1,1.0,0.06,4.15,0.31,889.11,21.52,
5396391,-0.04,-0.09,0.98,-0.79,3.42,0.12,889.1,21.49,
5396430,-0.04,-0.09,1.01,-1.04,3.72,0.37,889.07,21.51,
5396468,-0.02,-0.08,0.99,-1.95,3.54,0.24,889.08,21.5,
5396636,-0.02,-0.08,1.1,-2.32,2.44,0.49,889.03,21.44,
5396674,-0.03,-0.09,1.15,-2.01,2.2,0.31,889.06,21.45,
5396712,-0.03,-0.08,1.17,-2.26,2.14,0.37,889.04,21.47,
5396751,-0.01,-0.08,1.2,-1.95,2.01,0.37,889.03,21.45,
5396789,-0.04,-0.08,1.17,-2.38,2.56,0.43,889.01,21.48,
5396827,-0.04,-0.08,1.17,-2.01,2.32,0.43,889.05,21.48,
5396877,-0.03,-0.09,1.17,-1.89,2.69,0.24,888.96,21.46,
5396916,-0.02,-0.08,1.17,-1.89,2.69,0.37,889.03,21.49,
5396954,-0.03,-0.08,1.18,-1.53,2.38,0.55,889.02,21.48,
5396992,-0.03,-0.08,1.16,-1.59,2.56,0.43,888.97,21.48,
5397031,-0.04,-0.09,1.18,-1.46,2.08,0.55,888.98,21.49,
5397069,-0.05,-0.08,1.19,-1.22,2.81,0.43,888.92,21.5,
5397107,-0.04,-0.08,1.18,-1.4,2.32,0.55,888.94,21.49,
5397145,-0.04,-0.08,1.19,-1.65,2.14,0.55,888.92,21.49,
5397184,-0.05,-0.08,1.19,-1.46,2.01,0.79,888.93,21.49,
5397222,-0.04,-0.07,1.23,-1.77,1.83,0.79,888.93,21.5,
5397272,-0.05,-0.07,1.26,-1.22,1.46,0.98,888.9,21.48,
5397310,-0.05,-0.07,1.22,-1.1,0.92,1.04,888.94,21.49,
5397349,-0.05,-0.07,1.24,-0.55,0.85,0.92,888.89,21.49,
5397387,-0.04,-0.07,1.24,-0.37,1.04,1.22,888.86,21.5,
5397425,-0.05,-0.08,1.21,0.31,0.43,1.59,888.85,21.5,
5397463,-0.04,-0.08,1.21,0.31,0.31,1.53,888.82,21.5,
5397502,-0.03,-0.07,1.19,0.37,0.43,1.4,888.84,21.5,
5397540,-0.04,-0.08,1.17,0.24,0.73,1.46,888.86,21.51,
5397578,-0.03,-0.08,1.14,0.18,0.73,1.53,888.85,21.5,
5397617,-0.04,-0.07,1.11,-0.18,0.49,1.46,888.86,21.51,
5397667,-0.05,-0.08,1.12,-0.24,0.79,1.83,888.82,21.5,
5397705,-0.03,-0.07,1.13,-0.49,0.31,1.71,888.81,21.51,
5397743,-0.03,-0.07,1.14,-0.49,0.12,1.77,888.82,21.52,
5397781,-0.04,-0.07,1.11,-0.37,0.18,1.95,888.8,21.52,
5397820,-0.03,-0.07,1.13,0.0,0.43,1.95,888.78,21.51,
5397858,-0.04,-0.08,1.06,0.31,0.37,2.14,888.71,21.5,
5397896,-0.05,-0.07,1.05,0.67,-0.37,2.2,888.7,21.52,
5397935,-0.04,-0.09,1.01,0.67,-0.37,2.26,888.69,21.51,
5397973,-0.03,-0.07,1.02,0.73,-0.06,2.2,888.72,21.52,
5398023,-0.04,-0.07,0.99,0.92,0.61,2.5,888.65,21.51,
5398061,-0.05,-0.07,0.98,1.1,0.37,2.56,888.65,21.52,
5398099,-0.06,-0.08,0.98,1.22,1.65,2.56,888.67,21.52,
5398138,-0.05,-0.07,1.0,1.4,1.59,2.69,888.6,21.5,
5398176,-0.06,-0.07,1.02,1.77,2.14,3.05,888.54,21.51,
5398214,-0.02,-0.07,0.99,1.53,2.87,2.99,888.66,21.52,
5398253,-0.04,-0.06,1.04,1.83,2.32,3.3,888.57,21.52,
5398291,-0.03,-0.08,0.97,1.46,3.3,3.48,888.52,21.52,
5398329,-0.04,-0.07,1.01,1.53,2.5,3.48,888.57,21.53,
5398368,-0.03,-0.07,0.99,0.92,2.56,3.72,888.49,21.52,
5398418,-0.02,-0.07,1.0,0.43,1.28,3.66,888.52,21.5,
5398456,-0.02,-0.07,1.0,-0.43,1.65,3.91,888.48,21.51,
5398494,-0.02,-0.07,1.03,-0.61,1.34,4.09,888.51,21.5,
5398532,-0.03,-0.07,1.06,-0.73,1.1,4.03,888.51,21.51,
5398571,-0.02,-0.07,1.11,-0.61,0.92,4.09,888.49,21.51,
5398609,-0.02,-0.06,1.14,-0.37,1.22,4.09,888.51,21.5,
5398647,-0.01,-0.06,1.16,0.18,0.61,4.21,888.5,21.51,
5398686,-0.02,-0.07,1.14,0.31,0.92,4.09,888.46,21.5,
5398724,-0.03,-0.06,1.14,1.16,1.71,4.09,888.45,21.51,
5398774,-0.02,-0.06,1.17,1.65,2.81,4.27,888.41,21.5,
5398812,-0.02,-0.07,1.15,1.65,3.23,4.21,888.36,21.5,
5398851,-0.02,-0.06,1.17,2.01,4.09,3.91,888.39,21.49,
5398889,-0.01,-0.08,1.14,2.26,5.07,4.15,888.36,21.5,
5398927,0.0,-0.07,1.1,2.44,4.64,4.03,888.32,21.51,
5398965,-0.01,-0.07,1.08,2.38,4.64,4.09,888.36,21.5,
5399004,-0.02,-0.07,1.02,1.95,5.07,4.15,888.2,21.49,
5399042,-0.01,-0.07,1.01,1.77,5.13,4.09,888.27,21.49,
5399080,-0.0,-0.07,1.01,1.46,4.82,4.09,888.25,21.5,
5399118,-0.01,-0.07,1.0,1.1,4.64,4.09,888.19,21.5,
5399168,-0.01,-0.07,1.03,1.04,5.0,3.91,888.2,21.49,
5399207,0.01,-0.08,1.03,0.98,5.19,4.09,888.18,21.5,
5399245,-0.01,-0.07,1.03,1.34,4.52,4.21,888.21,21.5,
5399283,-0.01,-0.07,1.0,1.46,4.88,4.09,888.16,21.49,
5399321,-0.0,-0.07,1.01,1.65,5.0,3.91,888.13,21.5,
5399360,0.01,-0.07,1.03,1.59,4.82,4.03,888.16,21.5,
5399398,-0.01,-0.07,1.02,2.01,4.46,3.97,888.14,21.5,
5399436,-0.01,-0.07,1.03,2.38,4.94,3.91,888.09,21.5,
5399475,0.01,-0.07,1.04,2.69,4.94,3.78,888.08,21.5,
5399513,0.0,-0.07,1.02,2.81,5.13,3.91,888.13,21.51,
5399589,0.01,-0.07,0.97,3.36,5.68,3.6,888.01,21.48,
5399627,0.01,-0.07,0.94,3.42,5.49,3.6,888.06,21.5,
5399665,0.0,-0.07,0.92,3.78,4.82,3.66,887.99,21.48,
5399756,0.0,-0.07,0.88,3.97,3.78,3.42,887.96,21.47,
5399794,0.01,-0.07,0.84,3.78,3.05,3.36,887.94,21.47,
5399832,0.02,-0.07,0.86,3.78,2.56,2.99,887.89,21.47,
5399871,0.01,-0.08,0.85,3.48,2.5,3.17,887.94,21.48,
5399909,0.01,-0.07,0.87,3.23,1.77,2.87,887.92,21.49,
5399947,0.02,-0.07,0.88,3.17,1.34,2.75,887.9,21.5,
5399985,0.01,-0.07,0.87,3.23,1.34,2.75,887.85,21.49,
5400035,0.02,-0.07,0.88,3.17,1.22,2.38,887.85,21.48,
5400074,0.01,-0.07,0.87,3.11,0.98,2.32,887.88,21.5,
5400112,0.0,-0.07,0.89,3.3,0.67,2.14,887.84,21.49,
5400150,0.02,-0.07,0.87,3.11,0.67,1.95,887.82,21.5,
5400188,0.0,-0.07,0.85,3.48,0.43,1.83,887.81,21.5,
5400227,0.01,-0.07,0.85,3.6,0.73,1.59,887.74,21.49,
5400265,0.0,-0.07,0.82,3.6,0.85,1.59,887.68,21.49,
5400303,0.01,-0.06,0.85,3.85,1.04,1.16,887.7,21.5,
5400341,0.0,-0.08,0.81,3.72,1.71,1.1,887.76,21.51,
5400391,0.0,-0.07,0.85,4.03,1.4,1.04,887.71,21.48,
5400430,-0.0,-0.08,0.82,3.91,1.95,0.67,887.74,21.49,
5400468,-0.01,-0.07,0.83,4.15,2.08,0.79,887.71,21.49,
5400506,-0.0,-0.07,0.8,4.03,3.3,0.67,887.65,21.5,
5400545,0.0,-0.07,0.77,4.15,3.66,0.61,887.68,21.49,
5400583,-0.01,-0.07,0.77,4.15,4.33,0.43,887.64,21.49,
5400621,-0.0,-0.06,0.79,4.15,4.82,0.43,887.62,21.5,
5400659,0.0,-0.07,0.77,4.03,5.8,0.24,887.54,21.49,
5400698,0.0,-0.07,0.77,3.85,5.43,0.37,887.59,21.52,
5400736,0.0,-0.07,0.8,3.85,5.0,0.31,887.59,21.49,
5400786,-0.0,-0.07,0.76,3.54,5.07,0.31,887.61,21.49,
5400824,0.0,-0.07,0.77,3.36,5.07,0.12,887.56,21.49,
5400863,0.01,-0.07,0.75,2.87,4.76,0.18,887.55,21.5,
5400901,-0.01,-0.07,0.8,2.87,3.48,0.06,887.49,21.5,
5400939,0.0,-0.08,0.78,2.56,4.33,0.12,887.51,21.5,
5400977,0.01,-0.06,0.81,2.01,3.05,0.0,887.49,21.5,
5401015,-0.0,-0.06,0.83,2.14,2.93,-0.24,887.5,21.5,
5401054,-0.01,-0.07,0.81,1.65,3.17,-0.18,887.52,21.5,
5401092,-0.0,-0.06,0.84,1.83,2.75,-0.31,887.52,21.51,
5401130,-0.0,-0.06,0.83,1.71,3.05,-0.31,887.49,21.51,
5401180,-0.01,-0.06,0.87,1.89,2.93,-0.49,887.46,21.5,
5401218,-0.0,-0.07,0.89,1.77,2.87,-0.49,887.46,21.5,
5401257,-0.01,-0.06,0.91,2.14,2.5,-0.37,887.47,21.51,
5401295,-0.01,-0.06,0.89,2.38,2.99,-0.61,887.46,21.5,
5401333,0.0,-0.06,0.91,2.38,2.32,-0.79,887.48,21.5,
5401371,-0.01,-0.06,0.91,2.62,2.14,-0.73,887.45,21.5,
5401410,-0.01,-0.07,0.88,2.99,2.08,-0.79,887.51,21.5,
5401448,-0.01,-0.06,0.89,3.17,2.26,-0.85,887.48,21.5,
5401486,-0.02,-0.06,0.86,3.3,2.62,-0.85,887.42,21.51,
5401536,-0.02,-0.06,0.85,3.66,2.56,-0.98,887.39,21.49,
5401575,-0.02,-0.07,0.84,3.78,2.69,-0.98,887.4,21.5,
5401613,-0.01,-0.06,0.85,3.78,2.26,-0.92,887.37,21.49,
5401651,-0.02,-0.06,0.85,3.6,2.5,-0.85,887.39,21.5,
5401690,-0.02,-0.06,0.83,3.54,3.11,-0.92,887.39,21.5,
5401728,-0.02,-0.06,0.83,3.66,2.69,-1.04,887.38,21.5,
5401766,-0.03,-0.06,0.85,3.78,2.81,-0.85,887.36,21.49,
5401805,-0.02,-0.07,0.82,3.6,3.23,-0.73,887.33,21.51,
5401843,-0.01,-0.07,0.8,3.72,3.17,-0.79,887.4,21.5,
5401881,-0.02,-0.06,0.83,3.78,3.3,-0.67,887.35,21.51,
5401931,-0.02,-0.06,0.79,3.72,4.09,-0.73,887.31,21.49,
5401970,-0.02,-0.06,0.81,3.91,4.03,-0.61,887.37,21.5,
5402008,-0.02,-0.07,0.76,3.97,5.0,-0.73,887.31,21.5,
5402046,-0.02,-0.07,0.75,4.21,4.82,-0.67,887.34,21.52,
5402084,-0.01,-0.06,0.77,4.15,4.88,-0.73,887.28,21.5,
5402123,-0.02,-0.07,0.73,3.66,5.25,-0.61,887.35,21.5,
5402161,-0.02,-0.06,0.72,3.36,5.62,-0.61,887.29,21.51,
5402199,-0.02,-0.07,0.78,3.42,5.62,-0.67,887.25,21.5,
5402238,-0.03,-0.07,0.73,3.05,5.07,-0.79,887.27,21.52,
5402287,-0.02,-0.06,0.81,3.36,5.31,-0.67,887.23,21.5,
5402326,-0.01,-0.06,0.74,2.87,6.23,-0.85,887.32,21.5,
5402364,-0.04,-0.06,0.78,3.17,4.88,-0.61,887.27,21.5,
5402402,-0.05,-0.07,0.76,3.23,5.68,-0.43,887.25,21.5,
5402441,-0.03,-0.06,0.79,3.17,5.37,-0.31,887.26,21.51,
5402479,-0.05,-0.07,0.8,3.48,4.94,-0.49,887.25,21.51,
5402517,-0.04,-0.07,0.79,3.11,5.0,-0.37,887.31,21.5,
5402555,-0.03,-0.06,0.83,3.36,4.82,-0.43,887.28,21.51,
5402594,-0.03,-0.06,0.82,3.05,5.13,0.0,887.31,21.52,
5402632,-0.05,-0.07,0.82,3.17,4.88,0.12,887.28,21.51,
5402708,-0.04,-0.06,0.86,3.17,5.0,0.0,887.26,21.48,
5402746,-0.03,-0.06,0.84,3.05,4.82,0.06,887.24,21.48,
5402785,-0.04,-0.06,0.87,3.17,4.09,0.12,887.27,21.48,
5402875,-0.04,-0.06,0.88,3.48,3.66,0.37,887.3,21.46,
5402913,-0.05,-0.07,0.85,3.05,3.48,0.24,887.23,21.45,
5402951,-0.05,-0.06,0.86,3.23,2.93,0.37,887.32,21.47,
5402989,-0.04,-0.06,0.86,2.93,3.3,0.49,887.29,21.47,
5403028,-0.04,-0.06,0.88,2.99,2.5,0.55,887.33,21.47,
5403066,-0.04,-0.06,0.89,2.99,2.38,0.67,887.23,21.46,
5403116,-0.04,-0.06,0.87,3.05,2.2,0.73,887.33,21.46,
5403154,-0.02,-0.06,0.89,3.11,2.38,0.67,887.32,21.47,
5403192,-0.03,-0.06,0.86,3.17,1.83,0.85,887.27,21.48,
5403231,-0.04,-0.06,0.86,3.17,1.34,0.79,887.3,21.5,
5403269,-0.03,-0.06,0.84,3.05,1.53,0.85,887.32,21.48,
5403307,-0.03,-0.06,0.86,2.99,1.22,0.92,887.28,21.49,
5403346,-0.03,-0.07,0.83,2.38,1.16,0.85,887.32,21.49,
5403384,-0.03,-0.06,0.86,2.5,0.49,0.79,887.29,21.5,
5403422,-0.03,-0.07,0.87,2.38,0.49,0.85,887.28,21.49,
5403460,-0.02,-0.07,0.88,2.08,0.0,0.73,887.35,21.52,
5403510,-0.03,-0.05,0.9,2.14,-0.18,0.73,887.35,21.49,
5403549,-0.03,-0.07,0.89,1.89,0.0,0.79,887.37,21.5,
5403587,-0.03,-0.06,0.93,1.83,-0.18,0.85,887.37,21.5,
5403625,-0.02,-0.06,0.94,1.59,-0.24,0.61,887.34,21.49,
5403664,-0.03,-0.06,0.96,1.53,0.12,0.67,887.3,21.5,
5403702,-0.02,-0.06,1.0,1.46,0.55,0.55,887.34,21.48,
5403740,-0.03,-0.05,1.02,1.34,0.43,0.67,887.36,21.49,
5403778,-0.03,-0.06,1.06,1.34,0.49,0.49,887.34,21.5,
5403816,-0.04,-0.06,1.07,1.4,1.16,0.49,887.38,21.5,
5403855,-0.04,-0.05,1.09,1.28,1.89,0.43,887.36,21.49,
5403905,-0.03,-0.05,1.09,1.16,2.87,0.49,887.36,21.49,
5403943,-0.04,-0.05,1.1,1.28,2.75,0.49,887.38,21.49,
5403981,-0.04,-0.06,1.09,1.46,3.78,0.55,887.42,21.49,
5404019,-0.04,-0.05,1.09,1.65,4.09,0.55,887.45,21.49,
5404058,-0.04,-0.05,1.08,2.2,4.15,0.67,887.46,21.49,
5404096,-0.04,-0.05,1.05,2.2,4.21,0.79,887.46,21.5,
5404134,-0.03,-0.05,1.06,2.26,3.72,0.92,887.41,21.5,
5404173,-0.04,-0.06,1.04,2.26,4.03,0.92,887.36,21.49,
5404211,-0.02,-0.06,1.04,2.26,3.23,0.79,887.43,21.48,
5404261,-0.03,-0.06,1.01,2.08,3.48,1.1,887.42,21.48,
5404299,-0.04,-0.05,1.02,2.08,2.56,0.98,887.42,21.5,
5404337,-0.04,-0.06,1.04,2.08,2.44,1.34,887.39,21.5,
5404376,-0.05,-0.07,1.01,2.08,1.83,1.28,887.47,21.51,
5404414,-0.03,-0.06,1.03,2.08,0.98,1.28,887.4,21.49,
5404452,-0.05,-0.06,1.02,1.89,0.92,1.4,887.34,21.51,
5404490,-0.05,-0.06,1.01,2.2,0.49,1.4,887.34,21.51,
5404529,-0.05,-0.06,1.03,1.95,1.1,1.34,887.38,21.49,
5404567,-0.05,-0.05,1.04,1.95,1.59,1.22,887.39,21.51,
5404605,-0.05,-0.06,1.05,1.71,1.71,1.71,887.37,21.5,
5404655,-0.06,-0.06,1.06,1.53,2.32,1.59,887.35,21.49,
5404693,-0.06,-0.06,1.07,1.59,2.81,1.77,887.43,21.51,
5404731,-0.05,-0.06,1.05,1.34,2.62,1.95,887.42,21.51,
5404770,-0.06,-0.06,1.06,1.46,2.5,2.01,887.38,21.51,
5404808,-0.05,-0.06,1.04,1.46,2.81,2.2,887.47,21.51,
5404846,-0.05,-0.06,1.06,1.34,2.69,2.14,887.4,21.51,
5404884,-0.05,-0.06,1.05,1.46,2.87,2.44,887.44,21.51,
5404923,-0.05,-0.07,1.03,1.46,2.62,2.5,887.47,21.52,
5404961,-0.05,-0.06,1.03,1.46,2.56,2.5,887.48,21.51,
5404999,-0.04,-0.06,1.01,1.71,2.32,2.75,887.48,21.51,
5405049,-0.06,-0.06,0.98,1.59,2.44,2.99,887.43,21.5,
5405087,-0.04,-0.06,0.99,1.4,2.2,2.93,887.4,21.5,
5405126,-0.03,-0.06,1.01,1.04,2.32,3.05,887.5,21.5,
5405164,-0.04,-0.07,0.98,1.22,2.44,3.05,887.52,21.51,
5405202,-0.04,-0.07,1.0,0.85,2.56,2.87,887.48,21.51,
5405240,-0.04,-0.07,1.02,0.67,2.99,3.11,887.51,21.52,
5405279,-0.04,-0.07,1.02,0.49,2.69,3.05,887.58,21.51,
5405317,-0.04,-0.06,1.04,0.49,2.5,3.11,887.49,21.5,
5405355,-0.04,-0.06,1.05,0.49,2.87,3.05,887.5,21.51,
5405405,-0.03,-0.06,1.05,0.49,2.81,3.23,887.54,21.5,
5405444,-0.03,-0.06,1.06,0.61,2.87,3.05,887.52,21.5,
5405482,-0.03,-0.06,1.06,0.92,2.99,3.23,887.54,21.51,
5405520,-0.03,-0.07,1.04,0.98,2.93,3.23,887.55,21.51,
5405558,-0.03,-0.06,1.03,1.04,2.87,3.23,887.59,21.52,
5405597,-0.03,-0.07,1.03,1.4,2.75,3.17,887.57,21.52,
5405635,-0.03,-0.07,0.98,1.28,2.69,3.11,887.56,21.52,
5405673,-0.02,-0.06,0.99,1.34,2.26,3.17,887.56,21.52,
5405712,-0.03,-0.07,0.97,1.28,2.2,3.11,887.55,21.52,
5405750,-0.02,-0.07,0.96,1.16,1.59,3.17,887.55,21.51,
5405826,-0.04,-0.07,0.94,0.92,1.83,3.23,887.55,21.48,
5405864,-0.02,-0.07,0.95,1.04,1.4,3.11,887.61,21.5,
5405902,-0.03,-0.06,0.96,1.22,1.46,3.05,887.57,21.49,
5405992,-0.03,-0.07,0.96,1.53,1.34,3.17,887.57,21.47,
5406031,-0.03,-0.07,0.98,1.77,1.53,3.05,887.64,21.49,
5406069,-0.03,-0.07,0.98,1.71,1.34,3.17,887.6,21.49,
5406107,-0.02,-0.08,0.96,1.59,2.01,3.11,887.54,21.49,
5406146,-0.01,-0.07,0.94,1.4,1.59,2.99,887.61,21.5,
5406184,-0.02,-0.06,0.97,1.34,1.16,2.93,887.56,21.49,
5406222,-0.02,-0.07,0.94,0.85,1.1,2.99,887.59,21.49,
5406272,-0.02,-0.07,1.01,0.18,0.79,2.87,887.59,21.48,
5406310,-0.02,-0.07,1.01,-0.12,1.16,3.05,887.62,21.5,
5406349,-0.02,-0.06,1.05,-0.49,0.85,2.81,887.64,21.5,
5406387,-0.01,-0.07,1.06,-0.85,1.46,2.75,887.64,21.51,
5406425,-0.01,-0.06,1.08,-0.92,1.16,2.69,887.62,21.51,
5406464,-0.01,-0.06,1.08,-1.1,1.4,2.56,887.66,21.49,
5406502,-0.02,-0.07,1.09,-1.16,1.34,2.5,887.63,21.5,
5406540,-0.02,-0.07,1.09,-1.34,1.46,2.26,887.63,21.5,
5406578,-0.01,-0.06,1.12,-1.34,1.28,2.2,887.64,21.5,
5406628,-0.02,-0.06,1.13,-1.4,1.53,2.08,887.61,21.48,
5406667,-0.02,-0.06,1.15,-1.4,1.65,2.01,887.66,21.49,
5406705,-0.02,-0.06,1.19,-1.53,1.65,1.89,887.62,21.5,
5406743,-0.02,-0.06,1.2,-1.46,2.08,1.83,887.62,21.5,
5406782,-0.02,-0.06,1.23,-1.34,2.44,1.71,887.62,21.5,
5406820,-0.02,-0.06,1.24,-1.34,2.69,1.65,887.62,21.5,
5406858,-0.03,-0.06,1.25,-1.04,2.44,1.59,887.62,21.51,
5406897,-0.03,-0.05,1.24,-0.61,2.56,1.65,887.62,21.5,
5406935,-0.03,-0.05,1.27,-0.06,2.81,1.59,887.64,21.5,
5406973,-0.03,-0.05,1.27,0.37,2.87,1.53,887.65,21.51,
5407023,-0.02,-0.06,1.27,1.04,3.3,1.65,887.68,21.5,
5407062,-0.02,-0.05,1.28,1.46,3.11,1.59,887.56,21.5,
5407100,-0.02,-0.04,1.29,1.71,3.6,1.53,887.6,21.51,
5407138,-0.02,-0.05,1.23,1.89,3.85,1.4,887.59,21.5,
5407176,-0.02,-0.04,1.23,2.44,3.97,1.34,887.62,21.5,
5407215,-0.02,-0.05,1.22,2.99,4.76,1.59,887.57,21.51,
5407253,-0.01,-0.05,1.21,3.17,4.15,1.28,887.63,21.51,
5407291,-0.02,-0.05,1.25,3.72,4.21,1.4,887.59,21.5,
5407329,-0.04,-0.06,1.17,3.78,3.97,1.34,887.6,21.49,
5407380,-0.02,-0.05,1.22,3.97,4.33,1.34,887.57,21.49,
5407418,-0.02,-0.05,1.18,3.78,3.66,1.4,887.59,21.51,
5407456,-0.01,-0.05,1.2,4.15,3.48,1.46,887.57,21.5,
5407494,-0.0,-0.06,1.15,3.66,4.58,1.4,887.59,21.5,
5407533,-0.0,-0.05,1.18,3.3,4.21,1.22,887.52,21.49,
5407571,-0.01,-0.05,1.16,2.93,3.97,1.22,887.55,21.5,
5407609,-0.03,-0.04,1.2,2.99,3.23,1.34,887.51,21.49,
5407648,0.01,-0.07,1.2,3.23,3.85,1.28,887.48,21.49,
5407686,-0.02,-0.07,1.18,3.23,1.46,1.1,887.54,21.5,
5407724,-0.02,-0.05,1.21,3.17,1.83,1.22,887.53,21.49,
5407774,-0.0,-0.05,1.13,2.69,1.95,0.98,887.55,21.49,
5407812,-0.02,-0.05,1.12,2.62,1.4,0.92,887.52,21.5,
5407851,-0.01,-0.07,1.07,2.32,1.1,1.1,887.5,21.49,
5407889,-0.04,-0.07,1.01,2.26,1.28,0.92,887.54,21.5,
5407927,-0.01,-0.06,1.03,2.32,0.98,0.79,887.52,21.51,
5407966,-0.02,-0.06,1.03,2.26,0.61,0.98,887.44,21.5,
5408004,-0.02,-0.07,1.02,2.08,0.0,1.22,887.46,21.49,
5408042,-0.02,-0.08,1.0,2.01,0.55,0.98,887.44,21.49,
5408080,-0.03,-0.06,1.0,1.53,0.18,0.98,887.46,21.49,
5408118,-0.01,-0.05,1.03,1.95,-0.06,0.92,887.49,21.5,
5408168,-0.01,-0.08,0.98,1.95,0.55,0.79,887.43,21.48,
5408207,-0.01,-0.07,0.96,2.01,0.43,1.16,887.44,21.5,
5408245,-0.01,-0.06,0.95,1.89,0.24,0.92,887.42,21.49,
5408283,-0.02,-0.07,0.98,1.95,0.55,0.92,887.4,21.49,
5408321,-0.0,-0.07,0.99,1.65,0.49,0.85,887.39,21.49,
5408360,-0.03,-0.07,1.02,2.32,-0.31,0.98,887.4,21.5,
5408398,-0.02,-0.07,0.96,1.59,0.61,0.79,887.4,21.49,
5408436,-0.02,-0.06,0.98,1.89,0.85,0.79,887.4,21.49,
5408474,-0.02,-0.07,0.96,1.95,2.01,0.92,887.36,21.49,
5408524,-0.02,-0.07,0.95,2.32,1.65,0.92,887.36,21.49,
5408563,-0.02,-0.07,0.97,2.2,2.26,0.73,887.4,21.5,
5408601,-0.02,-0.07,0.96,2.32,2.08,0.85,887.36,21.49,
5408639,-0.03,-0.08,0.91,2.14,2.62,0.85,887.34,21.49,
5408677,-0.01,-0.07,0.94,2.56,2.26,0.73,887.36,21.49,
5408716,-0.02,-0.08,0.87,2.38,2.81,0.67,887.39,21.49,
5408754,-0.02,-0.07,0.85,2.32,2.5,0.92,887.37,21.51,
5408792,-0.03,-0.07,0.82,2.56,4.03,0.67,887.32,21.49,
5408830,-0.01,-0.07,0.82,2.44,4.03,0.55,887.28,21.51,
5408869,-0.02,-0.08,0.85,2.81,3.85,0.55,887.3,21.52,
5408945,-0.01,-0.07,0.81,2.32,4.82,0.61,887.27,21.47,
5408983,-0.02,-0.07,0.82,2.08,4.76,0.67,887.25,21.49,
5409021,-0.01,-0.07,0.86,2.08,4.76,0.61,887.27,21.5,
5409111,-0.03,-0.07,0.85,1.95,4.88,0.79,887.24,21.46,
5409150,-0.02,-0.07,0.86,1.53,4.88,0.73,887.14,21.48,
5409188,-0.02,-0.07,0.87,1.4,4.58,0.61,887.24,21.48,
5409226,-0.02,-0.06,0.9,1.1,4.88,0.67,887.23,21.49,
5409264,-0.01,-0.08,0.88,1.1,5.19,0.67,887.19,21.5,
5409303,-0.02,-0.07,0.89,0.79,3.6,0.61,887.19,21.49,
5409341,-0.04,-0.06,0.94,1.16,3.6,0.73,887.11,21.48,
5409391,-0.01,-0.07,0.94,0.37,4.09,0.73,887.17,21.49,
5409429,0.01,-0.06,1.08,0.31,3.23,0.49,887.1,21.48,
5409468,-0.03,-0.07,1.08,-0.37,4.09,0.73,887.18,21.51,
5409506,-0.02,-0.06,1.15,-0.43,3.78,1.04,887.15,21.5,
5409544,-0.01,-0.07,1.13,-0.37,4.88,0.85,887.17,21.5,
5409582,-0.03,-0.07,1.11,-0.06,4.27,0.92,887.21,21.5,
5409621,-0.03,-0.07,1.08,0.24,5.31,0.98,887.18,21.5,
5409659,-0.01,-0.07,1.05,0.24,4.88,0.98,887.18,21.5,
5409697,-0.0,-0.06,1.07,0.79,4.09,0.92,887.15,21.51,
5409747,-0.02,-0.07,1.0,0.55,3.36,1.1,887.15,21.5,
5409785,-0.03,-0.07,1.06,1.04,2.99,1.04,887.14,21.5,
5409824,-0.02,-0.08,0.98,0.43,3.42,0.98,887.13,21.5,
5409862,-0.03,-0.07,1.0,0.55,2.44,0.92,887.1,21.5,
5409900,-0.01,-0.07,0.98,-0.18,3.05,1.04,887.08,21.51,
5409939,-0.01,-0.08,0.92,-0.73,3.48,0.98,887.11,21.51,
5409977,-0.01,-0.06,0.97,-0.98,2.93,1.04,887.15,21.51,
5410015,-0.01,-0.08,0.93,-1.04,2.69,1.04,887.07,21.51,
5410054,-0.02,-0.08,0.98,-1.16,2.08,0.85,887.07,21.5,
5410092,-0.02,-0.08,0.99,-1.22,2.2,0.85,887.12,21.52,
5410142,-0.02,-0.07,1.01,-1.04,1.53,0.85,887.05,21.5,
5410180,-0.02,-0.08,1.01,-1.28,2.44,0.85,887.07,21.51,
5410218,-0.01,-0.07,1.04,-0.98,2.26,0.73,887.09,21.5,
5410257,-0.03,-0.07,1.06,-0.85,2.14,1.1,887.07,21.5,
5410295,-0.03,-0.08,1.01,-0.98,2.44,0.73,887.04,21.51,
5410333,-0.02,-0.07,1.05,-0.79,2.01,0.92,887.12,21.5,
5410372,-0.02,-0.07,1.03,-0.85,2.62,0.79,887.03,21.5,
5410410,-0.03,-0.06,1.02,-0.79,2.32,0.92,887.0,21.51,
5410448,-0.02,-0.06,1.05,-0.61,2.14,0.92,887.03,21.5,
5410498,-0.03,-0.07,1.03,-1.04,2.26,0.79,887.02,21.5,
5410537,-0.03,-0.07,1.07,-1.1,2.26,1.1,887.04,21.51,
5410575,-0.01,-0.07,1.05,-1.22,2.26,1.04,886.99,21.51,
5410613,-0.02,-0.06,1.08,-1.28,2.08,0.79,886.99,21.5,
5410652,-0.02,-0.07,1.05,-1.46,2.75,0.85,887.0,21.5,
5410690,-0.02,-0.07,1.07,-1.34,2.62,0.85,886.94,21.5,
5410728,-0.02,-0.06,1.07,-1.46,3.11,0.79,886.96,21.5,
5410766,-0.04,-0.07,1.08,-1.4,3.23,0.85,886.95,21.51,
5410805,-0.02,-0.07,1.11,-1.22,3.78,0.67,886.99,21.52,
5410843,-0.03,-0.07,1.13,-1.04,3.72,0.61,886.99,21.52,
5410893,-0.02,-0.05,1.16,-0.49,3.36,0.85,886.94,21.49,
5410932,-0.03,-0.06,1.15,-0.31,3.48,0.85,886.97,21.5,
5410970,-0.02,-0.06,1.19,0.0,2.75,0.73,886.85,21.5,
5411008,-0.03,-0.06,1.18,0.37,3.11,0.79,886.94,21.49,
5411046,-0.02,-0.05,1.19,0.85,2.2,0.73,886.9,21.49,
5411085,-0.03,-0.05,1.17,1.28,2.01,0.73,886.92,21.52,
5411123,-0.03,-0.06,1.15,1.34,1.71,0.79,886.88,21.49,
5411161,-0.02,-0.06,1.14,1.95,1.83,0.73,886.87,21.5,
5411200,-0.03,-0.06,1.09,1.95,2.01,0.67,886.9,21.5,
5411249,-0.03,-0.06,1.08,2.38,2.08,0.79,886.91,21.5,
5411288,-0.03,-0.06,1.04,2.32,2.56,0.79,886.86,21.5,
5411326,-0.03,-0.07,1.05,2.75,2.14,0.92,886.81,21.5,
5411364,-0.02,-0.07,1.01,2.5,2.93,0.85,886.85,21.5,
5411402,-0.03,-0.06,0.99,2.62,3.23,0.85,886.84,21.49,
5411441,-0.04,-0.06,0.99,2.75,3.85,0.92,886.83,21.5,
5411479,-0.04,-0.07,0.98,2.56,4.46,0.92,886.78,21.49,
5411517,-0.04,-0.06,1.05,2.81,4.58,0.79,886.79,21.5,
5411556,-0.03,-0.06,1.05,2.38,6.04,0.98,886.73,21.49,
5411594,-0.03,-0.06,1.08,2.32,5.98,0.79,886.78,21.49,
5411644,-0.03,-0.06,1.06,2.01,6.47,0.85,886.73,21.49,
5411682,-0.04,-0.05,1.08,1.83,5.8,0.92,886.72,21.49,
5411720,-0.01,-0.06,1.1,1.71,5.0,0.98,886.73,21.5,
5411759,-0.02,-0.06,1.07,1.77,3.85,1.16,886.74,21.49,
5411797,-0.03,-0.06,1.07,1.65,3.48,1.34,886.71,21.49,
5411835,-0.02,-0.07,1.06,1.89,3.11,1.53,886.69,21.5,
5411873,-0.02,-0.05,1.03,1.83,2.01,1.4,886.67,21.5,
5411912,-0.03,-0.06,1.02,2.26,1.77,1.53,886.72,21.5,
5411950,-0.05,-0.07,0.96,2.26,2.26,1.59,886.68,21.5,
5411988,-0.03,-0.06,0.97,2.26,2.01,1.53,886.62,21.5,
5412064,-0.03,-0.06,0.97,2.08,2.81,1.59,886.62,21.48,
5412103,-0.03,-0.06,0.97,1.89,2.87,1.4,886.63,21.49,
5412141,-0.02,-0.06,0.97,1.59,2.99,1.65,886.59,21.49,
5412231,-0.03,-0.06,0.95,1.34,3.54,1.53,886.62,21.46,
5412269,-0.03,-0.06,0.96,1.4,3.48,1.65,886.58,21.46,
5412308,-0.03,-0.06,0.94,1.34,4.03,1.59,886.59,21.48,
5412346,-0.02,-0.05,0.99,1.46,3.78,1.65,886.52,21.47,
5412384,-0.03,-0.06,0.99,1.04,4.52,1.59,886.52,21.48,
5412422,-0.03,-0.06,1.02,0.98,3.66,1.59,886.5,21.49,
5412472,-0.03,-0.06,1.07,1.04,3.85,1.34,886.51,21.46,
5412511,-0.03,-0.05,1.09,1.04,3.42,1.59,886.53,21.48,
5412549,-0.0,-0.05,1.11,1.28,3.42,1.4,886.47,21.48,
5412587,-0.03,-0.05,1.07,1.46,3.11,1.46,886.47,21.48,
5412625,-0.02,-0.05,1.06,1.77,2.44,1.53,886.51,21.48,
5412664,-0.02,-0.05,1.07,2.26,2.38,1.59,886.43,21.49,
5412702,-0.02,-0.06,1.04,2.26,1.95,1.4,886.44,21.49,
5412740,-0.02,-0.06,1.05,2.75,0.92,1.28,886.44,21.5,
5412778,-0.01,-0.06,1.01,2.81,1.1,1.4,886.39,21.48,
5412817,-0.02,-0.06,0.98,2.81,0.43,1.46,886.39,21.49,
5412867,-0.03,-0.06,0.93,2.99,0.24,1.4,886.41,21.48,
5412905,-0.03,-0.06,0.92,2.93,-0.06,1.22,886.35,21.48,
5412943,-0.01,-0.06,0.91,2.81,0.37,1.1,886.38,21.49,
5412982,-0.02,-0.06,0.92,2.56,0.37,1.22,886.38,21.49,
5413020,-0.02,-0.06,0.91,2.44,0.24,1.1,886.34,21.48,
5413058,-0.03,-0.06,0.91,2.14,0.67,0.79,886.28,21.48,
5413096,-0.02,-0.06,0.91,1.95,1.04,0.98,886.3,21.49,
5413135,-0.02,-0.05,0.92,1.59,1.46,0.92,886.34,21.5,
5413173,-0.02,-0.05,0.95,1.77,1.71,0.67,886.29,21.49,
5413211,-0.02,-0.06,0.96,1.65,2.14,0.85,886.26,21.5,
5413261,-0.02,-0.05,1.0,2.01,1.89,0.67,886.28,21.49,
5413299,-0.02,-0.05,0.97,2.32,1.83,0.55,886.24,21.48,
5413338,-0.02,-0.05,1.02,2.81,1.53,0.61,886.24,21.49,
5413376,-0.03,-0.06,0.99,2.75,2.38,0.61,886.24,21.49,
5413414,-0.03,-0.04,1.03,3.48,1.77,0.67,886.28,21.5,
5413453,-0.03,-0.06,1.01,3.54,2.81,0.67,886.21,21.5,
5413491,-0.03,-0.05,0.99,3.78,2.2,0.67,886.24,21.49,
5413529,-0.04,-0.05,0.99,3.72,2.99,0.67,886.22,21.5,
5413567,-0.03,-0.06,0.97,3.72,2.62,0.61,886.2,21.49,
5413617,-0.03,-0.05,0.97,3.66,3.17,0.67,886.17,21.48,
5413656,-0.03,-0.05,0.93,3.72,3.17,0.73,886.21,21.5,
5413694,-0.02,-0.05,0.9,3.72,3.36,0.79,886.16,21.49,
5413732,-0.03,-0.05,0.88,3.48,3.48,0.79,886.14,21.5,
5413770,-0.03,-0.06,0.94,3.78,2.81,0.85,886.1,21.49,
5413809,-0.02,-0.06,0.93,3.66,3.23,0.73,886.11,21.49,
5413847,-0.03,-0.04,0.99,3.91,2.56,0.79,886.08,21.49,
5413885,-0.02,-0.05,1.0,3.48,2.81,0.92,886.09,21.5,
5413924,-0.02,-0.05,1.02,3.3,2.14,0.73,886.07,21.5,
5413962,-0.03,-0.04,1.06,2.99,2.5,0.79,886.05,21.49,
5414012,-0.03,-0.05,1.04,2.87,3.11,0.73,885.99,21.5,
5414050,-0.02,-0.04,1.07,2.75,3.23,0.61,886.07,21.5,
5414089,-0.02,-0.05,1.04,2.69,3.66,0.73,885.99,21.5,
5414127,-0.04,-0.05,1.02,2.81,3.66,0.67,886.07,21.51,
5414165,-0.04,-0.06,0.99,2.69,4.33,0.79,886.02,21.5,
5414204,-0.04,-0.05,0.99,2.99,4.03,0.85,885.99,21.5,
5414242,-0.03,-0.05,0.97,2.99,4.39,1.1,886.02,21.48,
5414280,-0.04,-0.05,0.96,3.05,4.33,0.98,885.99,21.5,
5414319,-0.02,-0.06,0.96,3.05,4.64,1.04,885.94,21.5,
5414357,-0.02,-0.06,0.92,2.81,4.58,1.1,885.92,21.49,
5414407,-0.02,-0.06,0.91,2.62,4.46,1.1,885.92,21.49,
5414445,-0.03,-0.06,0.88,2.38,4.46,1.1,885.92,21.49,
5414483,-0.0,-0.05,0.91,2.44,3.97,1.28,885.89,21.49,
5414522,-0.01,-0.07,0.89,2.2,4.03,1.28,885.89,21.49,
5414560,-0.03,-0.06,0.88,2.01,3.42,1.22,885.88,21.5,
5414598,-0.03,-0.06,0.89,1.89,3.11,1.4,885.88,21.49,
5414636,-0.03,-0.07,0.89,1.71,2.62,1.28,885.85,21.49,
5414675,-0.02,-0.06,0.91,1.77,1.28,1.46,885.87,21.5,
5414713,-0.03,-0.06,0.93,1.83,1.4,1.34,885.82,21.51,
5414763,-0.03,-0.06,0.92,2.14,1.4,1.34,885.79,21.48,
5414801,-0.03,-0.06,0.93,2.32,1.71,1.16,885.81,21.49,
5414840,-0.04,-0.07,0.88,2.44,2.32,1.34,885.84,21.5,
5414878,-0.03,-0.06,0.89,2.62,2.32,1.28,885.76,21.5,
5414916,-0.02,-0.06,0.85,2.44,2.75,1.28,885.73,21.49,
5414955,-0.03,-0.06,0.82,2.26,2.75,1.22,885.72,21.48,
5414993,-0.03,-0.06,0.82,2.2,3.23,1.16,885.77,21.48,
5415031,-0.03,-0.06,0.8,1.71,3.48,1.4,885.76,21.5,
5415070,-0.04,-0.06,0.83,1.89,3.23,1.28,885.73,21.48,
5415108,-0.03,-0.07,0.81,1.77,3.66,1.34,885.71,21.49,
5415184,-0.02,-0.07,0.77,2.26,3.54,1.46,885.68,21.47,
5415222,-0.03,-0.06,0.76,2.2,2.81,1.4,885.74,21.47,
5415260,-0.03,-0.06,0.74,2.2,2.93,1.53,885.69,21.47,
5415351,-0.03,-0.07,0.75,1.4,2.38,1.46,885.7,21.44,
5415389,-0.03,-0.07,0.74,0.92,2.08,1.46,885.68,21.45,
5415427,-0.03,-0.06,0.78,0.98,2.08,1.71,885.69,21.46,
5415466,-0.03,-0.07,0.76,0.37,2.56,1.46,885.63,21.45,
5415504,-0.01,-0.06,0.79,0.0,1.65,1.46,885.65,21.46,
5415542,-0.02,-0.06,0.8,-0.31,1.65,1.59,885.65,21.46,
5415580,-0.02,-0.06,0.79,-0.31,1.46,1.46,885.63,21.47,
5415630,-0.01,-0.06,0.82,-0.67,1.59,1.22,885.64,21.45,
5415669,-0.01,-0.06,0.85,-0.92,1.22,1.22,885.63,21.46,
5415707,-0.02,-0.06,0.85,-0.92,1.71,1.28,885.6,21.45,
5415745,-0.02,-0.06,0.89,-0.73,1.59,1.28,885.66,21.46,
5415784,-0.02,-0.06,0.91,-0.67,2.2,1.22,885.61,21.46,
5415822,-0.0,-0.05,0.91,-0.67,1.89,1.1,885.71,21.48,
5415860,-0.01,-0.05,0.94,-0.24,1.28,1.16,885.65,21.48,
5415898,-0.02,-0.05,0.95,-0.31,1.1,1.1,885.66,21.48,
5415937,-0.01,-0.05,1.01,-0.24,0.98,0.79,885.67,21.48,
5415987,-0.02,-0.05,1.05,-0.06,0.73,0.92,885.6,21.48,
5416025,-0.01,-0.05,1.09,0.0,0.67,0.92,885.62,21.48,
5416063,-0.01,-0.05,1.07,-0.49,1.89,0.55,885.65,21.48,
5416102,-0.01,-0.04,1.11,-0.18,1.65,0.61,885.62,21.49,
5416140,-0.01,-0.05,1.08,-0.43,1.89,0.55,885.66,21.49,
5416178,-0.02,-0.05,1.07,-0.79,1.46,0.43,885.66,21.48,
5416216,-0.01,-0.04,1.08,-0.98,2.01,0.31,885.61,21.47,
5416255,-0.01,-0.05,1.07,-0.92,1.89,0.24,885.59,21.5,
5416293,-0.02,-0.05,1.07,-1.1,2.2,0.24,885.61,21.49,
5416331,-0.02,-0.04,1.08,-1.22,2.14,0.24,885.6,21.49,
5416381,-0.01,-0.05,1.09,-1.59,2.62,0.18,885.59,21.48,
5416419,-0.02,-0.04,1.09,-1.59,2.38,-0.06,885.59,21.49,
5416458,-0.02,-0.04,1.11,-1.65,2.93,-0.06,885.58,21.49,
5416496,-0.02,-0.04,1.11,-1.53,3.36,-0.06,885.55,21.5,
5416534,-0.02,-0.04,1.15,-1.34,2.81,-0.12,885.55,21.49,
5416572,-0.02,-0.05,1.16,-1.04,2.99,-0.12,885.55,21.49,
5416611,-0.02,-0.04,1.14,-1.16,2.87,-0.31,885.53,21.5,
5416649,-0.02,-0.03,1.18,-0.73,3.05,-0.12,885.59,21.5,
5416687,-0.01,-0.03,1.16,-0.73,2.81,-0.06,885.5,21.49,
5416737,-0.03,-0.03,1.18,-0.31,2.69,0.0,885.48,21.49,
5416776,-0.03,-0.04,1.16,-0.18,2.93,-0.12,885.49,21.49,
5416814,-0.03,-0.03,1.2,0.12,2.5,-0.18,885.45,21.48,
5416852,-0.02,-0.04,1.17,-0.18,2.62,0.0,885.47,21.48,
5416890,-0.01,-0.03,1.17,-0.06,2.14,-0.06,885.49,21.48,
5416929,-0.02,-0.04,1.11,-0.31,1.95,0.0,885.49,21.49,
5416967,-0.03,-0.03,1.11,-0.06,1.4,0.18,885.41,21.49,
5417005,-0.02,-0.03,1.11,0.12,1.89,0.18,885.43,21.48,
5417044,-0.02,-0.03,1.11,0.49,1.1,0.18,885.44,21.48,
5417094,-0.02,-0.04,1.1,0.61,1.53,0.12,885.48,21.47,
5417132,-0.02,-0.04,1.1,1.04,1.4,0.12,885.5,21.48,
5417170,-0.01,-0.04,1.09,1.28,1.95,0.12,885.43,21.48,
5417208,-0.01,-0.03,1.06,1.46,1.77,0.12,885.4,21.47,
5417247,-0.04,-0.04,1.05,1.95,1.53,0.12,885.4,21.48,
5417285,-0.03,-0.04,1.02,1.71,1.83,0.06,885.46,21.48,
5417323,-0.03,-0.04,1.05,1.89,2.01,0.12,885.43,21.49,
5417361,-0.02,-0.05,1.03,2.08,2.93,0.12,885.41,21.48,
5417400,-0.03,-0.04,1.01,2.44,2.38,0.12,885.42,21.49,
5417438,-0.02,-0.04,1.0,2.62,3.11,-0.12,885.39,21.48,
5417488,-0.02,-0.04,1.0,2.62,3.23,-0.12,885.38,21.48,
5417526,-0.03,-0.04,1.03,2.81,3.05,0.06,885.33,21.47,
5417564,-0.02,-0.04,1.05,2.93,3.66,-0.06,885.35,21.49,
5417603,-0.03,-0.04,1.07,2.87,4.27,0.06,885.3,21.48,
5417641,-0.03,-0.03,1.1,2.99,3.85,-0.06,885.29,21.48,
5417679,-0.03,-0.03,1.1,2.75,3.72,0.18,885.31,21.48,
5417717,-0.04,-0.03,1.06,2.93,2.99,0.37,885.24,21.49,
5417756,-0.03,-0.04,1.04,2.69,3.05,0.31,885.22,21.48,
5417794,-0.02,-0.03,1.03,2.87,2.26,0.24,885.23,21.49,
5417832,-0.05,-0.03,1.01,2.99,1.46,0.73,885.25,21.48,
5417882,-0.03,-0.04,1.02,2.99,1.1,0.85,885.2,21.48,
5417921,-0.04,-0.03,1.0,2.87,0.0,0.98,885.22,21.48,
5417959,-0.04,-0.03,1.04,3.17,-1.16,1.46,885.2,21.48,
5417997,-0.03,-0.04,1.0,2.75,-0.92,1.53,885.2,21.49,
5418036,-0.01,-0.03,1.01,2.69,-1.22,1.34,885.22,21.49,
5418074,-0.0,-0.04,1.01,2.81,-1.71,1.65,885.17,21.49,
5418112,-0.05,-0.04,0.98,2.75,-1.83,1.77,885.18,21.49,
5418150,-0.04,-0.03,0.97,2.26,-1.22,1.83,885.15,21.5,
5418188,-0.02,-0.02,1.02,2.32,-0.37,1.34,885.17,21.49,
5418266,-0.01,-0.04,0.99,2.44,2.38,1.28,885.17,21.45,
5418304,-0.01,-0.02,1.05,2.81,4.27,0.92,885.19,21.47,
5418343,-0.02,-0.03,1.02,3.23,5.98,1.04,885.17,21.47,
5418433,-0.03,-0.04,1.04,3.42,7.93,1.04,885.13,21.44,
5418471,-0.02,-0.03,1.01,3.17,7.2,0.98,885.12,21.45,
5418509,-0.02,-0.02,1.04,3.36,6.9,1.22,885.04,21.45,
5418548,-0.02,-0.03,1.0,2.99,6.84,1.28,885.08,21.47,
5418586,-0.02,-0.03,1.0,2.99,6.41,1.34,885.07,21.48,
5418624,-0.02,-0.04,0.97,2.44,5.62,1.53,885.09,21.47,
5418662,-0.02,-0.03,0.97,2.32,4.58,1.46,885.08,21.48,
5418712,-0.02,-0.04,0.99,1.77,4.21,1.4,885.0,21.46,
5418751,-0.01,-0.05,1.0,1.46,3.6,1.22,885.02,21.48,
5418789,-0.03,-0.05,0.97,1.4,3.36,1.28,884.99,21.48,
5418827,-0.03,-0.04,0.97,0.98,3.54,1.28,884.98,21.47,
5418865,-0.02,-0.04,0.97,0.98,3.6,1.16,885.01,21.48,
5418904,-0.02,-0.04,0.96,0.92,2.99,1.1,884.98,21.49,
5418942,-0.03,-0.04,0.92,0.43,2.75,1.16,884.97,21.49,
5418980,-0.04,-0.04,0.91,0.43,3.05,1.04,884.94,21.49,
5419019,-0.03,-0.04,0.92,0.49,2.87,1.1,884.96,21.48,
5419069,-0.03,-0.03,0.97,0.55,1.77,1.22,884.92,21.47,
5419107,-0.03,-0.04,0.95,0.79,1.59,1.34,884.92,21.49,
5419145,-0.04,-0.04,0.98,1.34,0.92,1.34,884.93,21.49,
5419184,-0.04,-0.04,0.99,1.46,0.98,1.4,884.93,21.49,
5419222,-0.03,-0.03,1.03,1.53,0.0,1.71,884.88,21.49,
5419260,-0.04,-0.02,1.06,1.53,0.18,1.59,884.86,21.49,
5419299,-0.01,-0.03,1.06,1.22,0.61,1.71,884.88,21.5,
5419337,-0.02,-0.03,1.04,1.04,-1.1,1.95,884.84,21.49,
5419375,-0.05,-0.02,1.01,1.28,-1.95,2.26,884.84,21.49,
5419413,-0.03,-0.0,1.02,1.28,-0.37,1.95,884.8,21.5,
5419463,-0.02,0.01,1.12,1.34,1.16,1.77,884.77,21.49,
5419502,-0.02,-0.02,1.16,1.71,2.32,1.65,884.8,21.5,
5419540,-0.04,-0.02,1.21,1.65,3.3,1.53,884.78,21.49,
5419578,-0.05,-0.03,1.22,1.77,5.13,1.83,884.79,21.5,
5419617,-0.02,-0.0,1.15,1.89,5.07,1.59,884.79,21.49,
5419655,-0.03,0.0,1.14,2.44,4.58,1.71,884.72,21.51,
5419693,-0.02,-0.04,1.01,1.95,5.07,1.95,884.77,21.5,
5419731,-0.04,-0.02,1.07,2.56,4.39,1.95,884.76,21.51,
5419770,-0.01,-0.03,1.05,2.56,3.54,2.32,884.72,21.5,
5419808,-0.02,-0.03,1.02,2.93,1.53,2.26,884.74,21.5,
5419858,-0.04,-0.04,1.01,3.48,1.95,2.44,884.72,21.48,
5419897,-0.04,-0.06,0.93,3.72,1.04,2.69,884.7,21.5,
5419935,-0.04,-0.05,0.84,4.15,0.31,2.5,884.73,21.49,
5419973,-0.03,-0.05,0.79,4.09,0.55,2.56,884.71,21.5,
5420011,-0.01,-0.05,0.78,4.33,0.61,2.75,884.7,21.5,
5420050,-0.02,-0.06,0.77,4.27,0.0,2.62,884.69,21.49,
5420088,-0.04,-0.06,0.74,3.97,-0.67,2.75,884.61,21.49,
5420126,-0.03,-0.06,0.75,3.23,-0.73,2.62,884.63,21.49,
5420165,-0.02,-0.04,0.82,2.69,-2.08,2.81,884.63,21.5,
5420215,-0.03,-0.07,0.78,1.89,-2.08,2.87,884.57,21.49,
5420253,-0.05,-0.05,0.79,1.71,-2.14,2.81,884.61,21.5,
5420291,-0.02,-0.05,0.79,1.28,-1.28,2.75,884.61,21.5,
5420330,-0.03,-0.05,0.75,0.61,-1.34,2.93,884.6,21.5,
5420368,-0.04,-0.04,0.79,0.79,-1.28,2.81,884.58,21.5,
5420406,-0.03,-0.06,0.75,0.0,0.18,2.87,884.61,21.49,
5420444,-0.03,-0.04,0.88,0.0,-1.04,2.93,884.58,21.5,
5420483,-0.04,-0.05,0.9,0.12,-1.28,3.3,884.6,21.5,
5420521,-0.03,-0.04,0.94,-0.06,-1.28,3.17,884.54,21.5,
5420559,-0.03,-0.04,0.93,-0.06,-0.73,3.36,884.61,21.49,
5420609,-0.01,-0.04,0.96,-0.06,-2.14,3.72,884.52,21.48,
5420648,-0.04,-0.05,0.89,-0.43,-0.79,3.6,884.55,21.49,
5420686,-0.02,-0.04,0.93,-0.55,-0.73,3.6,884.53,21.49,
5420724,-0.02,-0.04,0.94,-0.49,0.18,3.36,884.53,21.49,
5420763,-0.03,-0.03,0.91,-0.55,1.16,3.36,884.54,21.5,
5420801,-0.03,-0.04,0.96,0.12,3.3,3.36,884.61,21.5,
5420839,-0.01,-0.04,0.99,-0.12,5.25,2.87,884.54,21.5,
5420878,-0.02,-0.03,1.05,0.31,5.0,2.93,884.52,21.5,
5420916,-0.02,-0.02,1.05,0.12,7.08,3.05,884.5,21.5,
5420966,-0.01,-0.02,1.12,0.73,7.63,2.87,884.5,21.49,
5421004,-0.01,-0.03,1.09,0.79,8.0,3.11,884.48,21.49,
5421042,-0.02,-0.02,1.13,1.77,7.08,3.11,884.5,21.49,
5421081,-0.01,-0.03,1.1,2.14,7.81,3.23,884.49,21.5,
5421119,-0.01,-0.03,1.1,2.56,6.53,3.42,884.45,21.5,
5421157,-0.02,-0.03,1.07,2.44,6.71,3.6,884.48,21.5,
5421196,-0.02,-0.03,1.03,2.62,5.62,3.54,884.44,21.51,
5421234,-0.01,-0.03,1.04,2.2,5.74,3.48,884.41,21.5,
5421272,-0.02,-0.03,1.04,2.26,5.13,3.54,884.42,21.51,
5421311,-0.01,-0.03,1.02,2.01,5.0,3.66,884.38,21.5,
5421387,-0.01,-0.03,1.01,1.89,4.82,3.54,884.38,21.47,
5421425,-0.0,-0.03,1.0,1.59,4.64,3.78,884.43,21.49,
5421463,-0.01,-0.03,1.03,1.95,4.09,3.6,884.41,21.49,
5421553,-0.01,-0.03,1.06,2.32,4.15,3.66,884.34,21.46,
5421592,-0.0,-0.03,1.03,2.38,4.09,3.54,884.33,21.48,
5421630,-0.01,-0.02,1.04,2.69,4.03,3.48,884.44,21.48,
5421668,-0.0,-0.03,1.03,2.87,4.33,3.48,884.42,21.48,
5421707,-0.02,-0.03,1.0,3.23,4.21,3.48,884.4,21.49,
5421745,-0.01,-0.03,1.0,3.48,4.27,3.17,884.34,21.49,
5421783,-0.01,-0.03,0.97,3.23,3.97,3.23,884.34,21.49,
5421833,-0.0,-0.04,0.97,2.93,4.27,2.99,884.36,21.47,
5421872,-0.0,-0.04,0.96,2.62,3.72,3.11,884.28,21.49,
5421910,-0.01,-0.03,0.96,2.44,4.46,2.99,884.29,21.49,
5421948,-0.01,-0.02,0.97,2.14,4.76,2.93,884.25,21.48,
5421986,-0.01,-0.03,1.0,2.32,4.52,2.99,884.22,21.48,
5422025,-0.0,-0.03,0.99,2.2,4.76,2.75,884.28,21.48,
5422063,-0.01,-0.03,1.0,2.56,4.76,2.56,884.26,21.5,
5422102,0.01,-0.04,0.98,2.56,5.07,2.5,884.27,21.48,
5422140,-0.01,-0.02,0.99,2.87,4.33,2.56,884.28,21.49,
5422190,-0.0,-0.03,0.98,2.99,4.27,2.62,884.24,21.49,
5422228,0.0,-0.03,0.97,2.69,2.62,2.56,884.24,21.49,
5422266,-0.0,-0.02,0.98,2.5,1.83,2.69,884.15,21.49,
5422305,-0.01,-0.03,0.97,2.01,1.65,2.56,884.23,21.48,
5422343,0.01,-0.03,1.01,1.89,1.04,2.44,884.19,21.49,
5422381,0.0,-0.03,0.99,1.28,1.4,2.32,884.22,21.5,
5422420,-0.01,-0.02,0.98,1.28,0.18,2.32,884.2,21.49,
5422458,-0.01,-0.02,0.98,1.28,0.37,2.38,884.22,21.51,
5422496,0.0,-0.02,0.97,1.4,0.06,2.08,884.19,21.5,
5422534,-0.0,-0.02,0.97,1.53,-0.43,2.01,884.14,21.49,
5422584,0.0,-0.03,0.97,2.01,-0.55,1.89,884.19,21.48,
5422623,0.0,-0.03,0.94,2.44,-0.49,1.89,884.18,21.48,
5422661,0.0,-0.02,0.97,2.87,-0.98,1.71,884.15,21.5,
5422699,0.0,-0.03,0.95,3.05,-1.28,1.77,884.11,21.49,
5422738,-0.02,-0.02,0.95,3.17,-1.22,1.59,884.16,21.49,
5422776,-0.0,-0.02,0.95,3.23,-1.04,1.4,884.11,21.49,
5422814,0.0,-0.02,0.98,3.6,-1.4,1.16,884.08,21.5,
5422852,-0.01,-0.03,0.96,3.6,-0.55,1.22,884.08,21.5,
5422891,-0.01,-0.02,0.98,3.72,-0.79,1.16,884.15,21.51,
5422929,-0.0,-0.02,1.0,4.15,-0.18,0.98,884.14,21.5,
5422979,-0.02,-0.02,0.96,4.64,0.12,1.1,884.18,21.5,
5423017,-0.01,-0.01,0.96,4.94,0.85,0.92,884.07,21.49,
5423055,-0.01,-0.02,0.97,5.68,1.59,0.92,884.11,21.5,
5423094,-0.0,-0.02,0.95,5.92,1.83,0.85,884.1,21.5,
5423132,-0.02,-0.02,0.97,7.2,1.83,0.92,884.06,21.5,
5423170,-0.01,-0.03,0.93,7.26,3.05,0.98,884.04,21.49,
5423208,-0.01,-0.02,0.92,7.63,3.17,0.67,884.08,21.5,
5423247,-0.02,-0.03,0.88,7.87,3.66,0.73,884.04,21.5,
5423285,-0.01,-0.03,0.87,8.36,3.23,0.79,884.08,21.49,
5423335,-0.02,-0.03,0.83,8.48,4.33,0.92,884.04,21.49,
5423373,-0.0,-0.02,0.83,8.48,4.15,0.85,884.03,21.5,
5423411,-0.01,-0.04,0.81,8.73,3.91,0.92,883.99,21.49,
5423450,-0.01,-0.04,0.77,8.79,3.6,1.16,884.03,21.5,
5423488,-0.01,-0.03,0.8,9.22,3.42,0.92,884.03,21.5,
5423526,-0.0,-0.05,0.74,8.61,3.66,1.34,884.01,21.51,
5423564,-0.01,-0.04,0.73,8.36,3.17,1.34,883.98,21.51,
5423603,-0.02,-0.04,0.71,7.87,3.6,1.34,883.95,21.5,
5423641,-0.01,-0.05,0.69,7.02,3.72,1.28,884.02,21.5,
5423679,0.01,-0.04,0.72,6.59,3.17,1.22,884.0,21.51,
5423729,-0.0,-0.04,0.71,5.68,2.99,1.34,883.95,21.49,
5423767,-0.0,-0.04,0.73,5.19,2.62,1.53,883.96,21.5,
5423806,0.0,-0.04,0.74,4.33,2.44,1.34,883.94,21.5,
5423844,-0.01,-0.05,0.73,3.66,2.14,1.28,883.94,21.51,
5423882,-0.01,-0.05,0.73,3.3,1.95,1.46,883.96,21.5,
5423920,-0.0,-0.05,0.74,2.69,1.65,1.16,883.87,21.49,
5423959,0.01,-0.05,0.73,2.44,1.59,1.28,883.98,21.5,
5423997,0.0,-0.04,0.74,1.83,0.92,1.4,884.0,21.5,
5424035,-0.01,-0.05,0.74,1.46,0.85,1.34,884.05,21.5,
5424074,-0.01,-0.05,0.75,1.16,0.49,1.28,883.9,21.5,
5424123,-0.0,-0.04,0.78,0.98,0.18,1.53,883.99,21.49,
5424162,0.0,-0.04,0.8,0.79,-0.43,1.28,883.95,21.5,
5424200,-0.0,-0.04,0.8,1.04,-0.55,1.4,884.02,21.49,
5424238,0.0,-0.04,0.81,0.73,-0.24,1.34,883.97,21.5,
5424276,-0.0,-0.04,0.84,0.73,-0.73,1.34,884.02,21.49,
5424315,-0.01,-0.04,0.83,0.61,-0.55,1.4,883.96,21.5,
5424353,0.0,-0.03,0.85,0.85,-0.55,1.4,884.01,21.51,
5424391,-0.0,-0.04,0.86,0.67,0.0,1.46,884.0,21.49,
5424429,-0.01,-0.04,0.87,0.61,-0.12,1.4,883.99,21.48,
5424505,-0.0,-0.03,0.88,0.92,0.67,1.4,883.98,21.46,
5424544,-0.01,-0.03,0.91,1.28,1.16,1.46,884.0,21.48,
5424582,-0.01,-0.04,0.89,1.4,2.01,1.34,884.05,21.48,
5424672,-0.01,-0.03,0.86,2.32,4.09,1.34,884.08,21.44,
5424710,-0.02,-0.04,0.84,2.87,5.0,1.4,884.01,21.46,
5424749,-0.02,-0.04,0.82,2.87,6.1,1.53,883.98,21.45,
5424787,-0.01,-0.04,0.83,3.3,7.45,1.28,884.0,21.46,
5424825,-0.0,-0.04,0.82,3.36,8.36,1.4,883.99,21.46,
5424863,-0.01,-0.03,0.83,3.42,9.34,1.16,883.97,21.46,
5424902,-0.01,-0.04,0.83,3.17,10.74,1.34,883.98,21.47,
5424952,-0.0,-0.03,0.86,3.11,10.56,1.4,884.0,21.47,
5424990,-0.01,-0.03,0.88,2.87,10.19,1.46,884.09,21.48,
5425028,-0.01,-0.03,0.91,2.87,9.58,1.59,884.05,21.48,
5425067,0.0,-0.04,0.91,2.2,9.16,1.77,884.01,21.47,
5425105,-0.0,-0.03,0.92,2.26,8.06,1.77,884.09,21.48,
5425143,0.0,-0.04,0.92,1.77,7.51,1.95,884.09,21.49,
5425181,-0.01,-0.03,0.9,1.46,5.98,1.95,884.08,21.49,
5425220,-0.01,-0.03,0.9,1.28,5.49,1.95,884.11,21.49,
5425258,0.01,-0.03,0.91,0.79,5.13,1.89,884.06,21.5,
5425296,-0.0,-0.03,0.96,0.79,4.33,1.89,884.07,21.49,
5425346,-0.01,-0.03,0.96,0.85,4.27,2.01,884.14,21.48,
5425384,-0.01,-0.03,1.01,1.34,3.85,1.95,884.17,21.49,
5425423,-0.0,-0.03,1.0,1.65,3.54,1.89,884.2,21.49,
5425461,-0.01,-0.02,1.0,2.32,3.05,1.89,884.2,21.49,
5425499,-0.01,-0.02,1.0,2.99,3.17,1.89,884.19,21.49,
5425537,0.0,-0.03,0.99,3.66,3.05,1.83,884.21,21.49,
5425576,0.0,-0.03,0.99,4.09,2.69,1.89,884.17,21.5,
5425614,-0.01,-0.03,0.97,4.52,2.81,1.83,884.22,21.51,
5425652,-0.01,-0.03,0.95,5.0,3.6,1.65,884.22,21.51,
5425702,-0.01,-0.04,0.95,5.8,3.91,1.59,884.19,21.5,
5425740,-0.01,-0.04,0.91,5.8,4.15,1.53,884.22,21.5,
5425779,-0.0,-0.04,0.89,6.04,4.27,1.53,884.23,21.5,
5425817,-0.01,-0.04,0.87,6.35,4.39,1.28,884.27,21.5,
5425855,0.0,-0.04,0.84,6.53,4.09,1.34,884.25,21.49,
5425894,0.0,-0.04,0.82,6.9,3.97,1.4,884.21,21.49,
5425932,-0.0,-0.04,0.81,6.77,4.33,1.16,884.28,21.5,
5425970,-0.01,-0.05,0.79,7.02,4.21,1.16,884.27,21.49,
5426008,-0.01,-0.05,0.77,6.96,4.82,1.04,884.29,21.51,
5426047,0.0,-0.05,0.77,6.96,5.43,0.92,884.3,21.5,
5426097,-0.0,-0.06,0.72,6.1,5.74,0.92,884.28,21.49,
5426135,-0.0,-0.05,0.71,5.49,5.19,0.79,884.28,21.49,
5426173,-0.0,-0.05,0.7,4.76,5.25,0.79,884.28,21.5,
5426211,-0.0,-0.05,0.71,3.85,4.03,0.92,884.26,21.49,
5426250,-0.0,-0.06,0.77,3.05,3.3,0.85,884.29,21.5,
5426288,-0.02,-0.06,0.78,2.08,2.75,0.79,884.36,21.5,
5426326,0.0,-0.05,0.86,1.71,2.08,0.73,884.34,21.5,
5426364,0.0,-0.06,0.82,0.92,2.2,0.61,884.36,21.5,
5426403,-0.01,-0.05,0.84,0.92,1.53,0.61,884.33,21.5,
5426441,-0.02,-0.06,0.83,0.43,1.83,0.55,884.36,21.49,
5426491,-0.01,-0.05,0.85,-0.43,1.46,0.55,884.4,21.5,
5426529,-0.0,-0.05,0.88,-0.55,1.04,0.55,884.36,21.49,
5426567,-0.01,-0.05,0.88,-0.85,0.73,0.37,884.43,21.51,
5426606,-0.03,-0.05,0.91,-0.92,0.43,0.43,884.42,21.5,
5426644,-0.02,-0.05,0.93,-1.16,0.31,0.55,884.44,21.5,
5426682,-0.02,-0.05,0.92,-1.4,0.31,0.43,884.46,21.5,
5426720,-0.02,-0.05,0.94,-1.34,0.79,0.31,884.48,21.51,
5426759,-0.02,-0.04,0.95,-1.71,0.92,0.37,884.49,21.51,
5426797,-0.01,-0.04,0.98,-1.77,1.22,0.31,884.47,21.5,
5426847,-0.02,-0.03,1.02,-2.01,1.28,0.31,884.54,21.5,
5426885,-0.02,-0.04,1.06,-2.14,1.65,0.43,884.47,21.49,
5426923,-0.02,-0.03,1.09,-2.01,1.28,0.24,884.51,21.5,
5426962,-0.02,-0.03,1.13,-1.83,1.53,0.31,884.52,21.5,
5427000,-0.01,-0.03,1.13,-1.77,1.65,0.31,884.56,21.49,
5427038,-0.02,-0.03,1.14,-1.53,1.59,0.24,884.53,21.5,
5427076,-0.02,-0.03,1.14,-1.34,1.89,0.06,884.46,21.5,
5427115,-0.02,-0.02,1.18,-1.22,1.77,0.24,884.58,21.5,
5427153,-0.02,-0.03,1.17,-1.34,2.01,0.24,884.54,21.5,
5427191,-0.02,-0.02,1.22,-1.22,2.08,0.12,884.55,21.5,
5427241,-0.02,-0.02,1.23,-1.53,2.93,0.24,884.54,21.5,
5427279,-0.01,-0.01,1.23,-1.59,3.05,0.0,884.54,21.49,
5427318,-0.02,-0.01,1.27,-1.59,3.54,0.0,884.55,21.5,
5427356,-0.03,-0.02,1.26,-1.89,4.09,0.12,884.53,21.5,
5427394,-0.02,-0.01,1.29,-1.71,4.39,0.0,884.6,21.49,
5427432,-0.02,-0.01,1.25,-1.83,4.82,-0.12,884.65,21.5,
5427471,-0.02,-0.01,1.29,-1.4,4.76,-0.12,884.64,21.5,
5427509,-0.02,-0.03,1.27,-1.22,5.62,0.06,884.64,21.5,
5427547,-0.03,-0.01,1.27,-0.55,4.76,0.0,884.68,21.5,
5427623,-0.02,-0.02,1.26,0.0,4.76,0.12,884.66,21.47,
5427661,-0.02,-0.02,1.27,0.31,4.94,0.18,884.7,21.49,
5427700,-0.02,-0.02,1.23,0.31,4.58,0.37,884.7,21.49,
5427790,-0.02,-0.02,1.19,0.73,4.52,0.43,884.66,21.45,
5427828,-0.02,-0.02,1.21,0.92,3.72,0.61,884.75,21.48,
5427866,-0.03,-0.03,1.14,0.55,3.54,0.67,884.69,21.48,
5427904,-0.01,-0.03,1.18,0.92,2.5,0.55,884.75,21.47,
5427943,-0.0,-0.03,1.16,0.92,3.3,0.61,884.73,21.49,
5427981,-0.0,-0.03,1.14,0.85,2.26,0.67,884.76,21.49,
5428019,-0.02,-0.03,1.16,0.92,2.81,0.55,884.77,21.49,
5428069,-0.01,-0.04,1.12,0.85,2.14,0.55,884.74,21.47,
5428107,-0.01,-0.03,1.12,0.67,2.26,0.61,884.78,21.48,
5428146,-0.01,-0.03,1.09,0.37,2.14,0.43,884.76,21.48,
5428184,-0.01,-0.03,1.12,0.49,2.08,0.37,884.75,21.48,
5428222,-0.02,-0.04,1.11,0.31,2.32,0.43,884.81,21.49,
5428260,-0.02,-0.04,1.12,0.37,2.14,0.31,884.8,21.48,
5428299,-0.03,-0.05,1.08,0.24,2.93,0.24,884.81,21.48,
5428337,-0.02,-0.03,1.14,0.49,2.44,0.18,884.77,21.48,
5428375,-0.02,-0.04,1.08,0.49,2.87,0.12,884.79,21.49,
5428425,-0.02,-0.03,1.11,0.85,2.81,0.06,884.8,21.48,
5428463,-0.02,-0.04,1.07,1.16,3.91,0.12,884.78,21.48,
5428502,-0.01,-0.04,1.1,1.16,4.03,0.0,884.81,21.49,
5428540,-0.02,-0.04,1.07,1.04,4.64,0.0,884.85,21.49,
5428578,-0.04,-0.04,1.04,1.22,4.7,0.06,884.81,21.5,
5428616,-0.01,-0.05,1.04,1.28,5.19,-0.06,884.81,21.49,
5428655,-0.01,-0.04,1.06,1.46,4.46,-0.06,884.86,21.49,
5428693,-0.02,-0.05,1.03,1.53,4.33,-0.12,884.85,21.5,
5428731,-0.01,-0.05,1.02,2.08,4.52,-0.06,884.79,21.48,
5428770,-0.02,-0.05,0.99,2.08,4.64,-0.18,884.87,21.49,
5428820,-0.03,-0.06,0.99,2.26,4.03,0.0,884.83,21.47,
5428858,-0.03,-0.05,0.96,2.08,4.64,-0.31,884.86,21.48,
5428896,-0.02,-0.04,1.0,2.26,4.03,-0.24,884.86,21.49,
5428934,-0.01,-0.05,0.95,1.95,3.66,-0.12,884.83,21.47,
5428972,-0.02,-0.05,0.95,1.89,2.93,0.0,884.82,21.49,
5429011,-0.02,-0.06,0.94,1.46,3.66,-0.18,884.89,21.48,
5429049,-0.02,-0.05,0.97,1.4,2.38,-0.18,884.89,21.48,
5429087,-0.03,-0.04,0.97,1.34,1.65,-0.24,884.88,21.47,
5429126,-0.02,-0.04,0.99,1.83,1.65,-0.37,884.86,21.48,
5429175,-0.01,-0.04,1.04,2.26,1.77,-0.49,884.89,21.47,
5429214,-0.02,-0.05,1.05,3.11,1.28,-0.37,884.91,21.46,
5429252,-0.03,-0.05,1.05,3.72,1.53,-0.43,884.87,21.48,
5429290,-0.02,-0.05,1.05,4.21,1.34,-0.61,884.86,21.47,
5429329,-0.01,-0.06,1.0,4.58,1.1,-0.55,884.86,21.48,
5429367,-0.03,-0.04,1.03,5.49,-0.98,-0.49,884.93,21.48,
5429405,-0.04,-0.06,0.99,5.55,0.18,-0.37,884.88,21.48,
5429443,-0.02,-0.04,0.95,5.55,0.24,-0.49,884.87,21.47,
5429482,-0.03,-0.04,1.0,6.35,-0.55,-0.55,884.89,21.49,
5429520,-0.05,-0.06,0.91,5.98,0.55,-0.55,884.86,21.48,
5429570,-0.02,-0.05,0.96,6.65,0.61,-0.73,884.87,21.46,
5429608,-0.03,-0.06,0.91,6.53,1.16,-0.67,884.86,21.48,
5429647,-0.05,-0.05,0.87,6.47,1.22,-0.67,884.86,21.47,
5429685,-0.04,-0.05,0.85,5.98,2.08,-0.73,884.89,21.49,
5429723,-0.03,-0.06,0.83,5.8,2.01,-0.73,884.88,21.48,
5429761,-0.04,-0.06,0.83,4.82,1.65,-0.61,884.84,21.48,
5429799,-0.03,-0.06,0.85,4.58,1.89,-0.49,884.86,21.49,
5429838,-0.04,-0.06,0.82,4.09,1.83,-0.61,884.88,21.49,
5429876,-0.03,-0.06,0.84,3.78,1.4,-0.31,884.89,21.48,
5429926,-0.04,-0.06,0.78,3.48,1.46,-0.31,884.91,21.48,
5429964,-0.04,-0.07,0.75,3.48,1.53,-0.31,884.87,21.48,
5430003,-0.03,-0.06,0.74,3.3,1.04,-0.24,884.87,21.49,
5430041,-0.03,-0.06,0.73,2.93,0.37,-0.24,884.83,21.48,
5430079,-0.04,-0.07,0.76,2.75,0.73,-0.24,884.91,21.5,
5430118,-0.03,-0.07,0.8,2.44,1.59,-0.12,884.91,21.49,
5430156,-0.04,-0.07,0.84,2.26,1.28,-0.12,884.93,21.49,
5430194,-0.04,-0.07,0.89,2.08,1.53,-0.18,885.01,21.51,
5430232,-0.04,-0.07,0.89,1.95,1.89,0.0,884.93,21.49,
5430271,-0.04,-0.05,0.95,1.83,1.59,0.12,884.92,21.5,
5430321,-0.04,-0.06,0.94,2.01,2.26,0.24,884.94,21.49,
5430359,-0.04,-0.06,0.97,2.14,1.71,0.43,884.96,21.48,
5430397,-0.04,-0.06,1.0,2.44,2.32,0.37,884.96,21.48,
5430436,-0.03,-0.06,0.98,2.2,2.14,0.31,884.96,21.48,
5430474,-0.05,-0.05,0.98,2.38,1.89,0.43,885.02,21.49,
5430512,-0.05,-0.06,0.96,2.38,2.01,0.61,885.0,21.49,
5430550,-0.04,-0.06,0.96,2.26,2.38,0.67,884.97,21.5,
5430588,-0.03,-0.06,0.98,2.14,2.5,0.49,884.95,21.49,
5430627,-0.03,-0.06,0.98,2.08,2.87,0.61,884.96,21.49,
5430665,-0.05,-0.06,0.96,1.77,3.3,0.85,884.99,21.49,
5430741,-0.03,-0.06,1.02,1.4,3.48,1.04,885.02,21.46,
5430779,-0.04,-0.06,1.0,1.16,2.93,1.22,884.96,21.46,
5430817,-0.04,-0.06,1.02,1.28,2.99,1.34,885.03,21.48,
5430907,-0.02,-0.06,1.09,1.22,3.48,1.16,885.05,21.45,
5430946,-0.03,-0.05,1.09,1.4,3.54,1.34,885.09,21.46,
5430984,-0.03,-0.06,1.11,1.83,3.72,1.4,885.06,21.47,
5431022,-0.03,-0.06,1.11,2.01,3.66,1.4,885.09,21.47,
5431061,-0.02,-0.06,1.06,2.14,3.42,1.59,885.07,21.46,
5431099,-0.02,-0.05,1.04,2.26,3.11,1.59,885.11,21.47,
5431149,-0.04,-0.06,0.99,2.08,3.05,1.71,885.05,21.46,
5431187,-0.03,-0.06,1.02,2.08,2.99,1.71,885.06,21.46,
5431225,-0.03,-0.06,1.02,1.53,3.17,1.65,885.04,21.48,
5431264,-0.04,-0.06,1.01,1.4,2.93,1.83,885.09,21.48,
5431302,-0.03,-0.07,1.04,1.16,2.93,1.89,885.15,21.48,
5431340,-0.01,-0.07,1.02,0.79,3.11,1.83,885.13,21.47,
5431378,-0.02,-0.06,1.02,0.85,2.08,2.2,885.1,21.48,
5431417,-0.02,-0.06,1.0,0.61,2.2,2.08,885.17,21.48,
5431455,-0.02,-0.06,1.01,0.37,1.4,2.14,885.1,21.48,
5431493,-0.01,-0.06,1.02,0.06,0.92,2.26,885.08,21.47,
5431543,-0.02,-0.06,1.04,-15.62,0.24,2.38,885.12,21.47,
5431582,-0.01,-0.06,1.06,-0.37,0.37,2.26,885.18,21.47,
5431620,-0.01,-0.06,1.07,-0.55,-0.24,2.2,885.17,21.47,
5431658,-0.0,-0.07,1.11,-0.49,-0.18,2.2,885.19,21.48,
5431696,-0.01,-0.06,1.07,-0.67,-0.43,2.01,885.19,21.48,
5431734,-0.02,-0.05,1.12,-0.61,-0.79,2.01,885.16,21.48,
5431773,-0.01,-0.06,1.08,-0.73,-0.55,1.95,885.18,21.49,
5431811,-0.02,-0.05,1.1,-0.61,-0.55,1.77,885.2,21.48,
5431849,-0.01,-0.06,1.16,-0.43,0.37,1.71,885.19,21.48,
5431899,0.0,-0.06,1.2,-0.49,0.92,1.59,885.16,21.48,
5431937,-0.02,-0.05,1.22,-0.24,1.22,1.53,885.2,21.48,
5431976,-0.04,-0.05,1.24,-0.06,1.4,1.53,885.14,21.48,
5432014,-0.01,-0.06,1.25,0.18,2.5,1.46,885.17,21.47,
5432052,-0.02,-0.04,1.18,-0.31,1.65,1.4,885.2,21.47,
5432091,-0.01,-0.05,1.24,0.0,1.71,1.53,885.23,21.48,
5432129,-0.01,-0.05,1.16,-0.61,2.99,1.28,885.18,21.49,
5432167,-0.02,-0.04,1.26,-0.12,2.01,1.34,885.18,21.49,
5432205,-0.01,-0.07,1.18,-0.73,3.23,1.46,885.19,21.48,
5432244,-0.03,-0.05,1.23,-0.37,1.77,1.34,885.19,21.48,
5432294,-0.01,-0.06,1.2,-0.67,2.93,1.46,885.19,21.47,
5432332,-0.01,-0.06,1.21,-0.18,1.95,1.28,885.15,21.48,
5432370,-0.0,-0.05,1.22,-0.73,2.99,1.4,885.23,21.49,
5432408,-0.0,-0.05,1.22,-0.67,1.89,1.4,885.21,21.49,
5432447,-0.01,-0.06,1.26,-0.55,2.14,1.28,885.16,21.48,
5432485,-0.01,-0.06,1.21,-0.43,2.2,1.4,885.23,21.49,
5432523,-0.03,-0.06,1.21,-0.31,1.89,1.22,885.18,21.48,
5432562,-0.0,-0.08,1.12,-0.18,2.44,1.16,885.23,21.49,
5432600,0.01,-0.06,1.08,-0.06,1.77,1.16,885.21,21.48,
5432650,-0.01,-0.07,0.97,0.12,1.83,1.16,885.21,21.46,
5432688,-0.02,-0.07,0.98,0.55,1.22,1.1,885.18,21.49,
5432726,-0.01,-0.07,0.98,0.92,1.53,1.04,885.19,21.49,
5432764,-0.04,-0.06,1.03,0.79,1.22,1.04,885.17,21.48,
5432803,-0.03,-0.07,1.07,0.61,2.26,1.16,885.14,21.48,
5432841,-0.01,-0.06,1.07,0.12,2.87,0.92,885.16,21.49,
5432879,-0.02,-0.06,1.14,0.43,2.08,1.16,885.17,21.49,
5432917,-0.02,-0.07,1.1,0.18,3.11,1.16,885.22,21.49,
5432956,-0.01,-0.05,1.13,0.31,2.93,0.98,885.16,21.48,
5432994,-0.01,-0.06,1.13,0.61,2.87,1.16,885.12,21.48,
5433044,-0.01,-0.06,1.07,0.85,2.08,0.98,885.16,21.48,
5433082,-0.01,-0.06,1.08,0.73,1.53,1.16,885.22,21.48,
5433121,-0.0,-0.07,1.09,1.22,1.22,1.1,885.21,21.49,
5433159,-0.02,-0.06,1.09,1.46,0.79,1.16,885.18,21.49,
5433197,-0.02,-0.06,1.07,2.01,0.24,1.4,885.15,21.5,
5433235,-0.01,-0.06,1.03,2.2,-0.24,1.4,885.14,21.49,
5433274,-0.01,-0.06,1.02,2.62,-1.1,1.4,885.12,21.48,
5433312,-0.05,-0.07,0.96,2.44,-1.34,1.95,885.17,21.49,
5433350,-0.03,-0.07,0.94,2.87,-1.22,1.71,885.23,21.5,
5433388,-0.01,-0.06,0.94,3.3,-0.43,1.4,885.17,21.49,
5433438,-0.03,-0.06,0.91,3.85,0.12,1.83,885.09,21.47,
5433477,-0.02,-0.07,0.9,3.6,1.1,1.71,885.11,21.49,
5433515,-0.04,-0.06,0.91,3.6,1.59,1.53,885.11,21.48,
5433553,-0.04,-0.07,0.97,3.6,2.14,2.01,885.08,21.49,
5433591,-0.03,-0.07,0.98,3.42,3.11,2.08,885.08,21.49,
5433630,-0.04,-0.05,1.01,3.48,2.87,1.95,885.09,21.49,
5433668,-0.02,-0.06,1.0,3.17,4.39,2.08,885.12,21.5,
5433706,0.0,-0.06,1.01,2.87,4.27,2.08,885.04,21.49,
5433744,-0.03,-0.06,0.97,2.44,4.88,2.32,885.1,21.5,
5433820,-0.02,-0.06,0.98,1.83,4.76,2.44,885.07,21.46,
5433859,-0.01,-0.07,1.0,1.22,4.03,2.44,885.05,21.48,
5433897,-0.02,-0.07,0.96,0.85,3.97,2.62,885.06,21.48,
5433987,-0.03,-0.07,0.95,-0.12,3.66,2.99,885.08,21.45,
5434026,-0.02,-0.06,0.98,-0.06,2.5,2.93,885.05,21.45,
5434064,-0.01,-0.07,0.96,-0.61,4.03,2.81,885.06,21.47,
5434102,-0.03,-0.07,0.92,-0.92,3.36,2.93,885.01,21.46,
5434140,-0.02,-0.07,0.94,-0.85,3.17,3.11,885.0,21.47,
5434178,-0.01,-0.06,0.94,-1.34,3.36,2.87,885.01,21.47,
5434217,-0.01,-0.05,1.01,-1.04,2.87,3.05,885.0,21.47,
5434267,-0.02,-0.06,1.01,-1.22,3.6,3.23,885.04,21.47,
5434305,-0.01,-0.06,1.05,-0.98,3.23,3.17,884.99,21.47,
5434343,-0.01,-0.06,1.08,-0.67,3.66,3.3,885.0,21.46,
5434382,-0.02,-0.06,1.07,-0.31,2.81,3.3,885.0,21.48,
5434420,-0.03,-0.05,1.1,-0.18,2.93,3.17,884.98,21.48,
5434458,-0.02,-0.05,1.09,0.18,2.56,3.36,885.02,21.47,
5434496,-0.02,-0.05,1.14,0.61,2.44,3.42,884.99,21.48,
5434535,-0.01,-0.05,1.13,0.55,3.42,3.42,885.07,21.47,
5434573,-0.01,-0.05,1.18,1.34,2.44,3.48,885.0,21.48,
5434623,-0.02,-0.06,1.11,1.34,3.11,3.48,884.99,21.47,
5434661,-0.02,-0.05,1.12,2.01,3.11,3.48,885.0,21.48,
5434700,0.0,-0.06,1.12,2.2,3.36,3.54,885.0,21.47,
5434738,-0.02,-0.05,1.09,2.81,2.38,3.48,884.98,21.47,
5434776,-0.02,-0.05,1.08,3.54,3.11,3.48,884.93,21.48,
5434815,-0.01,-0.07,1.04,3.66,3.66,3.54,884.99,21.48,
5434853,0.01,-0.05,1.1,3.85,2.38,3.6,884.96,21.48,
5434891,-0.02,-0.05,1.05,3.85,2.44,3.85,884.93,21.49,
5434929,-0.0,-0.06,0.99,3.91,2.14,3.78,885.05,21.49,
5434968,-0.01,-0.08,1.0,4.76,1.89,3.6,884.95,21.48,
5435018,-0.02,-0.07,0.87,4.21,2.38,3.54,884.97,21.49,
5435056,0.0,-0.05,0.92,4.64,2.01,3.48,884.94,21.48,
5435094,0.0,-0.07,0.84,4.27,3.05,3.36,884.9,21.48,
5435133,-0.0,-0.07,0.85,4.03,2.32,3.48,884.93,21.49,
5435171,-0.01,-0.08,0.86,3.66,3.23,3.17,884.9,21.49,
5435209,0.01,-0.07,0.89,3.36,2.87,3.23,884.87,21.49,
5435247,-0.0,-0.06,0.92,2.99,2.5,3.17,884.84,21.49,
5435286,-0.01,-0.07,0.91,2.56,3.36,3.3,884.86,21.5,
5435324,-0.01,-0.06,0.94,2.56,2.93,3.05,884.86,21.49,
5435362,-0.01,-0.06,0.98,2.38,3.48,3.3,884.84,21.5,
5435412,-0.0,-0.06,0.94,1.89,4.46,3.11,884.81,21.48,
5435451,0.0,-0.05,1.04,1.83,4.7,3.05,884.83,21.5,
5435489,-0.01,-0.08,1.0,1.34,6.35,2.87,884.91,21.5,
5435527,-0.01,-0.07,1.01,1.22,6.35,2.81,884.83,21.49,
5435565,0.0,-0.06,1.03,1.1,7.51,2.87,884.84,21.5,
5435604,0.0,-0.06,0.95,0.73,7.45,2.69,884.82,21.49,
5435642,-0.0,-0.05,1.0,0.79,6.59,2.69,884.85,21.49,
5435680,0.01,-0.06,1.0,0.49,6.47,2.75,884.82,21.49,
5435718,-0.0,-0.06,1.0,0.06,5.74,2.75,884.83,21.49,
5435768,0.01,-0.06,1.05,0.12,5.25,2.87,884.84,21.48,
5435807,0.01,-0.06,1.04,0.12,4.94,2.56,884.85,21.49,
5435845,-0.0,-0.06,1.02,0.06,4.15,2.44,884.86,21.48,
5435883,0.01,-0.06,1.04,0.24,3.78,2.5,884.84,21.49,
5435921,0.0,-0.06,1.01,0.31,3.3,2.38,884.81,21.48,
5435960,0.0,-0.06,1.01,0.43,2.69,2.38,884.83,21.48,
5435998,0.0,-0.06,1.03,0.49,3.23,2.08,884.83,21.49,
5436036,-0.0,-0.06,1.04,0.61,2.93,2.08,884.87,21.48,
5436074,-0.0,-0.05,1.09,0.55,2.5,2.08,884.83,21.47,
5436113,0.0,-0.05,1.11,0.79,2.62,1.89,884.81,21.48,
5436163,-0.0,-0.05,1.08,0.79,2.87,1.89,884.81,21.46,
5436201,0.0,-0.05,1.09,1.28,2.5,1.77,884.84,21.48,
5436239,0.01,-0.06,1.03,1.46,3.48,1.53,884.8,21.48,
5436277,-0.01,-0.06,0.98,1.53,3.85,1.4,884.82,21.48,
5436316,-0.0,-0.05,1.0,2.01,4.39,1.4,884.8,21.48,
5436354,0.01,-0.05,0.98,1.89,5.31,0.92,884.76,21.46,
5436392,0.0,-0.05,1.0,2.01,4.88,1.04,884.75,21.48,
5436431,0.02,-0.06,1.03,1.59,5.07,0.92,884.75,21.48,
5436469,0.01,-0.06,1.01,1.46,4.09,0.85,884.72,21.49,
5436507,-0.02,-0.06,1.02,1.22,3.42,0.98,884.78,21.48,
5436557,-0.0,-0.06,1.0,1.22,2.5,0.79,884.78,21.48,
5436595,-0.0,-0.06,0.99,1.53,2.01,0.73,884.78,21.48,
5436634,0.0,-0.06,0.96,1.95,1.77,0.61,884.75,21.48,
5436672,-0.01,-0.06,0.95,2.69,1.28,0.55,884.79,21.48,
5436710,0.0,-0.06,0.92,2.87,1.46,0.43,884.76,21.49,
5436748,0.0,-0.05,0.94,3.54,0.73,0.49,884.73,21.46,
5436787,-0.02,-0.06,0.88,3.85,0.79,0.43,884.71,21.48,
5436825,-0.01,-0.06,0.9,4.46,0.61,0.18,884.73,21.48,
5436863,-0.01,-0.07,0.8,4.39,1.65,0.24,884.69,21.48,
5436901,0.01,-0.06,0.79,4.7,1.16,0.06,884.71,21.49,
5436979,-0.01,-0.07,0.76,4.58,0.98,0.18,884.66,21.45,
5437017,-0.01,-0.06,0.78,5.0,0.98,0.12,884.65,21.47,
5437055,-0.01,-0.06,0.77,4.52,0.92,0.0,884.65,21.47,
5437145,-0.01,-0.06,0.76,4.58,1.16,0.0,884.72,21.45,
5437184,0.0,-0.07,0.77,4.76,1.34,-0.06,884.68,21.45,
5437222,-0.02,-0.07,0.73,4.58,2.08,-0.12,884.67,21.46,
5437260,-0.01,-0.07,0.73,4.88,2.08,-0.18,884.64,21.46,
5437298,-0.03,-0.07,0.65,4.46,3.54,-0.18,884.63,21.46,
5437337,-0.03,-0.06,0.67,4.7,3.48,-0.18,884.64,21.47,
5437387,-0.02,-0.07,0.65,4.33,3.97,-0.24,884.66,21.45,
5437425,-0.03,-0.06,0.68,4.09,3.66,-0.06,884.61,21.46,
5437463,-0.01,-0.07,0.66,3.78,3.66,0.06,884.6,21.48,
5437501,-0.02,-0.06,0.69,3.42,3.11,-0.06,884.64,21.47,
5437540,-0.02,-0.07,0.71,3.11,2.62,0.12,884.63,21.46,
5437578,-0.02,-0.07,0.71,2.38,1.77,0.18,884.62,21.47,
5437616,-0.01,-0.06,0.72,2.32,1.34,0.18,884.59,21.48,
5437654,-0.02,-0.06,0.68,1.77,1.46,0.12,884.65,21.48,
5437693,-0.02,-0.06,0.7,1.71,1.34,0.24,884.63,21.46,
5437731,-0.02,-0.07,0.7,1.28,1.59,0.18,884.6,21.48,
5437781,-0.03,-0.07,0.72,1.04,1.34,0.24,884.65,21.47,
5437820,-0.02,-0.07,0.74,0.85,1.89,0.24,884.62,21.47,
5437858,-0.02,-0.07,0.77,0.31,1.83,0.24,884.64,21.48,
5437896,-0.02,-0.06,0.83,0.18,1.77,0.55,884.66,21.47,
5437934,-0.02,-0.07,0.85,0.18,1.83,0.31,884.69,21.49,
5437973,-0.03,-0.06,0.85,-0.12,2.69,0.37,884.66,21.48,
5438011,-0.01,-0.06,0.91,-0.06,3.3,0.37,884.65,21.48,
5438049,-0.03,-0.05,0.94,0.12,3.6,0.43,884.67,21.48,
5438088,-0.02,-0.06,1.01,0.12,4.21,0.43,884.68,21.5,
5438126,-0.0,-0.06,1.05,0.18,4.94,0.37,884.68,21.49,
5438176,-0.03,-0.06,1.06,0.12,5.13,0.43,884.64,21.48,
5438214,-0.03,-0.05,1.08,0.18,6.35,0.49,884.71,21.49,
5438253,-0.03,-0.04,1.09,0.18,6.59,0.55,884.73,21.5,
5438291,-0.02,-0.05,1.09,0.37,6.1,0.61,884.67,21.48,
5438329,-0.03,-0.04,1.05,0.31,6.1,0.67,884.69,21.49,
5438368,-0.04,-0.05,1.06,0.37,5.8,0.85,884.72,21.49,
5438406,-0.01,-0.05,1.06,0.31,5.74,0.98,884.68,21.5,
5438444,-0.02,-0.05,1.07,0.61,5.68,0.98,884.72,21.49,
5438482,-0.04,-0.06,1.04,0.73,5.86,0.98,884.79,21.5,
5438532,-0.02,-0.05,1.05,1.22,5.37,1.28,884.71,21.47,
5438571,-0.02,-0.05,1.02,1.22,4.7,1.34,884.77,21.49,
5438609,-0.02,-0.06,0.99,1.59,4.64,1.34,884.76,21.49,
5438647,-0.03,-0.06,0.95,1.59,5.07,1.4,884.73,21.48,
5438686,-0.02,-0.06,0.92,1.59,5.07,1.34,884.8,21.49,
5438724,-0.02,-0.05,0.9,1.22,5.07,1.28,884.77,21.49,
5438762,-0.03,-0.05,0.89,1.22,5.13,1.28,884.78,21.49,
5438800,-0.03,-0.07,0.91,1.34,5.55,1.4,884.8,21.48,
5438838,-0.01,-0.06,0.96,1.46,5.19,1.34,884.7,21.48,
5438877,-0.02,-0.05,1.0,1.59,5.13,1.22,884.82,21.49,
5438927,-0.02,-0.05,1.01,1.59,5.31,1.34,884.76,21.47,
5438965,-0.0,-0.05,1.02,1.34,5.0,1.65,884.8,21.49,
5439003,-0.04,-0.06,1.0,1.34,4.58,1.4,884.75,21.48,
5439042,-0.03,-0.05,1.04,1.71,4.82,1.53,884.85,21.49,
5439080,-0.0,-0.06,0.98,1.71,5.37,1.4,884.83,21.49,
5439118,-0.02,-0.04,1.0,2.08,3.78,1.46,884.82,21.49,
5439156,-0.02,-0.06,0.96,1.89,4.03,1.71,884.82,21.48,
5439195,-0.01,-0.06,0.98,2.14,3.72,1.59,884.82,21.49,
5439233,-0.0,-0.06,1.0,2.38,3.72,1.59,884.82,21.48,
5439271,-0.01,-0.04,1.03,2.56,3.48,1.22,884.79,21.5,
5439321,-0.01,-0.05,1.03,2.62,4.33,1.22,884.81,21.48,
5439360,-0.01,-0.05,1.09,2.99,3.97,1.22,884.77,21.48,
5439398,-0.01,-0.06,1.05,2.44,5.25,1.04,884.79,21.48,
5439436,-0.02,-0.04,1.07,2.99,4.46,1.04,884.87,21.48,
5439475,-0.03,-0.05,1.04,3.17,4.88,0.98,884.86,21.51,
5439513,-0.02,-0.05,1.02,3.42,5.0,0.73,884.89,21.49,
5439551,-0.01,-0.06,0.99,3.3,5.37,0.79,884.86,21.48,
5439589,0.0,-0.05,0.97,3.66,5.62,0.79,884.82,21.48,
5439628,-0.01,-0.05,0.95,3.72,5.43,0.79,884.91,21.5,
5439678,0.0,-0.06,0.9,3.97,5.55,0.55,884.86,21.48,
5439716,-0.0,-0.05,0.91,3.85,5.25,0.37,884.88,21.49,
5439754,-0.0,-0.05,0.92,3.72,5.8,0.43,884.86,21.49,
5439793,0.01,-0.06,0.93,3.78,5.19,0.31,884.84,21.48,
5439831,-0.0,-0.06,0.93,3.54,4.88,0.24,884.83,21.48,
5439869,-0.01,-0.06,0.93,3.54,5.0,-0.06,884.9,21.48,
5439907,-0.01,-0.06,0.92,3.54,5.31,0.0,884.87,21.48,
5439946,-0.0,-0.06,0.92,3.42,5.0,-0.06,884.93,21.49,
5439984,-0.01,-0.05,0.92,3.23,4.52,-0.24,884.93,21.49,
5440022,-0.01,-0.05,0.93,3.17,4.03,-0.18,884.91,21.49,
5440099,-0.0,-0.05,0.98,2.93,2.38,-0.31,884.9,21.45,
5440137,-0.01,-0.06,0.96,2.5,2.32,-0.37,884.86,21.46,
5440175,-0.01,-0.05,1.01,2.87,1.22,-0.73,884.9,21.47,
5440265,-0.0,-0.05,1.02,2.81,0.67,-0.92,884.94,21.44,
5440304,0.0,-0.05,1.04,2.87,0.67,-1.1,884.95,21.47,
5440342,0.0,-0.05,1.05,2.81,0.06,-1.34,884.96,21.47,
5440380,-0.01,-0.05,1.05,2.93,-0.06,-1.34,884.93,21.46,
5440419,-0.0,-0.05,1.06,2.62,0.12,-1.59,884.95,21.48,
5440457,-0.0,-0.06,1.03,2.69,0.55,-1.59,884.93,21.45,
5440507,-0.0,-0.05,1.04,2.56,0.31,-1.77,884.9,21.45,
5440545,-0.0,-0.06,1.02,2.56,0.67,-1.89,884.88,21.46,
5440583,0.0,-0.05,1.04,2.69,0.49,-2.2,884.93,21.47,
5440622,-0.01,-0.06,1.04,2.93,0.79,-2.38,884.94,21.47,
5440660,-0.02,-0.06,1.04,3.05,0.67,-2.32,885.02,21.47,
5440698,-0.01,-0.05,1.06,3.3,1.04,-2.56,884.95,21.46,
5440737,0.0,-0.05,1.06,3.42,1.16,-2.69,884.96,21.47,
5440775,-0.01,-0.05,1.02,3.72,0.98,-2.62,884.98,21.47,
5440813,-0.03,-0.06,1.02,4.09,0.98,-2.69,885.01,21.47,
5440852,0.0,-0.05,1.01,4.27,0.67,-2.81,885.0,21.46,
5440902,-0.02,-0.05,0.97,4.58,0.73,-2.93,885.01,21.45,
5440940,-0.02,-0.06,0.95,5.07,0.49,-3.17,884.97,21.46,
5440978,-0.02,-0.07,0.93,5.13,0.85,-3.23,884.96,21.47,
5441017,-0.03,-0.06,0.92,5.13,1.16,-3.36,884.97,21.47,
5441055,-0.02,-0.06,0.92,5.25,1.46,-3.42,885.01,21.46,
5441093,-0.04,-0.07,0.9,5.07,1.65,-3.54,885.01,21.46,
5441132,-0.02,-0.07,0.89,5.0,2.26,-3.42,885.02,21.47,
5441170,-0.03,-0.06,0.89,5.0,2.56,-3.72,884.96,21.46,
5441208,-0.04,-0.06,0.88,5.07,2.44,-3.42,884.98,21.46,
5441258,-0.03,-0.06,0.88,5.0,2.2,-3.54,885.01,21.46,
5441297,-0.05,-0.07,0.84,5.13,2.5,-3.48,885.05,21.48,
5441335,-0.04,-0.07,0.83,5.25,2.5,-3.42,885.02,21.47,
5441373,-0.03,-0.06,0.82,5.07,2.69,-3.36,885.0,21.48,
5441412,-0.04,-0.06,0.8,4.88,2.62,-3.23,885.04,21.47,
5441450,-0.04,-0.07,0.78,4.39,2.93,-3.11,885.05,21.48,
5441488,-0.04,-0.07,0.82,4.64,1.89,-3.11,885.01,21.47,
5441527,-0.05,-0.07,0.76,4.21,2.38,-3.05,885.01,21.47,
5441565,-0.05,-0.05,0.8,4.33,1.28,-2.99,885.08,21.48,
5441603,-0.02,-0.07,0.81,3.97,0.92,-2.81,885.06,21.48,
5441653,-0.04,-0.06,0.84,3.91,-0.18,-2.75,885.07,21.46,
5441691,-0.05,-0.07,0.78,3.72,0.24,-2.56,885.05,21.47,
5441730,-0.03,-0.06,0.8,3.72,-0.61,-2.44,885.09,21.47,
5441768,-0.06,-0.07,0.76,3.72,-1.1,-2.26,885.1,21.47,
5441806,-0.07,-0.06,0.74,3.54,-1.59,-2.32,885.07,21.47,
5441845,-0.06,-0.06,0.76,3.85,-0.98,-2.08,885.07,21.48,
5441883,-0.05,-0.07,0.72,3.42,-1.1,-1.95,885.12,21.47,
5441921,-0.06,-0.05,0.77,3.91,-1.22,-1.95,885.12,21.48,
5441959,-0.07,-0.08,0.76,3.42,-0.18,-1.77,885.11,21.48,
5442009,-0.04,-0.07,0.82,2.99,-0.12,-1.83,885.16,21.47,
5442048,-0.08,-0.07,0.8,2.26,0.98,-1.53,885.13,21.47,
5442086,-0.08,-0.06,0.8,1.89,2.08,-1.22,885.2,21.48,
5442124,-0.06,-0.07,0.89,2.14,2.69,-1.34,885.19,21.47,
5442162,-0.05,-0.08,0.85,1.34,3.54,-0.98,885.18,21.49,
5442201,-0.05,-0.06,0.91,1.71,3.72,-0.61,885.21,21.48,
5442239,-0.06,-0.07,0.91,1.34,4.88,-0.55,885.31,21.49,
5442277,-0.06,-0.07,0.92,1.04,4.58,-0.31,885.23,21.5,
5442316,-0.06,-0.06,0.91,1.04,4.03,-0.06,885.27,21.49,
5442354,-0.07,-0.07,0.92,0.85,4.46,0.12,885.24,21.48,
