timestamp,acc_x,acc_y,acc_z,rot_x,rot_y,rot_z,qfe,temp,Unnamed: 10
6651505,-0.03,-0.07,1.1,1.65,2.44,3.11,938.48,21.28,
6651543,-0.02,-0.06,1.11,1.16,2.87,3.17,938.46,21.28,
6651581,-0.05,-0.06,1.04,1.34,1.89,3.11,938.44,21.27,
6651620,-0.06,-0.06,1.02,1.04,2.99,3.3,938.5,21.28,
6651658,-0.03,-0.07,0.94,0.98,4.39,3.23,938.5,21.28,
6651696,-0.03,-0.06,0.99,1.34,3.11,3.11,938.44,21.29,
6651734,-0.03,-0.07,0.96,1.28,3.48,3.48,938.48,21.28,
6651773,-0.02,-0.07,0.96,1.46,3.42,2.99,938.46,21.27,
6651811,-0.02,-0.07,0.96,1.53,4.33,2.99,938.49,21.28,
6651887,-0.02,-0.06,1.03,1.16,3.42,3.11,938.45,21.26,
6651925,-0.03,-0.06,1.03,0.73,3.48,3.05,938.48,21.26,
6651964,-0.02,-0.07,1.01,0.67,3.05,2.93,938.47,21.27,
6652054,-0.02,-0.06,0.99,0.37,2.69,2.87,938.45,21.24,
6652092,-0.02,-0.07,1.02,0.61,3.54,2.62,938.48,21.26,
6652130,-0.01,-0.06,1.05,0.55,4.03,2.62,938.5,21.26,
6652168,-0.05,-0.06,1.06,0.98,3.97,2.56,938.49,21.26,
6652207,-0.04,-0.06,1.05,0.98,4.15,2.56,938.41,21.25,
6652245,-0.01,-0.05,1.1,1.28,4.33,2.26,938.43,21.27,
6652283,-0.01,-0.06,1.1,1.46,4.7,2.44,938.45,21.27,
6652333,-0.04,-0.06,1.08,1.34,4.39,2.44,938.41,21.25,
6652371,-0.04,-0.06,1.11,1.46,4.94,2.5,938.4,21.26,
6652410,-0.03,-0.05,1.11,1.53,4.88,2.62,938.41,21.26,
6652448,-0.04,-0.06,1.07,1.83,4.33,2.81,938.45,21.25,
6652486,-0.04,-0.06,1.05,2.01,4.27,2.87,938.46,21.27,
6652524,-0.05,-0.07,0.96,2.26,5.0,2.99,938.47,21.27,
6652563,-0.01,-0.06,0.92,2.01,4.39,3.11,938.52,21.27,
6652601,-0.03,-0.07,0.88,2.2,4.52,3.3,938.48,21.27,
6652639,-0.02,-0.06,0.89,2.08,4.39,3.36,938.48,21.27,
6652689,-0.01,-0.07,0.89,2.08,4.39,3.05,938.43,21.26,
6652727,-0.02,-0.08,0.89,1.53,4.39,3.11,938.42,21.26,
6652766,-0.03,-0.07,0.89,1.34,4.7,2.93,938.49,21.26,
6652804,-0.03,-0.06,0.92,1.34,4.82,2.62,938.43,21.27,
6652842,-0.03,-0.07,0.9,0.67,5.31,2.75,938.5,21.27,
6652880,-0.02,-0.07,0.95,1.1,4.94,2.75,938.45,21.28,
6652919,-0.03,-0.06,0.95,1.04,5.8,2.44,938.48,21.27,
6652957,-0.01,-0.05,0.97,0.92,5.86,2.38,938.49,21.27,
6652995,-0.03,-0.06,1.04,1.71,5.49,2.38,938.39,21.28,
6653033,-0.03,-0.06,1.09,1.4,5.86,2.62,938.42,21.27,
6653083,-0.04,-0.05,1.15,1.83,5.8,2.56,938.46,21.26,
6653122,-0.03,-0.06,1.14,1.65,6.41,2.56,938.49,21.27,
6653160,-0.02,-0.05,1.17,2.26,5.98,2.38,938.5,21.28,
6653198,-0.05,-0.06,1.09,2.26,6.65,2.5,938.48,21.28,
6653236,-0.05,-0.05,1.05,2.08,6.41,2.5,938.43,21.27,
6653275,-0.03,-0.06,1.01,2.08,7.14,2.62,938.5,21.28,
6653313,-0.02,-0.06,1.01,2.08,6.41,2.32,938.48,21.28,
6653351,-0.04,-0.07,0.99,2.44,6.71,2.32,938.44,21.28,
6653389,-0.04,-0.07,0.98,2.75,7.51,2.44,938.48,21.28,
6653428,-0.0,-0.07,0.99,2.56,7.2,2.38,938.42,21.27,
6653478,-0.04,-0.06,0.92,2.38,6.47,2.2,938.41,21.26,
6653516,-0.03,-0.07,0.9,2.26,6.77,2.26,938.49,21.28,
6653554,-0.02,-0.08,0.91,2.5,6.84,2.01,938.47,21.29,
6653592,-0.01,-0.06,0.91,2.44,5.92,1.89,938.34,21.28,
6653631,-0.06,-0.06,0.88,2.44,5.49,2.08,938.39,21.28,
6653669,-0.03,-0.08,0.89,2.01,5.55,2.14,938.43,21.28,
6653707,-0.02,-0.08,0.93,2.01,5.19,1.83,938.44,21.28,
6653745,-0.02,-0.07,0.91,1.59,5.19,2.01,938.44,21.28,
6653784,-0.04,-0.07,0.93,1.77,4.7,1.95,938.4,21.26,
6653834,-0.01,-0.06,0.93,1.46,4.33,1.77,938.39,21.27,
6653872,-0.03,-0.07,0.95,1.4,3.11,1.83,938.39,21.27,
6653910,-0.02,-0.07,0.93,1.34,2.5,1.95,938.4,21.27,
6653948,-0.02,-0.06,0.93,1.71,0.12,1.77,938.42,21.28,
6653987,-0.02,-0.07,0.92,1.59,-0.18,1.95,938.44,21.28,
6654025,-0.0,-0.06,0.9,1.83,-1.34,1.71,938.44,21.27,
6654063,-0.03,-0.07,0.93,2.14,-2.75,1.83,938.46,21.29,
6654101,-0.02,-0.08,0.85,1.65,-2.44,1.71,938.38,21.28,
6654140,-0.01,-0.07,0.87,2.08,-2.99,1.53,938.39,21.27,
6654178,-0.03,-0.08,0.85,1.95,-3.11,1.53,938.44,21.29,
6654228,-0.04,-0.06,0.85,1.83,-4.09,1.34,938.39,21.27,
6654266,-0.02,-0.07,0.86,1.65,-3.6,1.22,938.45,21.27,
6654304,-0.03,-0.06,0.88,1.22,-3.42,1.28,938.46,21.28,
6654343,-0.04,-0.06,0.9,1.53,-3.11,1.28,938.51,21.28,
6654381,-0.04,-0.07,0.92,1.34,-2.5,1.34,938.46,21.29,
6654419,-0.03,-0.06,0.96,1.34,-2.32,1.1,938.52,21.29,
6654457,-0.04,-0.07,0.94,1.16,-1.46,1.1,938.5,21.28,
6654496,-0.02,-0.07,0.94,1.4,-1.77,1.28,938.5,21.29,
6654534,-0.03,-0.06,0.97,1.46,-1.22,1.16,938.51,21.28,
6654584,-0.03,-0.06,0.95,1.53,-0.85,1.34,938.54,21.27,
6654622,-0.03,-0.07,0.97,1.59,-0.31,1.04,938.51,21.28,
6654660,-0.02,-0.06,1.0,1.71,0.24,1.16,938.52,21.28,
6654699,-0.03,-0.06,0.98,1.77,0.73,1.1,938.51,21.27,
6654737,-0.03,-0.05,0.99,1.71,0.0,1.04,938.53,21.28,
6654775,-0.02,-0.06,0.97,1.95,0.31,1.1,938.52,21.29,
6654813,-0.03,-0.07,0.91,1.59,0.79,1.1,938.51,21.28,
6654852,-0.03,-0.06,0.95,1.89,0.49,1.16,938.56,21.29,
6654890,-0.01,-0.07,0.9,1.71,1.71,0.98,938.51,21.28,
6654928,-0.03,-0.06,0.95,1.77,1.34,0.98,938.51,21.28,
6655004,-0.04,-0.06,0.93,2.26,2.75,0.98,938.53,21.25,
6655042,-0.04,-0.06,0.92,1.95,3.3,0.98,938.54,21.27,
6655081,-0.03,-0.06,0.95,2.01,2.99,0.92,938.56,21.27,
6655170,-0.03,-0.06,1.02,2.14,2.87,0.98,938.58,21.25,
6655209,-0.03,-0.07,0.99,1.89,2.75,1.22,938.55,21.26,
6655247,-0.02,-0.04,1.05,2.32,1.16,1.1,938.55,21.26,
6655285,-0.04,-0.07,1.02,1.95,2.08,1.16,938.59,21.28,
6655323,-0.04,-0.07,0.96,1.65,1.1,1.16,938.56,21.27,
6655362,-0.04,-0.05,1.0,2.14,0.31,1.22,938.55,21.26,
6655400,-0.03,-0.06,0.88,1.65,0.24,1.22,938.57,21.27,
6655450,-0.05,-0.06,0.89,2.26,-0.24,1.28,938.56,21.26,
6655488,-0.04,-0.07,0.85,1.77,1.04,1.28,938.54,21.27,
6655526,-0.04,-0.07,0.85,1.71,0.43,1.16,938.51,21.27,
6655565,-0.04,-0.06,0.95,2.2,0.0,1.28,938.55,21.27,
6655603,-0.05,-0.07,0.88,1.89,1.04,1.22,938.56,21.27,
6655641,-0.03,-0.06,0.97,2.56,-0.06,1.16,938.56,21.27,
6655679,-0.06,-0.07,0.92,2.38,1.04,1.46,938.56,21.28,
6655718,-0.07,-0.05,0.93,2.44,0.92,1.16,938.57,21.28,
6655756,-0.06,-0.04,1.08,3.11,1.53,1.34,938.63,21.28,
6655806,-0.04,-0.07,0.89,1.83,2.14,1.59,938.57,21.27,
6655844,-0.08,-0.05,1.0,3.72,0.67,2.01,938.6,21.27,
6655882,-0.04,-0.09,0.74,1.71,3.91,2.08,938.66,21.28,
6655921,-0.02,-0.04,0.87,3.23,-0.37,2.26,938.67,21.28,
6655959,-0.05,-0.08,0.74,4.15,1.77,2.69,938.63,21.28,
6655997,-0.05,-0.08,0.77,2.99,1.04,2.75,938.66,21.28,
6656035,-0.05,-0.07,0.79,3.85,2.32,2.93,938.62,21.27,
6656074,-0.03,-0.07,0.74,2.44,0.79,2.87,938.64,21.28,
6656112,-0.01,-0.08,0.82,2.26,1.16,2.87,938.63,21.28,
6656150,-0.01,-0.08,0.85,1.28,1.1,2.93,938.65,21.27,
6656200,-0.01,-0.08,0.9,1.28,0.61,2.99,938.69,21.27,
6656238,-0.01,-0.07,0.88,0.37,0.37,2.75,938.72,21.28,
6656277,-0.04,-0.05,0.92,0.49,0.79,2.75,938.7,21.28,
6656315,-0.02,-0.09,0.85,-0.12,1.59,2.81,938.74,21.28,
6656353,-0.02,-0.08,0.94,0.43,0.24,2.56,938.73,21.28,
6656391,-0.01,-0.07,0.94,-0.24,1.04,2.62,938.71,21.28,
6656430,-0.02,-0.07,0.99,0.18,0.98,2.69,938.76,21.28,
6656468,-0.04,-0.08,0.9,-0.12,1.46,2.44,938.76,21.28,
6656506,-0.04,-0.06,0.93,-0.06,1.22,2.5,938.75,21.28,
6656556,-0.02,-0.09,0.92,-0.06,1.46,2.56,938.79,21.29,
6656594,-0.05,-0.08,0.84,-0.61,2.2,2.56,938.78,21.28,
6656633,-0.04,-0.07,0.91,-0.06,2.81,2.32,938.74,21.28,
6656671,-0.04,-0.08,0.9,-0.85,3.36,2.26,938.71,21.28,
6656709,-0.02,-0.07,1.06,-0.67,1.28,2.69,938.77,21.28,
6656747,-0.04,-0.07,1.1,-0.98,3.23,2.5,938.79,21.29,
6656786,-0.05,-0.06,1.15,-1.22,4.33,2.44,938.78,21.29,
6656824,-0.03,-0.07,1.2,-1.04,4.94,2.69,938.78,21.29,
6656862,-0.02,-0.06,1.27,-1.34,4.76,2.38,938.78,21.29,
6656900,-0.06,-0.07,1.25,-1.22,5.92,2.75,938.81,21.29,
6656950,-0.03,-0.05,1.28,-0.73,4.94,2.87,938.83,21.28,
6656989,-0.04,-0.04,1.34,-0.37,5.07,2.93,938.76,21.28,
6657027,-0.04,-0.07,1.36,-0.18,5.55,3.23,938.76,21.28,
6657065,-0.05,-0.06,1.43,-0.31,5.37,3.3,938.82,21.29,
6657103,-0.03,-0.04,1.42,-0.49,4.27,3.72,938.79,21.28,
6657142,-0.03,-0.04,1.45,-0.55,2.69,4.03,938.83,21.29,
6657180,-0.03,-0.04,1.42,-0.43,2.75,4.33,938.85,21.29,
6657218,-0.01,-0.06,1.45,0.18,1.04,4.27,938.88,21.29,
6657256,-0.01,-0.06,1.34,-0.24,0.24,4.03,938.83,21.27,
6657306,-0.02,-0.04,1.31,0.31,1.28,4.21,938.87,21.26,
6657345,-0.01,-0.07,1.22,-0.18,2.32,3.97,938.88,21.28,
6657383,-0.03,-0.07,1.23,0.79,2.01,3.66,938.85,21.29,
6657421,-0.05,-0.07,1.12,0.61,3.54,3.78,938.86,21.28,
6657459,-0.04,-0.05,1.1,1.1,4.7,3.54,938.83,21.28,
6657498,0.01,-0.06,1.09,0.67,5.86,3.48,938.8,21.29,
6657536,-0.05,-0.07,1.18,1.4,3.36,3.85,938.87,21.3,
6657574,-0.07,-0.09,1.24,1.46,3.85,4.15,938.8,21.29,
6657613,-0.05,-0.09,1.15,1.34,5.19,4.03,938.85,21.29,
6657651,-0.05,-0.04,1.13,1.1,4.82,3.85,938.84,21.29,
6657701,-0.04,-0.09,1.08,1.89,6.53,4.27,938.84,21.27,
6657739,-0.05,-0.1,1.01,1.77,6.71,4.15,938.83,21.28,
6657777,-0.03,-0.07,1.11,2.81,5.43,4.09,938.86,21.29,
6657816,-0.04,-0.07,0.93,1.53,7.32,4.21,938.81,21.29,
6657854,-0.03,-0.07,1.03,1.89,5.0,4.39,938.84,21.29,
6657892,-0.03,-0.09,1.09,1.65,5.68,4.39,938.78,21.28,
6657930,-0.04,-0.09,1.02,1.53,5.98,4.21,938.81,21.28,
6657968,-0.03,-0.06,1.14,2.32,5.13,4.33,938.79,21.29,
6658007,-0.02,-0.08,1.06,1.34,6.35,4.27,938.86,21.3,
6658045,-0.06,-0.06,1.1,1.77,4.03,4.46,938.76,21.29,
6658121,-0.03,-0.05,1.17,1.04,2.99,4.58,938.84,21.27,
6658159,-0.07,-0.07,1.14,0.73,4.7,5.0,938.88,21.28,
6658197,-0.02,-0.05,1.28,1.46,3.23,4.94,938.87,21.29,
6658287,-0.02,-0.05,1.33,1.1,3.48,5.43,938.9,21.24,
6658326,-0.02,-0.07,1.25,0.61,5.31,5.43,938.87,21.26,
6658364,-0.0,-0.06,1.25,0.98,4.15,5.07,938.88,21.27,
6658402,-0.02,-0.07,1.19,0.61,4.58,5.25,938.88,21.27,
6658441,-0.0,-0.07,1.13,0.61,4.33,4.94,938.9,21.28,
6658479,-0.0,-0.06,1.18,0.55,4.94,4.94,938.84,21.27,
6658529,0.0,-0.07,1.2,0.31,4.52,5.07,938.83,21.25,
6658567,-0.02,-0.07,1.17,-0.18,4.33,4.76,938.88,21.27,
6658605,-0.02,-0.06,1.22,0.49,3.66,4.58,938.87,21.28,
6658644,0.01,-0.09,1.09,-0.06,4.7,4.39,938.87,21.28,
6658682,-0.03,-0.06,1.11,0.73,2.44,4.64,938.82,21.28,
6658720,0.01,-0.08,1.06,0.24,3.85,4.52,938.86,21.28,
6658758,0.02,-0.06,1.04,0.0,3.05,4.09,938.81,21.28,
6658797,-0.04,-0.06,1.09,0.92,1.46,4.39,938.81,21.28,
6658835,-0.04,-0.08,1.05,0.49,1.71,4.52,938.81,21.28,
6658873,-0.01,-0.06,1.16,0.67,0.43,3.97,938.8,21.29,
6658923,-0.01,-0.06,1.16,0.43,0.67,4.03,938.8,21.28,
6658962,-0.02,-0.07,1.12,0.31,0.0,4.27,938.81,21.29,
6659000,-0.01,-0.07,1.12,-0.37,0.92,3.91,938.8,21.28,
6659038,-0.01,-0.07,1.15,0.31,0.73,3.6,938.82,21.28,
6659076,-0.01,-0.06,1.12,0.37,1.34,3.54,938.73,21.28,
6659115,-0.02,-0.08,1.04,0.98,0.92,3.48,938.78,21.28,
6659153,-0.02,-0.06,1.05,1.4,0.55,3.05,938.75,21.29,
6659191,-0.02,-0.09,1.02,1.89,2.93,3.05,938.79,21.3,
6659229,-0.04,-0.07,0.89,1.53,4.09,2.69,938.8,21.29,
6659268,-0.04,-0.06,0.99,2.81,3.54,2.93,938.74,21.29,
6659318,-0.03,-0.07,0.86,1.59,5.0,2.87,938.71,21.27,
6659356,-0.03,-0.05,1.04,3.54,2.44,2.93,938.72,21.28,
6659394,-0.02,-0.1,0.95,2.69,3.97,2.99,938.72,21.29,
6659433,0.0,-0.04,1.11,3.72,0.92,2.93,938.74,21.28,
6659471,-0.02,-0.08,1.04,3.72,0.92,3.36,938.67,21.28,
6659509,0.01,-0.07,1.05,3.42,-1.28,3.42,938.63,21.27,
6659547,-0.01,-0.07,1.07,3.6,-2.69,3.36,938.63,21.28,
6659586,0.01,-0.08,1.04,2.87,-2.44,3.23,938.64,21.27,
6659624,0.0,-0.08,1.03,2.69,-2.99,2.99,938.66,21.28,
6659674,-0.01,-0.06,1.02,2.14,-2.38,2.62,938.6,21.26,
6659712,-0.0,-0.07,1.03,2.44,-1.71,2.56,938.66,21.27,
6659751,-0.01,-0.07,1.03,2.08,-0.79,2.5,938.64,21.28,
6659789,-0.02,-0.08,1.08,2.14,0.49,2.01,938.59,21.28,
6659827,-0.02,-0.09,1.04,1.46,2.01,2.01,938.58,21.29,
6659865,-0.01,-0.06,1.13,2.01,2.87,1.65,938.56,21.28,
6659904,0.0,-0.08,1.02,1.53,5.68,1.53,938.56,21.28,
6659942,0.02,-0.08,1.1,2.14,5.0,1.4,938.6,21.3,
6659980,0.0,-0.09,1.09,1.71,5.8,1.53,938.5,21.27,
6660019,-0.01,-0.08,1.08,2.08,4.76,1.59,938.53,21.29,
6660069,-0.01,-0.06,1.1,2.08,2.32,1.71,938.52,21.28,
6660107,-0.01,-0.08,1.04,2.01,2.75,1.83,938.52,21.28,
6660145,0.02,-0.09,1.03,1.77,1.46,1.59,938.49,21.27,
6660183,0.01,-0.08,1.07,1.83,1.89,1.46,938.55,21.29,
6660222,0.02,-0.09,0.92,0.79,2.5,1.46,938.5,21.29,
6660260,0.0,-0.07,0.96,1.1,3.05,1.4,938.51,21.29,
6660298,0.0,-0.08,0.89,0.67,4.27,1.22,938.47,21.29,
6660337,-0.01,-0.09,0.92,0.92,3.36,1.04,938.47,21.29,
6660375,0.0,-0.09,0.9,0.49,4.21,0.85,938.48,21.3,
6660413,0.03,-0.07,0.96,0.43,4.15,0.49,938.46,21.29,
6660463,0.01,-0.07,0.99,0.12,4.7,0.79,938.42,21.28,
6660501,-0.0,-0.08,0.95,-0.12,5.25,0.67,938.42,21.29,
6660540,-0.01,-0.08,0.95,0.06,5.74,0.49,938.42,21.27,
6660578,-0.0,-0.07,0.99,0.31,5.62,0.37,938.47,21.29,
6660616,0.01,-0.08,0.99,0.49,5.55,0.31,938.44,21.29,
6660654,-0.01,-0.08,1.0,0.49,5.68,0.18,938.38,21.28,
6660693,-0.01,-0.08,1.0,0.67,6.1,0.31,938.4,21.29,
6660731,-0.0,-0.07,1.0,0.49,5.92,0.31,938.35,21.29,
6660769,-0.01,-0.06,1.03,0.79,5.49,0.37,938.39,21.3,
6660807,-0.03,-0.08,1.03,0.79,5.07,0.37,938.37,21.3,
6660857,-0.03,-0.07,1.05,1.28,4.64,0.43,938.39,21.28,
6660896,-0.02,-0.06,1.07,1.71,4.52,0.43,938.37,21.29,
6660934,-0.02,-0.06,1.05,1.59,5.07,0.67,938.33,21.28,
6660972,-0.02,-0.06,1.07,2.01,4.64,0.85,938.38,21.29,
6661011,-0.03,-0.07,1.02,1.71,5.07,0.98,938.3,21.28,
6661049,-0.03,-0.07,1.09,2.56,4.33,0.98,938.35,21.29,
6661087,-0.02,-0.07,1.03,2.32,4.58,0.92,938.29,21.29,
6661126,-0.03,-0.07,1.05,2.69,3.91,1.04,938.29,21.29,
6661164,-0.02,-0.07,1.03,2.44,4.88,1.22,938.24,21.29,
6661241,-0.02,-0.06,1.0,2.81,4.03,1.59,938.26,21.26,
6661279,-0.03,-0.07,0.96,2.69,4.09,1.71,938.27,21.27,
6661318,-0.01,-0.07,0.99,2.69,2.38,1.65,938.21,21.26,
6661408,-0.02,-0.07,0.92,2.14,0.18,2.08,938.21,21.25,
6661446,0.01,-0.09,0.89,1.95,0.55,1.77,938.23,21.26,
6661484,-0.02,-0.08,0.85,1.71,-0.12,1.89,938.14,21.26,
6661522,-0.02,-0.07,0.87,1.71,-0.55,1.95,938.14,21.27,
6661561,-0.0,-0.08,0.84,0.79,0.61,1.77,938.14,21.27,
6661599,-0.02,-0.08,0.88,0.61,1.04,1.59,938.17,21.28,
6661637,-0.02,-0.08,0.9,0.12,1.71,1.59,938.09,21.26,
6661687,-0.01,-0.08,0.92,0.24,2.01,1.59,938.14,21.26,
6661725,-0.01,-0.07,0.94,-0.24,2.32,1.46,938.09,21.27,
6661764,-0.02,-0.07,0.95,0.06,2.38,1.59,938.15,21.27,
6661802,-0.02,-0.08,0.94,-0.06,2.62,1.71,938.14,21.28,
6661840,-0.02,-0.07,0.97,0.24,1.77,1.77,938.1,21.29,
6661878,-0.01,-0.08,0.94,0.24,2.44,1.83,938.15,21.28,
6661917,-0.02,-0.07,0.95,0.73,2.08,1.65,938.11,21.29,
6661955,-0.03,-0.07,0.94,0.73,2.62,1.71,938.12,21.28,
6661993,-0.02,-0.06,0.96,0.73,1.83,1.95,938.08,21.29,
6662043,-0.02,-0.08,0.98,1.04,1.46,2.01,938.09,21.28,
6662082,-0.03,-0.07,1.02,0.92,0.98,1.89,938.06,21.29,
6662120,-0.04,-0.07,1.03,0.92,1.53,2.32,938.04,21.28,
6662158,-0.01,-0.07,1.0,0.79,1.65,2.2,938.07,21.29,
6662196,-0.03,-0.06,1.05,1.34,0.61,2.5,938.02,21.28,
6662235,-0.03,-0.08,0.97,1.22,1.4,2.56,937.98,21.28,
6662273,-0.02,-0.07,1.0,1.71,1.16,2.5,938.04,21.29,
6662311,-0.03,-0.07,0.99,2.08,1.46,2.75,938.04,21.29,
6662350,-0.03,-0.08,0.93,2.26,1.28,2.75,938.05,21.29,
6662388,-0.03,-0.07,0.94,2.75,1.1,2.62,938.0,21.29,
6662438,-0.01,-0.08,0.86,2.75,2.01,2.81,938.02,21.28,
6662476,-0.04,-0.08,0.85,2.81,1.34,2.93,937.98,21.28,
6662514,-0.03,-0.08,0.81,2.38,1.59,3.05,937.97,21.28,
6662553,-0.01,-0.07,0.82,2.44,1.22,2.99,938.02,21.3,
6662591,-0.01,-0.07,0.81,2.26,1.16,3.05,937.97,21.28,
6662629,-0.01,-0.08,0.79,2.2,1.1,2.81,937.96,21.28,
6662667,-0.01,-0.08,0.8,1.95,1.34,2.81,937.93,21.28,
6662706,-0.01,-0.07,0.79,1.83,1.34,2.87,937.95,21.28,
6662744,-0.02,-0.07,0.79,1.53,1.77,2.93,937.91,21.28,
6662782,-0.02,-0.07,0.77,1.4,2.44,2.81,937.91,21.29,
6662832,-0.02,-0.07,0.79,1.4,2.99,2.93,937.95,21.29,
6662871,-0.01,-0.08,0.79,1.28,3.54,2.62,937.91,21.28,
6662909,-0.0,-0.07,0.82,1.22,3.97,2.56,937.92,21.29,
6662947,-0.01,-0.07,0.83,1.16,5.0,2.69,937.92,21.3,
6662985,-0.0,-0.07,0.87,1.1,5.62,2.62,937.92,21.28,
6663024,-0.01,-0.07,0.85,0.85,5.92,2.5,937.94,21.29,
6663062,-0.01,-0.07,0.87,0.98,5.31,2.62,937.89,21.3,
6663100,0.0,-0.07,0.91,1.4,5.25,2.38,937.9,21.3,
6663138,0.0,-0.07,0.87,1.16,4.94,2.5,937.87,21.3,
6663177,-0.0,-0.06,0.88,1.77,4.03,2.56,937.86,21.28,
6663227,-0.01,-0.06,0.87,1.4,4.15,2.69,937.85,21.27,
6663265,-0.01,-0.06,0.93,1.71,2.99,2.75,937.94,21.29,
6663303,-0.01,-0.06,0.92,1.46,3.23,2.75,937.91,21.29,
6663341,-0.01,-0.06,0.96,1.65,2.81,2.69,937.87,21.3,
6663380,-0.0,-0.06,0.95,1.22,3.54,2.87,937.88,21.29,
6663418,-0.01,-0.06,0.96,1.4,2.81,2.87,937.86,21.3,
6663456,0.0,-0.06,0.96,1.22,2.99,2.81,937.86,21.29,
6663494,0.0,-0.06,0.97,1.1,3.05,2.75,937.87,21.28,
6663533,-0.01,-0.06,0.97,1.1,3.78,2.87,937.87,21.29,
6663583,0.0,-0.06,0.98,1.1,4.09,2.87,937.81,21.28,
6663621,-0.01,-0.06,0.98,0.79,4.88,2.69,937.77,21.28,
6663659,0.0,-0.05,1.01,1.1,4.82,2.81,937.83,21.29,
6663697,0.0,-0.06,1.01,1.1,5.55,2.5,937.83,21.29,
6663736,0.02,-0.05,1.02,1.04,5.49,2.62,937.78,21.29,
6663774,0.01,-0.05,1.06,0.85,5.86,2.44,937.79,21.29,
6663812,0.01,-0.06,1.04,0.73,6.53,2.56,937.75,21.29,
6663850,0.0,-0.06,1.05,0.85,6.65,2.5,937.7,21.28,
6663889,0.01,-0.06,1.05,0.85,7.39,2.5,937.76,21.29,
6663927,0.01,-0.05,1.05,0.92,7.87,2.38,937.75,21.3,
6663977,0.02,-0.05,1.06,1.04,9.03,2.14,937.73,21.28,
6664015,0.03,-0.06,1.05,0.98,10.13,1.83,937.73,21.28,
6664053,0.02,-0.05,1.07,1.22,10.74,1.89,937.74,21.29,
6664092,0.01,-0.05,1.04,1.04,11.84,1.89,937.69,21.28,
6664130,0.02,-0.05,1.09,1.46,12.27,1.83,937.66,21.29,
6664168,0.03,-0.06,1.07,1.53,12.94,1.59,937.72,21.29,
6664207,0.03,-0.05,1.06,1.71,13.18,1.46,937.71,21.29,
6664245,0.03,-0.03,1.07,1.59,13.37,1.4,937.68,21.3,
6664283,0.02,-0.05,1.07,1.95,13.37,1.28,937.64,21.29,
6664321,0.02,-0.05,1.08,1.89,13.31,1.34,937.7,21.3,
6664397,0.03,-0.04,1.05,2.38,13.73,1.04,937.64,21.26,
6664436,0.03,-0.05,1.04,2.56,13.73,0.98,937.71,21.28,
6664474,0.03,-0.05,1.04,2.75,13.43,0.73,937.65,21.29,
6664564,0.03,-0.05,1.04,3.11,12.76,0.55,937.69,21.24,
6664602,0.03,-0.05,1.06,3.23,12.94,0.43,937.69,21.27,
6664640,0.04,-0.06,1.0,2.99,12.94,0.24,937.72,21.28,
6664679,0.05,-0.06,1.03,3.11,12.57,-0.12,937.69,21.27,
6664717,0.04,-0.06,0.96,2.62,13.24,-0.24,937.67,21.27,
6664755,0.04,-0.05,0.99,2.99,12.33,-0.49,937.68,21.29,
6664805,0.03,-0.07,0.96,2.5,12.82,-0.79,937.63,21.26,
6664843,0.03,-0.05,0.97,2.56,11.6,-0.92,937.69,21.27,
6664882,0.03,-0.06,0.99,2.44,11.54,-1.22,937.67,21.27,
6664920,0.04,-0.06,0.95,2.2,11.11,-1.53,937.67,21.28,
6664958,0.05,-0.06,0.98,2.38,10.8,-1.71,937.71,21.29,
6664997,0.03,-0.06,0.92,2.32,11.17,-1.83,937.65,21.29,
6665035,0.04,-0.05,0.94,2.38,10.13,-2.01,937.64,21.27,
6665073,0.03,-0.05,0.94,2.14,10.56,-2.32,937.66,21.27,
6665111,0.03,-0.07,0.9,1.95,10.19,-2.69,937.67,21.28,
6665150,0.02,-0.06,0.92,2.26,9.77,-2.75,937.63,21.28,
6665200,0.01,-0.06,0.87,1.83,10.62,-3.11,937.65,21.27,
6665238,0.02,-0.06,0.87,1.95,10.5,-3.42,937.72,21.28,
6665276,0.01,-0.06,0.84,2.14,10.86,-3.36,937.67,21.28,
6665315,0.01,-0.07,0.81,2.08,11.35,-3.78,937.72,21.3,
6665353,0.01,-0.07,0.8,1.95,11.6,-3.85,937.68,21.29,
6665391,0.02,-0.06,0.79,1.89,11.47,-3.85,937.66,21.29,
6665430,0.02,-0.07,0.79,1.83,11.35,-4.03,937.68,21.29,
6665468,0.01,-0.06,0.79,1.77,10.99,-4.09,937.69,21.31,
6665506,0.01,-0.06,0.82,1.71,10.38,-4.15,937.71,21.29,
6665556,0.0,-0.07,0.85,1.65,9.09,-4.21,937.66,21.28,
6665594,-0.0,-0.06,0.86,1.46,8.3,-4.15,937.71,21.29,
6665632,0.01,-0.06,0.89,1.28,7.57,-4.33,937.71,21.29,
6665671,0.0,-0.06,0.9,1.04,6.9,-4.15,937.74,21.3,
6665709,-0.0,-0.06,0.92,0.98,6.53,-4.21,937.65,21.29,
6665747,-0.0,-0.06,0.95,0.49,6.77,-4.21,937.63,21.29,
6665785,0.01,-0.06,0.97,0.55,6.47,-4.27,937.69,21.29,
6665824,0.0,-0.06,0.97,0.61,5.86,-4.33,937.69,21.3,
6665862,0.0,-0.05,0.97,0.24,6.47,-4.33,937.65,21.29,
6665900,0.0,-0.05,0.98,0.43,6.35,-4.46,937.67,21.28,
6665950,-0.0,-0.05,0.99,0.24,6.35,-4.33,937.69,21.29,
6665988,-0.01,-0.05,1.01,0.18,6.59,-4.46,937.63,21.29,
6666027,-0.0,-0.05,1.04,-0.18,6.47,-4.33,937.67,21.28,
6666065,-0.01,-0.04,1.07,-0.18,6.65,-4.46,937.7,21.29,
6666103,-0.0,-0.05,1.09,-0.24,6.96,-4.33,937.7,21.29,
6666141,0.0,-0.05,1.1,-0.18,7.57,-4.46,937.69,21.29,
6666180,-0.0,-0.05,1.1,-0.18,8.0,-4.46,937.7,21.29,
6666218,0.0,-0.06,1.08,-0.06,8.42,-4.58,937.7,21.3,
6666256,0.0,-0.05,1.05,0.18,8.67,-4.82,937.68,21.29,
6666306,0.0,-0.05,1.05,0.24,8.73,-4.7,937.67,21.28,
6666345,-0.0,-0.06,1.04,0.24,8.54,-4.64,937.72,21.29,
6666383,0.01,-0.05,1.08,0.37,7.81,-5.0,937.66,21.29,
6666421,0.0,-0.05,1.1,0.55,7.39,-4.88,937.67,21.3,
6666459,-0.0,-0.05,1.07,0.18,7.2,-4.82,937.62,21.3,
6666497,-0.0,-0.04,1.1,0.31,7.02,-4.82,937.67,21.29,
6666536,0.0,-0.05,1.05,0.24,6.84,-5.07,937.65,21.3,
6666574,-0.01,-0.05,1.06,0.37,6.35,-4.88,937.65,21.31,
6666612,0.0,-0.05,1.01,0.12,7.14,-4.82,937.62,21.29,
6666651,-0.01,-0.05,1.04,0.31,5.86,-5.19,937.66,21.3,
6666700,-0.01,-0.06,1.01,0.06,6.16,-5.07,937.71,21.3,
6666739,-0.0,-0.05,1.03,0.24,5.13,-5.07,937.67,21.29,
6666777,-0.02,-0.05,0.98,0.18,5.07,-4.94,937.7,21.29,
6666815,-0.02,-0.04,0.95,0.37,4.33,-4.94,937.77,21.31,
6666854,-0.02,-0.05,0.94,0.43,4.39,-5.13,937.69,21.3,
6666892,-0.01,-0.06,0.92,0.43,3.78,-5.0,937.74,21.3,
6666930,-0.03,-0.06,0.93,0.37,3.91,-4.88,937.7,21.3,
6666968,-0.02,-0.06,0.91,0.24,4.21,-4.82,937.73,21.3,
6667006,-0.01,-0.05,0.93,0.49,4.39,-5.13,937.66,21.29,
6667057,-0.02,-0.06,0.92,0.0,4.52,-5.13,937.69,21.28,
6667095,-0.02,-0.06,0.93,0.31,3.91,-5.07,937.67,21.29,
6667133,-0.02,-0.06,0.93,0.12,3.6,-5.07,937.68,21.3,
6667171,-0.01,-0.05,0.97,0.24,2.75,-5.25,937.68,21.3,
6667209,-0.01,-0.05,0.98,0.0,2.2,-4.94,937.71,21.3,
6667248,-0.03,-0.06,0.97,0.24,1.71,-5.13,937.69,21.3,
6667286,-0.03,-0.06,0.96,0.37,1.65,-5.13,937.71,21.31,
6667324,-0.02,-0.05,0.96,0.31,1.1,-4.88,937.69,21.29,
6667363,-0.03,-0.05,0.95,0.31,1.16,-4.94,937.73,21.31,
6667401,-0.04,-0.06,0.93,0.37,1.77,-4.76,937.74,21.29,
6667477,-0.04,-0.06,0.9,0.55,1.95,-4.88,937.71,21.27,
6667515,-0.04,-0.05,0.89,0.31,2.56,-4.88,937.71,21.29,
6667553,-0.04,-0.05,0.92,0.37,3.23,-4.82,937.75,21.29,
6667643,-0.05,-0.06,0.97,0.24,5.19,-4.76,937.73,21.25,
6667681,-0.04,-0.05,0.98,-0.06,6.29,-4.64,937.81,21.28,
6667720,-0.05,-0.05,0.96,0.12,6.35,-4.7,937.73,21.28,
6667758,-0.04,-0.05,0.96,-0.12,6.9,-4.46,937.77,21.28,
6667796,-0.03,-0.05,0.94,-0.12,6.59,-4.46,937.77,21.27,
6667834,-0.04,-0.06,0.92,-0.06,6.23,-4.27,937.78,21.27,
6667884,-0.05,-0.04,0.91,-0.12,5.8,-3.91,937.81,21.28,
6667923,-0.04,-0.05,0.94,0.06,5.19,-3.97,937.8,21.28,
6667961,-0.04,-0.06,0.95,-0.12,4.82,-3.97,937.75,21.28,
6667999,-0.04,-0.06,0.99,-0.06,4.27,-3.72,937.75,21.29,
6668037,-0.03,-0.05,1.0,-0.24,4.39,-3.66,937.71,21.28,
6668076,-0.03,-0.04,0.99,-0.49,3.97,-3.48,937.77,21.29,
6668114,-0.03,-0.05,1.04,-0.49,3.91,-3.6,937.83,21.3,
6668152,-0.03,-0.06,1.03,-0.67,3.42,-3.48,937.84,21.29,
6668191,-0.04,-0.05,1.06,-0.61,3.36,-3.36,937.79,21.29,
6668229,-0.03,-0.05,1.04,-0.61,3.17,-3.23,937.78,21.3,
6668279,-0.02,-0.04,1.06,-0.61,1.77,-3.23,937.8,21.28,
6668317,-0.03,-0.06,1.05,-0.73,2.08,-3.11,937.85,21.29,
6668355,-0.02,-0.05,1.04,-0.92,2.08,-3.11,937.87,21.3,
6668394,-0.03,-0.04,1.09,-0.98,1.83,-3.05,937.81,21.29,
6668432,-0.03,-0.04,1.06,-1.04,1.95,-3.05,937.83,21.29,
6668470,-0.03,-0.04,1.1,-1.1,1.28,-3.11,937.85,21.3,
6668509,-0.02,-0.05,1.11,-1.28,2.01,-3.17,937.84,21.29,
6668547,-0.03,-0.04,1.18,-1.04,1.34,-3.17,937.88,21.3,
6668585,-0.01,-0.04,1.16,-1.16,1.59,-3.05,937.87,21.29,
6668635,-0.03,-0.04,1.17,-1.1,0.73,-3.3,937.87,21.3,
6668673,-0.03,-0.05,1.15,-1.16,1.1,-3.36,937.86,21.28,
6668712,-0.02,-0.04,1.15,-0.92,0.61,-3.23,937.97,21.3,
6668750,-0.01,-0.04,1.13,-0.79,0.85,-3.42,937.92,21.3,
6668788,-0.02,-0.04,1.09,-0.73,0.79,-3.3,937.93,21.29,
6668826,-0.01,-0.05,1.11,-0.49,0.67,-3.54,937.91,21.29,
6668865,-0.01,-0.05,1.1,-0.55,0.67,-3.48,937.94,21.3,
6668903,-0.02,-0.04,1.1,-0.43,0.37,-3.48,937.93,21.3,
6668941,-0.02,-0.04,1.13,-0.31,0.55,-3.6,937.94,21.3,
6668991,-0.02,-0.04,1.09,-0.55,0.67,-3.66,937.97,21.29,
6669029,-0.01,-0.04,1.11,-0.55,0.79,-3.78,937.96,21.3,
6669068,-0.02,-0.04,1.08,-0.85,1.16,-3.72,938.02,21.3,
6669106,-0.01,-0.04,1.12,-0.85,1.28,-3.85,937.96,21.3,
6669144,-0.02,-0.05,1.08,-0.85,1.77,-3.85,938.04,21.31,
6669183,-0.02,-0.04,1.09,-0.92,1.59,-3.85,938.0,21.3,
6669221,-0.01,-0.05,1.07,-1.04,2.14,-3.85,938.07,21.31,
6669259,-0.02,-0.05,1.07,-0.79,1.89,-4.03,938.02,21.3,
6669298,-0.02,-0.05,1.05,-0.79,2.5,-3.91,938.0,21.31,
6669336,-0.02,-0.05,1.04,-0.67,2.87,-3.97,938.06,21.3,
6669386,-0.01,-0.05,1.07,-0.49,3.05,-3.91,938.06,21.28,
6669424,-0.02,-0.05,1.06,-0.61,2.75,-4.09,938.05,21.3,
6669462,-0.02,-0.06,1.08,-0.37,3.23,-4.09,938.01,21.29,
6669501,-0.0,-0.06,1.06,-0.49,3.36,-4.09,938.08,21.3,
6669539,-0.01,-0.05,1.1,-0.31,2.38,-4.09,938.09,21.3,
6669577,-0.02,-0.06,1.06,-0.37,2.93,-4.21,938.08,21.3,
6669615,-0.02,-0.04,1.09,-0.18,2.69,-4.52,938.11,21.32,
6669654,-0.01,-0.05,1.1,-0.37,3.6,-4.46,938.05,21.32,
6669692,-0.01,-0.06,1.07,-0.37,3.17,-4.39,938.07,21.31,
6669742,-0.02,-0.05,1.1,-0.55,3.72,-4.46,938.05,21.3,
6669780,-0.02,-0.05,1.11,-0.31,3.48,-4.64,938.1,21.31,
6669819,-0.01,-0.05,1.14,-0.43,3.17,-4.46,938.1,21.31,
6669857,-0.02,-0.05,1.15,-0.43,2.26,-4.58,938.07,21.3,
6669895,-0.02,-0.05,1.14,-0.49,2.44,-4.33,938.06,21.3,
6669934,-0.01,-0.05,1.1,-0.49,1.59,-4.52,938.13,21.31,
6669972,-0.03,-0.05,1.1,-0.49,0.92,-4.27,938.06,21.3,
6670010,-0.03,-0.06,1.02,-0.49,0.49,-4.27,938.06,21.31,
6670048,-0.03,-0.06,1.04,-0.18,-0.55,-4.46,938.03,21.32,
6670098,-0.03,-0.06,1.02,-0.06,-1.34,-4.27,938.08,21.31,
6670137,-0.03,-0.05,1.02,-0.12,-2.81,-4.09,938.07,21.31,
6670175,-0.05,-0.05,1.05,-0.12,-3.36,-4.15,938.02,21.29,
6670213,-0.04,-0.06,1.03,-0.06,-4.03,-3.91,938.01,21.31,
6670251,-0.04,-0.05,1.05,-0.18,-4.76,-4.03,938.0,21.31,
6670290,-0.05,-0.05,1.02,-0.06,-4.76,-3.85,938.09,21.31,
6670328,-0.05,-0.06,1.01,-0.12,-4.76,-3.85,938.0,21.31,
6670366,-0.06,-0.05,1.0,0.0,-4.46,-3.85,938.07,21.3,
6670404,-0.06,-0.06,1.01,0.31,-4.58,-3.6,938.06,21.31,
6670480,-0.05,-0.06,1.01,0.31,-5.07,-3.3,938.02,21.28,
6670519,-0.06,-0.06,1.01,0.43,-5.62,-3.3,938.01,21.28,
6670557,-0.06,-0.05,1.0,0.37,-5.74,-2.93,938.01,21.29,
6670647,-0.06,-0.06,0.99,0.24,-6.35,-2.81,938.08,21.27,
6670685,-0.07,-0.05,0.98,0.55,-6.59,-2.69,938.01,21.27,
6670723,-0.07,-0.07,1.0,0.49,-6.71,-2.5,938.08,21.28,
6670761,-0.06,-0.06,0.98,0.61,-6.84,-2.44,938.09,21.29,
6670800,-0.05,-0.06,1.02,0.73,-6.84,-2.38,938.03,21.28,
6670838,-0.06,-0.07,0.98,0.67,-6.65,-2.14,938.03,21.29,
6670876,-0.07,-0.06,0.99,1.1,-7.2,-2.08,938.09,21.29,
6670926,-0.06,-0.06,0.96,1.16,-6.9,-1.83,938.08,21.27,
6670964,-0.06,-0.06,0.97,1.34,-7.63,-1.77,938.03,21.28,
6671003,-0.07,-0.06,0.95,1.22,-7.26,-1.59,938.11,21.28,
6671041,-0.06,-0.07,0.96,1.4,-7.75,-1.53,938.19,21.3,
6671079,-0.07,-0.06,0.96,1.46,-7.63,-1.46,938.09,21.29,
6671118,-0.06,-0.06,0.94,1.34,-7.39,-1.28,938.1,21.29,
6671156,-0.06,-0.06,0.95,1.46,-7.32,-1.16,938.2,21.29,
6671194,-0.05,-0.07,0.94,1.65,-7.14,-1.1,938.18,21.3,
6671232,-0.07,-0.07,0.95,1.83,-7.32,-0.98,938.17,21.3,
6671282,-0.07,-0.06,0.93,1.71,-6.71,-0.92,938.19,21.29,
6671321,-0.06,-0.06,0.99,1.89,-6.65,-0.85,938.17,21.28,
6671359,-0.07,-0.06,0.96,1.59,-6.29,-0.61,938.23,21.28,
6671397,-0.06,-0.06,1.0,1.95,-7.02,-0.43,938.24,21.29,
6671436,-0.06,-0.07,0.96,1.65,-5.8,-0.43,938.21,21.29,
6671474,-0.06,-0.05,0.98,1.95,-6.65,-0.31,938.27,21.3,
6671512,-0.06,-0.06,0.99,1.89,-7.14,-0.06,938.28,21.29,
6671550,-0.06,-0.06,0.99,2.08,-7.57,0.12,938.26,21.29,
6671589,-0.07,-0.06,0.99,2.2,-7.51,0.24,938.27,21.3,
6671639,-0.07,-0.05,0.98,2.26,-8.0,0.31,938.3,21.28,
6671677,-0.06,-0.05,1.01,2.62,-7.69,0.37,938.34,21.28,
6671715,-0.06,-0.06,0.95,2.32,-7.14,0.43,938.31,21.28,
6671753,-0.07,-0.06,1.03,2.93,-7.08,0.79,938.33,21.29,
6671792,-0.05,-0.06,0.97,2.44,-6.35,0.79,938.33,21.29,
6671830,-0.07,-0.05,0.99,2.99,-7.02,0.92,938.4,21.31,
6671868,-0.07,-0.05,0.98,2.69,-5.86,1.04,938.38,21.3,
6671906,-0.05,-0.06,0.99,2.81,-6.04,1.16,938.4,21.31,
6671945,-0.06,-0.06,0.99,2.69,-5.62,1.28,938.44,21.3,
6671983,-0.06,-0.06,0.99,2.38,-5.19,1.4,938.48,21.3,
6672033,-0.06,-0.06,1.05,2.5,-4.21,1.71,938.47,21.29,
6672071,-0.05,-0.06,1.03,2.26,-3.72,1.71,938.52,21.29,
6672110,-0.06,-0.07,1.05,2.62,-3.36,1.89,938.56,21.31,
6672148,-0.05,-0.06,1.01,2.87,-3.6,2.01,938.57,21.31,
6672186,-0.04,-0.06,0.99,2.75,-3.17,2.2,938.56,21.3,
6672225,-0.05,-0.05,0.95,2.69,-3.17,2.14,938.58,21.31,
6672263,-0.04,-0.06,0.94,2.81,-2.87,2.44,938.55,21.3,
6672301,-0.04,-0.06,0.92,2.44,-2.69,2.32,938.55,21.3,
6672339,-0.04,-0.06,0.94,2.62,-2.32,2.56,938.6,21.32,
6672389,-0.04,-0.06,0.95,2.32,-2.2,2.81,938.61,21.29,
6672428,-0.04,-0.07,0.98,2.26,-2.01,2.75,938.59,21.29,
6672466,-0.03,-0.07,0.96,1.77,-1.71,2.75,938.59,21.3,
6672504,-0.03,-0.07,0.99,1.95,-1.83,2.99,938.64,21.31,
6672542,-0.03,-0.06,0.97,1.59,-1.71,2.93,938.62,21.31,
6672581,-0.04,-0.07,0.96,1.46,-1.77,2.93,938.67,21.31,
6672619,-0.04,-0.07,0.95,1.28,-0.85,3.17,938.69,21.32,
6672657,-0.03,-0.07,0.95,0.98,-0.85,3.17,938.7,21.31,
6672695,-0.03,-0.05,0.94,0.92,-0.98,3.17,938.71,21.31,
6672734,-0.02,-0.06,0.97,0.73,-1.1,3.11,938.69,21.31,
6672784,-0.02,-0.07,1.0,0.79,-0.79,2.99,938.72,21.3,
6672822,-0.01,-0.06,1.0,0.79,-1.16,3.05,938.73,21.31,
6672860,-0.02,-0.06,1.02,0.61,-1.22,2.93,938.76,21.32,
6672898,-0.01,-0.06,1.01,0.67,-0.85,2.99,938.81,21.31,
6672937,-0.02,-0.06,1.03,0.61,-1.22,2.87,938.76,21.31,
6672975,-0.01,-0.06,1.04,0.67,-1.04,2.93,938.84,21.31,
6673013,-0.01,-0.06,1.06,0.73,-1.28,2.56,938.83,21.31,
6673052,-0.02,-0.06,1.08,0.92,-1.1,2.62,938.77,21.3,
6673090,-0.01,-0.05,1.08,0.92,-1.16,2.75,938.78,21.31,
6673140,-0.02,-0.06,1.06,1.1,-1.4,2.62,938.85,21.29,
6673178,-0.02,-0.06,1.06,1.22,-1.22,2.69,938.89,21.31,
6673216,-0.01,-0.06,1.03,1.22,-0.92,2.62,938.9,21.3,
6673255,0.0,-0.06,1.02,1.4,-1.28,2.5,938.88,21.31,
6673293,-0.01,-0.06,1.01,1.71,-1.22,2.44,938.91,21.32,
6673331,-0.02,-0.06,0.98,1.65,-1.16,2.32,938.93,21.32,
6673369,-0.01,-0.06,0.97,1.77,-1.22,2.32,938.9,21.31,
6673408,-0.03,-0.06,0.97,1.77,-1.16,2.14,938.94,21.32,
6673446,-0.02,-0.06,0.95,1.83,-1.22,2.14,938.97,21.32,
6673484,-0.02,-0.06,0.95,1.59,-0.67,2.2,938.93,21.32,
6673560,-0.02,-0.06,0.97,1.59,-0.12,2.38,938.91,21.28,
6673599,-0.04,-0.06,0.96,1.22,0.49,2.2,938.92,21.29,
6673637,-0.03,-0.06,0.97,1.16,0.55,2.26,938.97,21.3,
6673727,-0.02,-0.06,1.04,1.16,1.1,2.32,938.98,21.27,
6673765,-0.03,-0.06,1.05,1.22,1.28,2.26,938.96,21.27,
6673803,-0.03,-0.06,1.05,0.92,1.83,2.26,938.99,21.28,
6673842,-0.03,-0.06,1.06,1.1,1.71,2.26,939.02,21.28,
6673880,-0.04,-0.06,1.06,1.16,1.4,2.56,939.02,21.28,
6673918,-0.02,-0.05,1.04,1.04,1.4,2.44,939.04,21.29,
6673968,-0.03,-0.06,1.03,1.22,1.4,2.69,939.04,21.28,
6674006,-0.03,-0.07,1.0,1.04,1.46,2.69,939.08,21.29,
6674045,-0.03,-0.06,1.01,0.98,1.28,2.81,939.06,21.3,
6674083,-0.04,-0.06,1.0,0.98,1.65,2.99,939.14,21.3,
6674121,-0.03,-0.06,1.01,1.22,1.65,2.99,939.08,21.31,
6674160,-0.03,-0.06,1.01,1.16,1.71,3.11,939.08,21.28,
6674198,-0.03,-0.06,1.04,0.98,1.34,3.23,939.08,21.3,
6674236,-0.02,-0.06,1.03,1.1,1.46,3.42,939.12,21.3,
6674275,-0.03,-0.06,1.04,1.1,1.4,3.3,939.11,21.29,
6674313,-0.04,-0.06,1.04,0.98,1.1,3.48,939.1,21.31,
6674363,-0.02,-0.06,1.02,1.16,1.34,3.42,939.14,21.29,
6674401,-0.01,-0.06,1.04,1.16,1.28,3.42,939.18,21.3,
6674440,-0.02,-0.06,1.03,0.98,1.1,3.78,939.19,21.3,
6674478,-0.02,-0.05,1.05,1.16,1.22,3.48,939.14,21.29,
6674516,-0.02,-0.06,1.06,1.16,1.77,3.54,939.16,21.3,
6674555,-0.03,-0.06,1.07,1.22,1.77,3.42,939.21,21.31,
6674593,-0.03,-0.05,1.08,1.22,1.65,3.48,939.23,21.3,
6674631,-0.02,-0.06,1.07,0.98,2.26,3.48,939.2,21.3,
6674669,-0.02,-0.06,1.07,0.98,2.56,3.6,939.22,21.32,
6674708,-0.02,-0.05,1.07,1.04,2.69,3.6,939.24,21.31,
6674758,-0.02,-0.06,1.05,0.92,2.93,3.6,939.23,21.3,
6674796,-0.02,-0.06,1.04,1.04,3.11,3.48,939.24,21.29,
6674834,-0.02,-0.06,1.05,0.92,3.17,3.42,939.29,21.31,
6674873,-0.02,-0.06,1.04,0.79,3.3,3.54,939.26,21.31,
6674911,-0.02,-0.06,1.06,0.79,3.48,3.42,939.18,21.29,
6674949,-0.02,-0.06,1.05,0.79,3.85,3.42,939.26,21.31,
6674988,-0.02,-0.05,1.05,0.79,3.6,3.6,939.24,21.3,
6675026,-0.02,-0.06,1.05,0.98,3.48,3.42,939.31,21.31,
6675064,-0.03,-0.06,1.02,0.92,3.05,3.3,939.28,21.32,
6675114,-0.03,-0.06,1.02,0.79,3.17,3.54,939.24,21.28,
6675153,-0.02,-0.05,1.03,0.85,2.99,3.42,939.27,21.3,
6675191,-0.03,-0.05,1.03,0.79,3.3,3.48,939.27,21.3,
6675229,-0.02,-0.06,1.06,1.1,4.09,3.54,939.38,21.3,
6675268,-0.02,-0.06,1.08,0.85,4.33,3.66,939.32,21.31,
6675306,-0.03,-0.06,1.1,0.92,4.33,3.6,939.36,21.31,
6675344,-0.02,-0.05,1.08,0.98,4.58,3.66,939.31,21.31,
6675382,-0.03,-0.06,1.07,1.04,4.09,3.66,939.32,21.31,
6675421,-0.01,-0.06,1.08,0.98,3.91,3.66,939.35,21.29,
6675459,-0.01,-0.05,1.06,0.79,3.54,3.72,939.36,21.31,
6675509,-0.02,-0.06,1.03,0.98,3.54,3.78,939.41,21.31,
6675547,-0.01,-0.06,1.02,1.16,3.23,3.54,939.34,21.31,
6675585,-0.0,-0.07,1.05,0.98,2.87,3.72,939.34,21.3,
6675624,-0.01,-0.07,1.03,0.85,2.93,3.54,939.36,21.31,
6675662,-0.02,-0.06,1.03,1.04,2.44,3.42,939.41,21.31,
6675700,0.0,-0.06,1.01,0.79,2.26,3.48,939.4,21.31,
6675739,-0.01,-0.06,1.02,0.79,1.28,3.42,939.37,21.31,
6675777,-0.02,-0.06,1.0,0.73,1.46,3.42,939.38,21.31,
6675815,-0.01,-0.06,1.02,0.98,1.59,3.36,939.37,21.32,
6675854,-0.01,-0.06,0.99,0.98,1.4,3.05,939.33,21.32,
6675903,-0.02,-0.07,0.97,1.34,1.28,3.48,939.41,21.3,
6675942,-0.01,-0.08,0.93,1.22,1.4,3.17,939.39,21.32,
6675980,-0.02,-0.06,0.92,1.1,1.1,3.17,939.44,21.32,
6676018,-0.02,-0.06,0.9,0.79,1.04,3.17,939.39,21.31,
6676057,-0.04,-0.07,0.89,0.73,1.1,3.11,939.4,21.31,
6676095,-0.03,-0.07,0.91,0.61,1.65,3.11,939.43,21.32,
6676133,-0.02,-0.06,0.97,0.49,2.2,3.05,939.39,21.32,
6676171,-0.03,-0.06,0.96,0.24,2.5,3.11,939.44,21.31,
6676210,-0.02,-0.06,1.0,0.37,2.99,3.11,939.45,21.32,
6676260,-0.01,-0.07,0.99,-0.06,3.48,3.23,939.45,21.3,
6676298,-0.03,-0.06,1.04,0.12,3.3,3.11,939.44,21.31,
6676336,-0.02,-0.06,1.04,0.37,3.78,3.23,939.47,21.32,
6676375,-0.02,-0.06,1.04,0.43,3.11,3.11,939.5,21.31,
6676413,-0.02,-0.06,1.08,0.43,2.87,3.3,939.5,21.31,
6676451,-0.0,-0.07,1.07,0.31,2.87,3.05,939.47,21.31,
6676489,-0.02,-0.06,1.07,0.43,3.05,3.05,939.51,21.32,
6676528,-0.02,-0.06,1.06,0.31,3.3,3.17,939.51,21.32,
6676566,-0.02,-0.06,1.07,0.49,3.17,3.05,939.56,21.31,
6676604,-0.02,-0.06,1.08,0.73,2.87,3.05,939.52,21.32,
6676680,-0.03,-0.06,1.07,0.85,3.54,2.99,939.51,21.29,
6676719,-0.02,-0.06,1.06,0.98,4.15,2.93,939.52,21.29,
6676757,-0.02,-0.06,1.09,1.04,4.46,2.69,939.52,21.31,
6676847,-0.03,-0.06,1.05,0.98,5.07,2.81,939.54,21.27,
6676885,-0.02,-0.06,1.05,1.1,5.0,2.81,939.54,21.28,
6676923,-0.01,-0.06,1.02,1.1,4.58,2.99,939.54,21.28,
6676961,-0.02,-0.07,0.97,1.16,4.76,2.87,939.54,21.29,
6677000,-0.02,-0.06,0.95,1.53,4.52,2.99,939.54,21.29,
6677038,-0.02,-0.07,0.89,1.34,4.7,2.99,939.57,21.28,
6677076,-0.01,-0.06,0.85,1.34,4.76,2.69,939.56,21.3,
6677126,-0.02,-0.07,0.82,1.53,5.25,2.81,939.59,21.29,
6677165,-0.01,-0.08,0.78,1.46,5.37,2.81,939.57,21.3,
6677203,-0.02,-0.07,0.8,1.65,5.68,2.69,939.61,21.29,
6677241,-0.02,-0.06,0.78,1.28,6.04,2.62,939.61,21.3,
6677279,-0.02,-0.07,0.82,1.53,5.55,2.5,939.58,21.29,
6677318,-0.02,-0.08,0.77,1.46,6.1,2.69,939.56,21.3,
6677356,-0.01,-0.06,0.81,1.34,5.19,2.81,939.58,21.3,
6677394,-0.03,-0.07,0.81,1.83,5.07,2.69,939.66,21.31,
6677432,-0.03,-0.06,0.81,1.46,4.33,2.62,939.61,21.31,
6677482,-0.03,-0.07,0.88,1.95,3.85,2.69,939.61,21.3,
6677521,-0.02,-0.07,0.9,1.59,3.78,2.75,939.64,21.3,
6677559,-0.04,-0.07,0.94,1.95,2.5,2.87,939.65,21.3,
6677597,-0.04,-0.06,0.95,1.71,3.05,2.93,939.61,21.31,
6677636,-0.03,-0.06,0.97,2.01,2.69,3.05,939.7,21.31,
6677674,-0.03,-0.06,0.97,1.77,2.32,3.05,939.59,21.3,
6677712,-0.04,-0.06,1.01,1.95,1.77,3.23,939.67,21.3,
6677750,-0.04,-0.06,0.99,1.71,2.44,3.36,939.65,21.31,
6677789,-0.03,-0.06,1.02,1.95,1.71,3.3,939.66,21.31,
6677827,-0.02,-0.06,1.07,2.14,1.83,3.48,939.67,21.3,
6677877,-0.04,-0.05,1.04,1.95,2.01,3.48,939.7,21.29,
6677915,-0.04,-0.06,1.08,2.01,2.87,3.6,939.68,21.3,
6677953,-0.05,-0.07,1.04,2.01,3.66,3.6,939.75,21.31,
6677992,-0.03,-0.06,1.06,2.26,3.6,3.6,939.74,21.31,
6678030,-0.03,-0.06,1.05,2.26,3.85,3.72,939.72,21.3,
6678068,-0.04,-0.06,1.04,2.38,3.97,3.78,939.77,21.32,
6678107,-0.03,-0.06,1.03,2.26,4.21,3.85,939.74,21.31,
6678145,-0.03,-0.06,1.05,2.26,3.97,4.03,939.76,21.31,
6678183,-0.03,-0.05,1.06,2.26,3.91,3.91,939.79,21.31,
6678221,-0.03,-0.06,1.07,2.14,4.09,3.97,939.79,21.31,
6678271,-0.02,-0.06,1.1,2.32,3.78,4.15,939.77,21.3,
6678310,-0.04,-0.06,1.06,2.08,3.91,4.15,939.77,21.31,
6678348,-0.02,-0.06,1.08,2.2,3.54,4.15,939.81,21.31,
6678386,-0.02,-0.05,1.06,2.32,3.72,4.09,939.85,21.32,
6678425,-0.02,-0.06,1.03,2.14,4.09,4.33,939.8,21.3,
6678463,-0.02,-0.06,1.05,1.95,3.97,4.15,939.87,21.32,
6678501,-0.01,-0.06,1.08,2.2,4.03,4.33,939.89,21.31,
6678539,-0.02,-0.05,1.07,1.89,3.42,4.15,939.84,21.32,
6678578,-0.03,-0.05,1.1,1.83,3.36,4.39,939.92,21.32,
6678628,-0.01,-0.06,1.09,1.89,3.42,4.33,939.9,21.31,
6678666,-0.01,-0.05,1.11,1.89,2.81,4.27,939.86,21.3,
6678704,-0.02,-0.06,1.1,1.71,3.11,4.33,939.91,21.31,
6678742,-0.02,-0.06,1.06,1.65,2.69,4.27,939.89,21.31,
6678781,-0.02,-0.06,1.05,1.53,2.87,4.09,939.87,21.31,
6678819,-0.01,-0.06,1.03,1.65,2.62,4.21,939.93,21.32,
6678857,-0.01,-0.06,1.02,1.59,2.26,4.09,939.87,21.3,
6678895,-0.01,-0.06,1.03,1.71,2.2,4.21,939.93,21.31,
6678934,-0.01,-0.06,1.04,1.46,2.75,4.15,939.98,21.32,
6678972,-0.0,-0.06,1.06,1.53,2.87,4.15,940.0,21.31,
6679022,-0.01,-0.06,1.06,1.59,2.93,4.15,939.99,21.32,
6679060,-0.01,-0.06,1.03,1.59,3.3,3.97,939.97,21.31,
6679098,-0.01,-0.06,1.04,1.65,3.11,3.97,939.95,21.31,
6679137,-0.0,-0.06,1.0,1.59,3.3,3.97,939.99,21.32,
6679175,-0.01,-0.06,1.0,1.53,3.05,3.85,940.0,21.31,
6679213,-0.01,-0.06,1.01,1.46,3.36,3.91,939.94,21.31,
6679251,-0.0,-0.06,1.01,1.46,3.54,3.72,939.93,21.31,
6679290,-0.02,-0.06,1.03,1.22,3.36,3.91,939.95,21.32,
6679328,-0.01,-0.06,1.03,1.1,3.66,3.72,939.93,21.32,
6679366,-0.01,-0.05,1.06,1.04,3.54,3.66,939.98,21.31,
6679416,0.0,-0.06,1.06,0.85,3.91,3.48,940.01,21.3,
6679454,-0.0,-0.05,1.08,0.85,3.48,3.48,940.05,21.31,
6679493,0.0,-0.05,1.08,0.85,3.78,3.6,940.02,21.31,
6679531,0.01,-0.06,1.07,1.04,3.6,3.3,940.0,21.31,
6679569,-0.01,-0.05,1.07,0.92,3.6,3.05,940.04,21.31,
6679608,0.0,-0.06,1.07,1.04,3.54,3.23,940.04,21.31,
6679646,0.0,-0.05,1.09,1.1,3.3,2.99,940.03,21.31,
6679684,0.01,-0.05,1.07,0.98,3.3,2.99,940.03,21.3,
6679722,-0.0,-0.05,1.07,1.34,3.36,2.93,940.06,21.32,
6679800,0.0,-0.05,1.09,1.34,3.11,2.87,940.04,21.28,
6679838,0.0,-0.06,1.07,1.34,3.48,2.56,940.05,21.29,
6679876,-0.01,-0.06,1.1,1.59,3.6,2.44,940.04,21.3,
6679966,-0.03,-0.04,1.11,1.4,3.85,2.14,940.02,21.26,
6680004,0.01,-0.05,1.08,1.34,4.33,2.14,940.06,21.28,
6680042,-0.02,-0.06,1.06,1.4,4.09,2.08,940.12,21.29,
6680081,-0.01,-0.05,1.07,1.46,4.52,2.2,940.06,21.28,
6680119,-0.01,-0.05,1.05,1.65,4.46,1.95,940.06,21.29,
6680157,-0.02,-0.05,1.07,1.95,4.21,2.01,940.03,21.29,
6680195,-0.0,-0.07,1.01,1.83,4.7,2.32,940.06,21.3,
6680245,-0.01,-0.04,1.02,1.83,3.78,1.95,940.06,21.29,
6680284,-0.01,-0.05,0.99,1.65,4.33,2.08,940.05,21.29,
6680322,0.0,-0.06,0.99,1.77,3.85,1.95,940.07,21.3,
6680360,-0.01,-0.06,1.01,1.4,3.85,1.77,940.14,21.3,
6680398,-0.01,-0.06,1.02,1.46,3.36,1.83,940.04,21.29,
6680437,-0.01,-0.06,1.0,1.65,3.3,1.89,940.09,21.32,
6680475,-0.0,-0.06,0.99,1.53,2.69,1.89,940.08,21.29,
6680513,-0.0,-0.06,0.96,1.46,2.69,1.83,940.1,21.31,
6680551,0.01,-0.06,0.94,1.22,1.83,1.77,940.07,21.31,
6680590,-0.01,-0.06,0.94,1.28,1.77,1.77,940.09,21.32,
6680640,-0.0,-0.05,0.95,1.4,1.34,1.77,940.13,21.3,
6680678,0.01,-0.05,0.97,1.59,0.92,1.77,940.11,21.31,
6680716,-0.0,-0.05,0.95,1.71,0.55,1.59,940.08,21.29,
6680755,-0.01,-0.06,0.95,1.83,1.22,1.59,940.12,21.31,
6680793,0.0,-0.06,0.92,2.01,1.04,1.65,940.13,21.31,
6680831,-0.0,-0.06,0.88,1.77,0.49,1.71,940.07,21.3,
6680869,-0.01,-0.05,0.88,1.89,0.98,1.53,940.11,21.31,
6680908,-0.03,-0.06,0.85,1.65,1.65,1.53,940.14,21.32,
6680946,-0.0,-0.06,0.88,1.59,1.4,1.53,940.12,21.32,
6680996,-0.0,-0.06,0.86,1.16,2.44,1.28,940.13,21.29,
6681034,-0.0,-0.05,0.91,1.34,1.95,1.46,940.14,21.31,
6681072,-0.01,-0.06,0.95,1.34,2.62,1.4,940.13,21.31,
6681111,-0.01,-0.06,0.94,1.22,3.3,1.53,940.18,21.32,
6681149,-0.01,-0.06,0.97,1.71,3.48,1.4,940.11,21.3,
6681187,-0.0,-0.06,0.94,1.53,4.09,1.28,940.16,21.31,
6681226,0.0,-0.05,0.97,1.83,4.03,1.22,940.15,21.32,
6681264,-0.01,-0.05,0.97,2.08,4.33,1.46,940.15,21.32,
6681302,-0.02,-0.05,0.95,2.26,4.39,1.34,940.11,21.32,
6681341,-0.0,-0.05,1.0,2.38,4.15,1.46,940.18,21.32,
6681391,0.01,-0.07,0.98,2.75,4.7,1.22,940.12,21.31,
6681429,-0.01,-0.05,0.99,3.3,3.48,1.34,940.21,21.32,
6681467,-0.02,-0.06,0.95,3.42,4.64,1.22,940.16,21.3,
6681506,0.0,-0.06,0.91,3.66,3.91,1.34,940.22,21.32,
6681544,-0.01,-0.05,0.91,4.03,3.17,1.34,940.2,21.32,
6681582,-0.03,-0.06,0.81,3.97,3.17,1.46,940.21,21.31,
6681620,-0.03,-0.06,0.78,3.97,2.56,1.46,940.15,21.32,
6681659,-0.0,-0.05,0.82,3.85,2.44,1.53,940.17,21.31,
6681697,-0.01,-0.06,0.75,3.72,2.32,1.53,940.25,21.32,
6681735,-0.03,-0.06,0.73,3.54,2.26,1.89,940.24,21.32,
6681785,-0.01,-0.07,0.75,3.23,2.87,1.46,940.23,21.3,
6681824,-0.01,-0.06,0.78,2.99,2.62,1.89,940.26,21.31,
6681862,-0.02,-0.07,0.77,2.81,3.11,1.71,940.18,21.31,
6681900,-0.01,-0.07,0.75,2.44,3.72,1.71,940.22,21.32,
6681938,-0.02,-0.06,0.78,2.32,3.85,1.59,940.21,21.32,
6681977,-0.01,-0.06,0.81,2.08,3.97,1.89,940.28,21.33,
6682015,-0.02,-0.06,0.83,2.01,4.15,1.77,940.22,21.31,
6682053,-0.01,-0.06,0.85,1.89,4.64,1.71,940.24,21.31,
6682092,-0.02,-0.06,0.89,1.65,4.46,1.95,940.29,21.32,
6682130,-0.02,-0.06,0.91,1.77,4.39,2.01,940.27,21.32,
6682180,-0.01,-0.06,0.94,1.83,4.46,1.83,940.29,21.31,
6682218,-0.01,-0.06,0.95,1.59,4.64,1.89,940.32,21.33,
6682256,-0.01,-0.06,0.94,1.59,4.7,1.95,940.37,21.33,
6682295,-0.02,-0.05,0.95,1.65,4.82,2.08,940.34,21.32,
6682333,-0.02,-0.06,0.95,1.59,4.94,2.01,940.3,21.33,
6682371,-0.01,-0.06,0.98,1.53,5.0,2.14,940.33,21.31,
6682410,-0.01,-0.06,0.99,1.46,5.49,1.83,940.37,21.32,
6682448,-0.01,-0.05,1.0,1.77,5.13,2.01,940.34,21.32,
6682486,-0.01,-0.05,1.02,1.59,5.0,2.01,940.38,21.33,
6682536,-0.01,-0.06,1.04,1.71,4.64,2.32,940.42,21.31,
6682574,-0.01,-0.06,1.02,1.59,4.27,2.2,940.34,21.3,
6682613,-0.01,-0.05,1.05,1.83,4.52,2.2,940.37,21.32,
6682651,-0.0,-0.05,1.04,2.01,4.39,2.14,940.4,21.32,
6682689,-0.0,-0.06,1.05,1.95,4.21,2.2,940.45,21.32,
6682727,-0.01,-0.05,1.06,1.89,4.27,2.2,940.45,21.31,
6682766,-0.01,-0.05,1.08,1.89,4.15,2.32,940.43,21.33,
6682804,-0.01,-0.05,1.07,1.59,3.97,2.26,940.42,21.32,
6682842,-0.0,-0.05,1.1,2.01,3.72,2.38,940.45,21.32,
6682880,-0.0,-0.06,1.07,1.71,3.78,2.44,940.44,21.32,
6682957,-0.0,-0.05,1.08,1.71,3.23,2.38,940.48,21.29,
6682995,-0.0,-0.05,1.09,1.46,2.81,2.26,940.49,21.31,
6683033,-0.0,-0.06,1.11,1.4,2.81,2.44,940.45,21.31,
6683123,-0.0,-0.05,1.08,1.53,3.23,2.26,940.48,21.28,
6683161,-0.01,-0.05,1.06,1.83,2.93,2.38,940.54,21.31,
6683199,-0.01,-0.05,1.02,1.89,3.05,2.38,940.51,21.31,
6683238,-0.01,-0.05,1.01,2.2,3.36,2.32,940.52,21.29,
6683276,-0.01,-0.06,0.98,2.01,3.48,2.26,940.56,21.3,
6683314,0.0,-0.06,0.95,1.83,3.23,2.14,940.54,21.31,
6683352,-0.02,-0.05,0.99,1.59,3.23,2.26,940.55,21.31,
6683402,-0.0,-0.06,0.96,1.16,3.72,2.26,940.59,21.3,
6683441,-0.01,-0.05,1.0,1.28,3.23,2.2,940.57,21.31,
6683479,-0.01,-0.06,0.98,0.98,3.78,2.2,940.54,21.32,
6683517,0.0,-0.06,1.01,1.16,3.17,2.14,940.55,21.31,
6683555,-0.01,-0.06,0.99,0.98,3.72,2.44,940.58,21.31,
6683594,0.0,-0.06,0.98,0.98,3.72,2.26,940.61,21.31,
6683632,-0.0,-0.05,0.99,1.1,3.42,2.2,940.61,21.33,
6683670,0.0,-0.06,0.98,1.1,3.54,2.2,940.62,21.31,
6683709,-0.01,-0.05,1.02,1.1,3.05,2.08,940.64,21.32,
6683759,-0.01,-0.05,1.03,0.73,3.6,2.2,940.61,21.31,
6683797,0.01,-0.05,1.07,0.92,3.78,2.01,940.62,21.31,
6683835,-0.0,-0.05,1.06,0.67,3.54,1.95,940.59,21.3,
6683873,-0.0,-0.05,1.1,0.85,3.66,2.01,940.67,21.32,
6683912,0.01,-0.04,1.14,0.79,3.6,1.83,940.68,21.32,
6683950,0.0,-0.05,1.12,0.79,3.54,2.01,940.66,21.31,
6683988,0.0,-0.04,1.15,1.04,3.36,2.14,940.64,21.31,
6684026,-0.0,-0.06,1.12,1.28,3.6,2.01,940.71,21.31,
6684065,0.0,-0.05,1.08,1.28,3.36,1.77,940.7,21.33,
6684103,0.0,-0.05,1.09,1.28,3.3,1.83,940.71,21.32,
6684153,-0.0,-0.05,1.04,1.28,3.36,1.83,940.7,21.3,
6684191,0.01,-0.05,1.04,1.71,3.54,1.71,940.71,21.31,
6684229,0.01,-0.05,1.03,1.53,3.66,1.46,940.66,21.31,
6684268,-0.0,-0.06,1.03,1.89,3.36,1.4,940.75,21.31,
6684306,0.0,-0.06,1.02,1.77,3.66,1.28,940.72,21.32,
6684344,0.0,-0.05,1.02,1.71,3.97,1.16,940.74,21.31,
6684382,0.01,-0.06,1.0,1.46,4.03,1.22,940.72,21.33,
6684421,0.0,-0.06,1.0,1.53,3.78,1.1,940.71,21.31,
6684459,0.01,-0.05,1.0,1.4,3.78,0.98,940.73,21.33,
6684497,0.01,-0.05,0.99,1.46,3.72,0.79,940.74,21.33,
6684547,0.0,-0.06,1.0,1.46,3.91,0.79,940.76,21.31,
6684585,0.0,-0.06,1.0,1.4,4.03,0.79,940.75,21.32,
6684624,0.0,-0.06,1.0,1.16,3.72,0.73,940.75,21.32,
6684662,0.01,-0.06,1.0,1.16,3.91,0.61,940.75,21.31,
6684700,0.01,-0.06,0.99,1.4,3.78,0.61,940.76,21.32,
6684738,-0.0,-0.05,0.98,1.1,3.17,0.61,940.78,21.33,
6684777,0.0,-0.06,0.97,1.04,3.17,0.49,940.84,21.33,
6684815,-0.0,-0.05,0.97,1.1,2.93,0.61,940.82,21.32,
6684853,-0.01,-0.06,0.99,0.98,2.38,0.49,940.79,21.32,
6684891,-0.0,-0.06,1.0,0.92,2.2,0.55,940.82,21.33,
6684941,-0.01,-0.06,1.02,1.04,2.08,0.43,940.84,21.32,
6684980,-0.0,-0.05,1.03,1.22,2.01,0.43,940.83,21.33,
6685018,-0.0,-0.05,1.03,1.04,1.83,0.43,940.77,21.32,
6685056,-0.01,-0.05,1.04,1.1,1.71,0.49,940.82,21.32,
6685094,-0.01,-0.06,1.05,1.16,1.77,0.37,940.93,21.33,
6685133,-0.0,-0.05,1.05,1.16,1.65,0.43,940.86,21.32,
6685171,-0.01,-0.06,1.04,1.16,1.71,0.49,940.91,21.33,
6685209,-0.01,-0.05,1.04,1.16,1.95,0.43,940.84,21.32,
6685247,-0.01,-0.05,1.05,1.16,2.38,0.37,940.83,21.31,
6685297,-0.02,-0.05,1.06,1.22,2.5,0.49,940.88,21.31,
6685336,-0.01,-0.06,1.03,1.22,2.81,0.31,940.85,21.32,
6685374,-0.02,-0.05,1.05,1.28,2.93,0.31,940.87,21.31,
6685412,-0.01,-0.05,1.05,1.28,3.36,0.31,940.91,21.32,
6685450,-0.0,-0.05,1.06,1.1,3.3,0.24,940.93,21.31,
6685489,-0.01,-0.05,1.08,1.4,3.54,0.24,940.83,21.31,
6685527,-0.02,-0.05,1.08,1.65,3.85,0.37,940.91,21.33,
6685565,-0.01,-0.05,1.1,1.65,3.97,0.43,940.89,21.33,
6685603,-0.01,-0.05,1.09,1.4,3.78,0.37,940.95,21.32,
6685642,-0.0,-0.05,1.08,1.4,4.09,0.18,940.94,21.32,
6685692,-0.01,-0.04,1.08,1.4,4.09,0.43,940.91,21.31,
6685730,-0.01,-0.05,1.07,1.59,3.91,0.55,940.92,21.32,
6685768,-0.02,-0.05,1.07,1.89,3.97,0.31,941.01,21.32,
6685806,-0.02,-0.05,1.05,2.01,4.21,0.49,940.96,21.32,
6685845,-0.01,-0.05,1.07,2.14,3.78,0.43,940.96,21.33,
6685883,-0.01,-0.05,1.08,2.32,3.48,0.43,940.94,21.32,
6685921,-0.02,-0.06,1.06,2.38,3.42,0.43,940.91,21.32,
6685959,-0.01,-0.05,1.06,2.26,3.66,0.49,940.96,21.33,
6685998,-0.02,-0.05,1.02,2.08,3.48,0.43,941.01,21.32,
6686036,-0.02,-0.05,1.01,2.01,3.48,0.43,940.89,21.33,
6686112,-0.02,-0.06,1.0,1.95,3.72,0.43,940.97,21.29,
6686150,-0.02,-0.06,0.99,2.08,3.78,0.55,940.97,21.31,
6686188,-0.02,-0.05,1.0,1.95,3.97,0.43,940.94,21.32,
6686423,-0.02,-0.05,1.03,1.77,4.46,0.55,940.94,21.22,
6686461,-0.02,-0.05,1.05,1.83,4.39,0.43,941.01,21.25,
6686500,-0.01,-0.05,1.07,1.71,3.85,0.55,940.93,21.26,
6686538,-0.02,-0.05,1.09,2.01,3.3,0.61,940.95,21.27,
6686576,-0.03,-0.06,1.02,1.71,3.66,0.67,940.99,21.27,
6686614,-0.02,-0.05,1.03,2.01,3.54,0.55,941.0,21.28,
6686664,-0.01,-0.06,0.98,2.08,3.3,0.79,941.02,21.28,
6686703,-0.02,-0.06,0.97,2.2,2.75,0.61,940.94,21.28,
6686741,-0.02,-0.06,0.97,2.2,2.69,0.55,941.01,21.29,
6686779,-0.01,-0.07,0.97,2.62,2.32,0.55,940.97,21.29,
6686817,-0.02,-0.06,0.95,2.87,1.89,0.61,940.98,21.28,
6686856,-0.02,-0.07,0.95,2.75,1.77,0.55,940.95,21.3,
6686894,-0.01,-0.06,0.93,2.5,2.32,0.49,940.96,21.31,
6686932,-0.01,-0.07,0.92,2.62,1.95,0.43,940.99,21.3,
6686970,-0.02,-0.07,0.91,2.32,2.32,0.43,940.97,21.31,
6687009,-0.02,-0.07,0.86,2.32,2.99,0.24,940.95,21.3,
6687059,-0.01,-0.07,0.85,2.01,2.81,0.24,940.99,21.3,
6687097,-0.03,-0.07,0.83,2.2,2.93,0.24,940.99,21.31,
6687135,-0.02,-0.07,0.79,2.01,3.3,0.06,940.99,21.31,
6687173,-0.03,-0.07,0.8,1.95,3.97,0.06,940.97,21.3,
6687212,-0.06,-0.07,0.78,2.08,4.09,0.12,940.98,21.32,
6687250,-0.03,-0.07,0.79,2.26,4.21,0.06,940.98,21.31,
6687288,-0.03,-0.07,0.75,1.95,4.82,0.18,940.98,21.31,
6687326,-0.04,-0.07,0.74,1.89,4.7,0.24,941.02,21.32,
6687365,-0.03,-0.07,0.68,1.53,5.0,0.18,941.06,21.32,
6687403,-0.03,-0.06,0.71,1.65,4.7,0.24,941.01,21.31,
6687453,-0.03,-0.07,0.71,1.71,4.58,0.43,941.01,21.31,
6687491,-0.03,-0.07,0.75,1.65,4.27,0.37,940.98,21.3,
6687529,-0.03,-0.07,0.75,1.28,3.6,0.37,940.99,21.32,
6687568,-0.03,-0.07,0.79,1.46,2.2,0.61,941.07,21.33,
6687606,-0.02,-0.08,0.8,1.28,2.38,0.49,941.01,21.32,
6687644,-0.01,-0.07,0.77,1.4,1.46,0.55,941.02,21.33,
6687682,-0.04,-0.07,0.78,1.59,0.79,0.55,941.02,21.31,
6687721,-0.03,-0.07,0.75,1.22,1.28,0.73,940.99,21.33,
6687759,-0.02,-0.06,0.83,1.46,0.37,0.73,941.09,21.33,
6687809,-0.03,-0.07,0.81,1.04,0.49,0.67,941.01,21.3,
6687847,-0.03,-0.05,0.9,1.34,-0.12,0.67,941.01,21.31,
6687885,-0.02,-0.06,0.89,0.79,0.55,0.92,941.07,21.33,
6687924,-0.02,-0.06,0.95,0.85,-0.55,0.79,941.1,21.32,
6687962,-0.01,-0.07,0.94,0.79,-0.67,0.85,941.1,21.33,
6688000,-0.01,-0.06,0.96,0.55,-1.53,0.67,941.07,21.33,
6688038,-0.03,-0.06,0.97,0.79,-1.34,0.92,941.17,21.33,
6688077,-0.02,-0.05,1.01,0.85,-2.38,0.92,941.13,21.33,
6688115,-0.02,-0.05,1.02,1.04,-2.5,0.85,941.15,21.33,
6688153,-0.03,-0.05,1.01,0.85,-3.05,0.98,941.18,21.33,
6688203,-0.03,-0.06,1.04,1.28,-3.11,1.1,941.22,21.32,
6688241,-0.02,-0.05,1.05,1.1,-3.66,0.92,941.21,21.33,
6688280,-0.03,-0.05,1.04,1.16,-3.72,0.98,941.25,21.32,
6688318,-0.04,-0.05,1.0,1.04,-3.3,1.1,941.22,21.33,
6688356,-0.02,-0.06,1.04,1.28,-3.05,1.04,941.26,21.33,
6688394,-0.03,-0.06,1.0,1.34,-2.56,0.85,941.3,21.32,
6688433,-0.04,-0.05,1.0,1.59,-2.75,0.85,941.3,21.33,
6688471,-0.03,-0.06,0.96,1.53,-0.92,0.92,941.3,21.33,
6688509,-0.03,-0.05,0.96,1.65,-0.67,0.92,941.29,21.32,
6688559,-0.04,-0.06,0.97,1.77,0.24,0.85,941.29,21.32,
6688597,-0.04,-0.06,1.0,1.83,0.61,0.92,941.39,21.33,
6688636,-0.02,-0.06,1.0,1.71,0.73,1.04,941.29,21.32,
6688674,-0.03,-0.06,1.02,1.71,0.61,0.98,941.34,21.34,
6688712,-0.04,-0.06,1.03,1.65,0.67,1.22,941.35,21.32,
6688750,-0.03,-0.06,1.04,1.83,0.55,1.4,941.4,21.34,
6688789,-0.03,-0.05,1.05,1.46,0.55,1.59,941.39,21.34,
6688827,-0.04,-0.06,1.03,1.4,0.92,1.46,941.4,21.33,
6688865,-0.04,-0.05,1.01,1.53,1.4,1.34,941.4,21.34,
6688903,-0.04,-0.05,1.01,1.59,1.34,1.71,941.4,21.34,
6688953,-0.03,-0.05,1.0,1.34,1.59,2.08,941.43,21.32,
6688992,-0.04,-0.05,1.01,1.34,1.04,2.14,941.45,21.33,
6689030,-0.04,-0.05,1.01,1.34,1.53,2.44,941.42,21.32,
6689068,-0.04,-0.05,1.03,1.16,0.73,2.56,941.47,21.32,
6689106,-0.03,-0.05,1.07,0.98,0.61,2.81,941.46,21.33,
6689145,-0.03,-0.06,1.05,0.92,0.49,2.87,941.46,21.35,
6689183,-0.04,-0.05,1.1,1.1,0.37,3.11,941.47,21.33,
6689221,-0.03,-0.05,1.08,0.92,1.53,3.05,941.44,21.33,
6689260,-0.03,-0.04,1.09,0.85,1.46,3.05,941.47,21.33,
6689298,-0.03,-0.04,1.17,1.16,1.53,3.3,941.45,21.34,
6689460,-0.01,-0.04,1.17,1.4,1.4,3.66,941.5,21.26,
6689498,-0.01,-0.05,1.13,1.1,2.14,3.66,941.51,21.28,
6689537,-0.01,-0.03,1.1,1.95,2.81,3.6,941.56,21.29,
6689800,0.0,-0.07,0.94,2.81,5.43,2.75,941.6,21.21,
6689838,0.01,-0.07,0.91,2.38,5.68,2.75,941.62,21.25,
6689877,0.01,-0.06,0.93,2.14,5.25,2.62,941.55,21.25,
6689915,-0.02,-0.05,0.98,2.32,5.19,2.62,941.62,21.26,
6689953,0.0,-0.06,0.99,2.14,5.31,2.69,941.65,21.27,
6689991,0.0,-0.05,1.0,1.89,4.94,2.38,941.62,21.27,
6690041,-0.01,-0.05,0.99,1.77,5.13,2.62,941.6,21.27,
6690080,0.01,-0.06,0.97,1.65,5.74,2.38,941.66,21.28,
6690118,0.0,-0.05,0.97,1.77,5.31,2.5,941.64,21.28,
6690156,0.0,-0.06,0.94,1.53,4.64,2.38,941.68,21.29,
6690194,-0.01,-0.06,0.93,1.71,4.46,2.32,941.71,21.31,
6690233,-0.0,-0.06,0.95,1.53,4.03,2.26,941.67,21.29,
6690271,-0.0,-0.07,0.95,1.28,3.23,2.14,941.67,21.29,
6690309,-0.01,-0.06,0.93,1.22,3.48,2.14,941.7,21.3,
6690347,-0.01,-0.06,0.95,1.16,3.91,1.95,941.74,21.31,
6690386,0.0,-0.06,0.96,1.22,4.03,2.01,941.71,21.31,
6690436,-0.02,-0.05,0.99,1.28,3.48,1.83,941.74,21.3,
6690474,-0.01,-0.06,0.98,1.22,4.21,1.83,941.74,21.31,
6690512,-0.01,-0.06,1.02,1.16,4.03,1.71,941.74,21.3,
6690550,-0.01,-0.06,1.05,0.92,4.15,1.77,941.71,21.31,
6690589,-0.01,-0.06,1.03,0.92,4.15,1.71,941.77,21.31,
6690627,-0.01,-0.06,1.04,1.1,4.27,1.59,941.76,21.31,
6690665,-0.0,-0.06,0.98,0.61,4.52,1.53,941.75,21.31,
6690703,-0.0,-0.05,0.97,0.67,3.66,1.46,941.82,21.33,
6690742,-0.02,-0.06,0.9,0.55,4.15,1.83,941.78,21.31,
6690780,-0.01,-0.06,0.93,1.16,3.6,1.59,941.82,21.32,
6690830,0.01,-0.07,0.9,0.85,3.11,1.46,941.79,21.3,
6690868,-0.01,-0.06,0.92,0.98,2.62,1.46,941.78,21.32,
6690906,-0.01,-0.06,0.98,1.16,2.5,1.46,941.79,21.32,
6690945,-0.01,-0.07,0.97,0.98,1.77,1.4,941.86,21.33,
6690983,-0.01,-0.06,0.99,1.22,1.04,1.53,941.84,21.32,
6691021,-0.01,-0.06,0.99,1.4,1.65,1.34,941.8,21.31,
6691059,-0.01,-0.05,0.98,1.22,1.53,1.28,941.83,21.32,
6691098,0.0,-0.05,1.03,1.65,1.04,1.4,941.85,21.33,
6691136,-0.01,-0.06,1.02,1.53,0.98,1.4,941.82,21.32,
6691186,-0.01,-0.05,1.07,1.65,1.4,1.46,941.84,21.31,
6691224,-0.01,-0.06,1.05,1.59,1.28,1.34,941.82,21.32,
6691262,-0.02,-0.05,1.07,1.65,1.46,1.4,941.86,21.32,
6691301,-0.0,-0.05,1.07,1.65,1.65,1.16,941.96,21.33,
6691339,-0.0,-0.05,1.08,1.59,1.46,1.16,941.93,21.32,
6691377,-0.0,-0.05,1.07,1.83,1.28,1.16,941.9,21.33,
6691415,-0.0,-0.05,1.06,1.83,1.34,1.04,941.9,21.32,
6691453,-0.01,-0.06,1.06,1.83,1.46,1.34,941.89,21.32,
6691492,-0.01,-0.06,1.08,1.95,2.01,1.22,941.91,21.34,
6691530,-0.02,-0.05,1.03,2.14,2.32,1.22,941.87,21.33,
6691580,-0.01,-0.05,1.05,2.26,2.56,1.16,941.93,21.32,
6691618,0.0,-0.06,1.02,2.14,3.3,1.16,942.0,21.33,
6691656,-0.0,-0.06,1.02,2.2,2.5,1.22,941.94,21.33,
6691695,-0.01,-0.06,1.0,1.83,3.17,1.04,941.96,21.33,
6691733,-0.02,-0.05,0.97,1.71,2.56,1.1,941.91,21.33,
6691771,-0.0,-0.06,1.0,1.95,3.17,0.85,941.91,21.33,
6691809,0.0,-0.06,0.96,1.65,2.99,1.04,941.96,21.33,
6691848,0.0,-0.06,0.97,1.83,2.38,0.98,942.0,21.34,
6691886,-0.01,-0.07,0.92,1.59,3.11,0.92,941.95,21.33,
6691924,-0.0,-0.06,0.93,1.77,2.75,0.85,941.98,21.33,
6691974,-0.0,-0.07,0.9,1.59,3.3,0.85,942.01,21.32,
6692012,-0.01,-0.06,0.94,1.83,3.6,0.85,942.02,21.33,
6692051,-0.02,-0.07,0.94,1.59,3.91,0.79,942.01,21.33,
6692089,-0.01,-0.06,0.96,1.77,4.15,0.67,942.0,21.32,
6692127,-0.0,-0.05,1.0,1.71,3.05,0.79,942.01,21.33,
6692165,-0.01,-0.05,1.05,1.77,2.69,0.79,942.01,21.34,
6692204,-0.03,-0.05,1.0,1.46,3.42,0.98,942.03,21.33,
6692242,-0.01,-0.05,1.1,1.89,2.62,0.85,942.06,21.34,
6692280,0.0,-0.06,1.07,1.4,3.6,1.04,942.06,21.34,
6692330,-0.01,-0.03,1.14,2.08,2.14,1.04,942.06,21.33,
6692368,0.0,-0.05,1.07,1.77,3.97,0.98,942.07,21.32,
6692407,-0.0,-0.04,1.1,2.26,2.32,0.85,942.07,21.33,
6692445,-0.01,-0.05,1.14,2.44,2.75,0.98,942.09,21.33,
6692483,-0.01,-0.06,1.06,2.44,2.14,0.98,942.13,21.35,
6692521,-0.01,-0.05,1.1,2.75,2.26,0.85,942.1,21.34,
6692560,-0.0,-0.04,1.06,2.69,2.32,0.98,942.13,21.34,
6692598,0.01,-0.05,1.07,3.05,1.95,0.79,942.1,21.34,
6692636,-0.0,-0.05,1.01,2.69,2.69,0.73,942.11,21.33,
6692674,-0.0,-0.05,1.05,3.17,2.26,0.55,942.08,21.34,
6692781,0.0,-0.05,1.02,2.99,2.75,0.55,942.09,21.29,
6692819,0.0,-0.06,0.97,3.17,2.5,0.49,942.09,21.31,
6692858,-0.0,-0.05,0.98,3.23,2.01,0.37,942.17,21.31,
6692947,-0.01,-0.06,0.92,3.05,2.69,0.24,942.17,21.28,
6692986,-0.0,-0.06,0.91,2.69,2.93,0.24,942.19,21.3,
6693024,-0.01,-0.05,0.92,3.05,2.32,0.12,942.19,21.29,
6693062,-0.01,-0.06,0.86,2.5,2.56,0.06,942.2,21.31,
6693100,-0.01,-0.05,0.91,2.75,1.77,0.18,942.14,21.3,
6693139,-0.0,-0.06,0.89,2.38,1.28,0.18,942.22,21.32,
6693177,-0.01,-0.06,0.91,2.62,0.31,0.12,942.2,21.32,
6693227,-0.0,-0.05,0.9,2.2,0.37,0.18,942.17,21.31,
6693265,-0.01,-0.05,0.92,2.56,-0.49,0.31,942.18,21.31,
6693303,-0.0,-0.06,0.88,2.38,-1.04,0.37,942.22,21.31,
6693342,-0.02,-0.05,0.9,2.75,-2.01,0.24,942.18,21.32,
6693380,-0.0,-0.06,0.87,2.75,-1.4,0.24,942.2,21.31,
6693418,0.01,-0.05,0.9,2.62,-2.32,0.31,942.26,21.31,
6693456,0.0,-0.06,0.91,2.87,-2.44,0.18,942.29,21.32,
6693495,-0.02,-0.06,0.87,2.62,-2.26,0.31,942.21,21.32,
6693533,-0.01,-0.05,0.91,2.93,-2.14,0.24,942.27,21.32,
6693583,-0.01,-0.05,0.89,2.5,-1.53,0.18,942.23,21.32,
6693621,-0.02,-0.05,0.91,2.5,-1.28,0.24,942.21,21.33,
6693659,-0.0,-0.05,0.91,2.14,-0.43,0.0,942.27,21.33,
6693698,-0.01,-0.05,0.94,2.38,0.06,0.0,942.26,21.32,
6693736,-0.01,-0.05,0.91,2.26,0.49,0.18,942.3,21.33,
6693774,-0.02,-0.04,0.93,2.62,0.73,0.18,942.28,21.34,
6693812,-0.02,-0.05,0.91,2.5,1.65,0.06,942.34,21.34,
6693851,-0.01,-0.05,0.94,2.69,1.53,0.12,942.35,21.33,
6693889,-0.01,-0.05,0.94,2.75,2.2,0.0,942.31,21.32,
6693927,-0.01,-0.04,0.97,2.69,2.32,-0.06,942.34,21.33,
6693977,-0.01,-0.05,0.98,2.56,3.6,15.56,942.33,21.31,
6694015,-0.02,-0.04,0.99,2.5,3.48,0.12,942.37,21.33,
6694054,-0.03,-0.05,0.98,2.26,4.7,0.18,942.4,21.33,
6694092,-0.02,-0.04,0.97,2.14,4.88,0.12,942.34,21.33,
6694130,-0.0,-0.03,1.0,2.32,5.0,0.0,942.39,21.34,
6694168,-0.02,-0.05,0.96,2.2,5.98,0.12,942.45,21.34,
6694207,-0.01,-0.05,0.99,2.32,5.86,0.24,942.43,21.34,
6694245,-0.02,-0.05,1.0,2.56,6.1,0.06,942.42,21.35,
6694283,-0.02,-0.06,0.94,2.69,6.29,0.12,942.42,21.33,
6694321,-0.02,-0.05,0.92,2.99,6.16,0.18,942.41,21.34,
6694371,-0.03,-0.06,0.82,2.62,6.84,0.06,942.44,21.33,
6694410,-0.02,-0.05,0.86,2.81,5.86,0.24,942.47,21.33,
6694448,-0.01,-0.06,0.83,2.38,6.23,0.43,942.5,21.35,
6694486,-0.03,-0.05,0.87,2.56,4.82,0.61,942.49,21.35,
6694524,-0.04,-0.06,0.88,2.44,4.82,0.79,942.45,21.33,
6694563,-0.03,-0.06,0.91,1.77,4.58,0.55,942.46,21.35,
6694601,-0.02,-0.04,0.97,1.89,4.58,0.73,942.5,21.35,
6694639,-0.01,-0.04,0.98,1.53,4.64,0.85,942.48,21.33,
6694678,-0.03,-0.04,1.01,1.65,5.31,0.85,942.54,21.34,
6694727,-0.01,-0.04,1.09,1.34,6.35,0.98,942.54,21.32,
6694766,-0.02,-0.04,1.11,1.71,6.59,1.1,942.55,21.33,
6694804,-0.04,-0.04,1.05,1.53,6.71,1.16,942.58,21.34,
6694842,-0.02,-0.03,1.1,1.77,6.96,0.98,942.56,21.34,
6694880,0.0,-0.03,1.1,1.83,7.32,0.92,942.52,21.33,
6694919,-0.01,-0.04,1.08,1.83,6.65,1.28,942.56,21.32,
6694957,-0.03,-0.03,1.11,1.77,6.65,1.34,942.6,21.35,
6694995,-0.03,-0.05,1.11,1.95,7.51,1.28,942.59,21.36,
6695033,-0.02,-0.04,1.13,2.08,6.65,1.46,942.63,21.34,
6695072,-0.03,-0.04,1.13,2.01,6.47,1.34,942.61,21.33,
6695122,-0.01,-0.04,1.09,2.08,6.35,1.53,942.64,21.33,
6695160,-0.02,-0.04,1.07,2.01,6.35,1.65,942.67,21.34,
6695198,-0.02,-0.04,1.03,1.95,5.8,1.83,942.62,21.33,
6695236,-0.02,-0.04,1.03,2.14,5.07,1.77,942.72,21.35,
6695275,-0.03,-0.04,1.01,2.08,4.82,1.89,942.67,21.33,
6695313,-0.02,-0.05,1.0,2.38,3.91,1.89,942.61,21.34,
6695351,-0.01,-0.05,1.01,2.38,3.66,2.01,942.71,21.35,
6695389,-0.02,-0.05,0.99,2.44,3.17,1.89,942.69,21.35,
6695428,-0.02,-0.04,1.01,2.69,3.3,1.89,942.7,21.34,
6695466,-0.02,-0.05,0.98,2.38,3.23,2.08,942.69,21.35,
6695516,-0.02,-0.04,0.98,2.81,2.87,1.95,942.7,21.33,
6695554,-0.01,-0.05,0.96,2.69,2.62,1.89,942.7,21.34,
6695592,-0.02,-0.04,0.97,2.87,2.62,1.65,942.72,21.33,
6695631,-0.03,-0.05,0.97,2.99,2.87,2.01,942.77,21.35,
6695669,-0.03,-0.05,0.99,3.11,2.01,1.83,942.7,21.33,
6695707,-0.03,-0.05,0.98,2.81,2.56,1.89,942.77,21.34,
6695745,-0.03,-0.04,1.01,3.11,2.69,1.95,942.72,21.35,
6695784,-0.03,-0.04,1.01,2.81,3.48,2.01,942.72,21.33,
6695822,-0.02,-0.03,1.06,3.05,3.36,2.08,942.74,21.35,
6695898,-0.02,-0.04,1.08,3.05,4.52,2.01,942.75,21.3,
6695936,-0.03,-0.04,1.08,2.99,5.43,1.83,942.8,21.33,
6695974,-0.01,-0.03,1.1,3.11,5.19,1.89,942.78,21.33,
6696064,-0.02,-0.04,1.04,3.3,5.0,1.95,942.79,21.3,
6696102,-0.01,-0.03,1.06,3.42,4.88,1.89,942.85,21.32,
6696140,-0.0,-0.04,1.07,3.36,4.03,1.95,942.82,21.32,
6696179,-0.01,-0.03,1.11,3.3,2.93,1.95,942.83,21.33,
6696217,-0.02,-0.03,1.11,3.23,3.48,2.08,942.82,21.33,
6696255,0.0,-0.02,1.15,2.93,3.05,2.01,942.88,21.33,
6696293,-0.0,-0.03,1.17,2.87,2.38,1.83,942.84,21.32,
6696343,-0.01,-0.05,1.17,2.93,1.65,2.08,942.85,21.32,
6696381,-0.01,-0.05,1.12,2.87,1.71,1.89,942.88,21.33,
6696420,-0.0,-0.04,1.12,2.93,1.71,1.65,942.91,21.33,
6696458,-0.0,-0.04,1.08,3.11,1.16,1.95,942.94,21.33,
6696496,-0.0,-0.05,1.08,2.99,0.73,1.77,942.88,21.33,
6696534,-0.0,-0.06,1.05,2.93,0.98,1.65,942.91,21.32,
6696573,0.0,-0.05,1.04,2.81,0.06,1.53,942.89,21.33,
6696611,-0.0,-0.05,1.03,2.75,0.37,1.53,942.88,21.34,
6696649,-0.01,-0.05,1.01,2.56,0.31,1.34,942.95,21.34,
6696687,0.0,-0.06,1.02,2.87,0.31,1.22,942.94,21.34,
6696737,-0.01,-0.06,0.97,2.5,0.18,1.22,942.89,21.32,
6696776,-0.01,-0.06,0.96,2.26,-0.12,1.16,942.91,21.33,
6696814,0.0,-0.05,0.93,2.01,0.24,0.98,942.97,21.33,
6696852,0.0,-0.05,0.95,2.14,-0.79,0.85,942.99,21.34,
6696890,-0.01,-0.06,0.93,1.83,-1.1,0.92,942.97,21.35,
6696929,-0.01,-0.06,0.94,1.89,-1.59,0.92,942.95,21.34,
6696967,0.0,-0.06,0.95,1.89,-1.65,0.79,942.98,21.33,
6697005,-0.01,-0.06,0.95,1.77,-1.28,0.79,942.92,21.34,
6697043,-0.01,-0.07,0.93,1.71,-0.98,0.73,942.94,21.35,
6697093,0.0,-0.07,0.92,1.83,-0.67,0.49,943.0,21.33,
6697132,-0.0,-0.06,0.89,1.65,-0.43,0.55,943.04,21.35,
6697170,-0.0,-0.06,0.92,2.01,-0.18,0.31,943.03,21.34,
6697208,0.0,-0.07,0.89,1.83,-0.06,0.12,943.01,21.34,
6697246,-0.01,-0.07,0.85,1.71,0.55,0.0,943.04,21.35,
6697285,-0.02,-0.07,0.82,1.53,1.77,-0.06,943.04,21.34,
6697323,-0.01,-0.07,0.81,1.46,1.71,-0.18,943.1,21.35,
6697361,-0.02,-0.06,0.81,0.98,2.2,-0.12,943.05,21.33,
6697399,-0.01,-0.06,0.85,0.85,2.5,-0.18,943.07,21.35,
6697438,-0.02,-0.07,0.86,0.49,3.48,-0.18,943.07,21.35,
6697488,-0.02,-0.06,0.91,0.24,3.11,0.0,943.08,21.34,
6697526,-0.01,-0.07,0.96,0.12,3.6,0.0,943.08,21.35,
6697564,-0.01,-0.06,0.99,-0.06,2.99,-0.31,943.06,21.35,
6697602,-0.02,-0.06,0.99,0.12,3.17,-0.12,943.12,21.35,
6697641,-0.01,-0.06,0.98,0.0,3.23,0.0,943.14,21.35,
6697679,-0.02,-0.06,1.03,-0.12,2.81,0.06,943.1,21.36,
6697717,-0.02,-0.06,1.02,-0.06,2.69,0.0,943.12,21.34,
6697755,-0.03,-0.06,1.05,0.0,1.71,0.06,943.14,21.35,
6697793,-0.03,-0.06,1.07,-0.06,2.08,0.18,943.15,21.35,
6697843,-0.01,-0.05,1.06,-0.12,1.89,0.12,943.21,21.34,
6697882,-0.03,-0.05,1.06,-0.12,2.32,0.18,943.14,21.33,
6697920,-0.02,-0.05,1.09,-0.06,2.56,0.31,943.17,21.35,
6697958,-0.02,-0.06,1.11,-0.06,3.05,0.18,943.17,21.34,
6697996,-0.02,-0.06,1.14,0.0,3.11,0.06,943.19,21.36,
6698035,-0.03,-0.06,1.11,-0.06,3.66,0.12,943.19,21.35,
6698073,-0.02,-0.05,1.12,0.12,4.64,0.06,943.19,21.35,
6698111,-0.02,-0.05,1.14,0.18,5.13,0.0,943.22,21.35,
6698149,-0.01,-0.06,1.14,0.43,4.76,0.06,943.19,21.36,
6698188,-0.02,-0.05,1.12,0.49,5.0,0.12,943.23,21.36,
6698238,-0.02,-0.05,1.11,0.55,5.74,0.0,943.26,21.34,
6698276,-0.02,-0.05,1.09,0.43,5.8,0.06,943.2,21.34,
6698314,-0.02,-0.05,1.12,0.61,5.43,0.06,943.17,21.34,
6698352,-0.02,-0.06,1.12,0.73,5.86,-0.06,943.23,21.35,
6698391,-0.01,-0.06,1.11,0.73,5.98,0.06,943.18,21.34,
6698429,-0.02,-0.05,1.11,0.85,5.43,0.06,943.23,21.34,
6698467,-0.03,-0.06,1.08,0.92,5.98,0.18,943.27,21.36,
6698506,-0.01,-0.06,1.09,0.85,5.92,0.12,943.21,21.35,
6698544,-0.02,-0.06,1.07,0.79,5.68,0.06,943.19,21.35,
6698582,-0.03,-0.06,1.07,1.04,5.0,0.31,943.25,21.35,
6698632,-0.02,-0.06,1.06,0.79,5.25,0.18,943.26,21.35,
6698670,-0.02,-0.05,1.1,0.92,4.46,0.18,943.24,21.35,
6698708,-0.03,-0.06,1.1,0.61,4.52,0.24,943.21,21.35,
6698747,-0.02,-0.05,1.1,0.73,4.21,0.18,943.32,21.36,
6698785,-0.02,-0.05,1.09,0.49,5.0,0.24,943.26,21.35,
6698823,-0.02,-0.06,1.09,0.67,4.15,0.24,943.26,21.35,
6698861,-0.02,-0.06,1.08,0.67,4.7,0.18,943.21,21.35,
6698900,-0.03,-0.06,1.05,0.49,4.52,0.24,943.27,21.36,
6698938,-0.03,-0.06,1.06,0.79,4.94,0.49,943.26,21.35,
6699014,-0.02,-0.06,1.03,0.92,5.55,0.43,943.24,21.34,
6699052,-0.02,-0.06,1.01,0.43,6.96,0.49,943.24,21.33,
6699091,-0.02,-0.06,1.02,0.55,6.96,0.55,943.23,21.34,
6699262,-0.01,-0.06,1.06,0.67,9.52,0.85,943.22,21.27,
6699300,0.02,-0.07,1.04,0.43,10.25,0.73,943.27,21.3,
6699338,0.0,-0.07,1.02,0.43,10.13,0.79,943.17,21.29,
6699377,-0.0,-0.06,1.02,0.55,10.86,0.73,943.18,21.3,
6699415,0.02,-0.07,0.99,0.43,11.47,0.55,943.21,21.32,
6699453,0.02,-0.06,1.0,0.37,11.17,0.49,943.15,21.31,
6699491,0.01,-0.06,1.02,0.31,11.29,0.49,943.23,21.31,
6699541,0.02,-0.07,1.02,0.12,11.54,0.24,943.2,21.32,
6699580,0.01,-0.06,1.04,0.24,11.47,0.18,943.2,21.32,
6699618,0.01,-0.07,1.03,0.18,11.41,0.24,943.19,21.32,
6699656,0.01,-0.06,1.05,0.18,11.47,0.12,943.22,21.32,
6699694,0.03,-0.06,1.04,0.24,11.29,0.0,943.19,21.32,
6699733,0.0,-0.06,1.06,0.12,10.07,-0.06,943.22,21.32,
6699771,0.02,-0.06,1.08,0.0,10.01,-0.06,943.22,21.33,
6699809,0.02,-0.06,1.07,0.18,9.46,-0.31,943.25,21.33,
6699847,0.01,-0.06,1.1,0.06,8.91,-0.37,943.26,21.35,
6699897,0.01,-0.07,1.09,0.12,8.06,-0.43,943.3,21.33,
6699936,0.0,-0.06,1.12,0.24,7.57,-0.55,943.23,21.33,
6699974,0.01,-0.07,1.1,0.18,7.51,-0.73,943.23,21.32,
6700012,0.01,-0.06,1.11,0.12,6.9,-0.67,943.3,21.34,
6700050,0.0,-0.06,1.08,0.12,6.65,-0.85,943.3,21.35,
6700089,0.0,-0.06,1.06,0.12,5.92,-0.92,943.29,21.34,
6700127,-0.01,-0.06,1.06,0.12,5.49,-1.22,943.33,21.34,
6700165,-0.01,-0.07,1.05,0.0,5.0,-1.1,943.32,21.34,
6700203,-0.0,-0.06,1.05,0.12,4.39,-1.22,943.32,21.35,
6700242,-0.02,-0.06,1.06,0.31,4.27,-1.34,943.36,21.35,
6700292,-0.01,-0.06,1.08,0.43,4.03,-1.46,943.32,21.33,
6700330,-0.02,-0.06,1.06,0.24,3.72,-1.71,943.32,21.34,
6700368,-0.02,-0.06,1.07,0.43,3.23,-1.46,943.29,21.35,
6700406,-0.01,-0.06,1.06,0.55,3.78,-1.53,943.27,21.33,
6700445,-0.01,-0.06,1.08,0.49,3.48,-1.59,943.29,21.34,
6700483,-0.02,-0.06,1.07,0.49,3.48,-1.65,943.31,21.35,
6700521,-0.03,-0.05,1.07,0.49,3.54,-1.65,943.26,21.35,
6700559,-0.01,-0.06,1.11,0.92,3.17,-1.65,943.33,21.34,
6700598,-0.03,-0.06,1.07,0.67,3.36,-1.65,943.3,21.34,
6700636,-0.03,-0.06,1.08,0.85,3.11,-1.65,943.36,21.35,
6700686,-0.02,-0.05,1.05,0.92,3.54,-1.77,943.32,21.35,
6700724,-0.02,-0.04,1.06,0.98,3.11,-1.83,943.29,21.34,
6700762,-0.03,-0.06,1.05,0.92,3.48,-1.83,943.24,21.34,
6700801,-0.03,-0.05,1.07,1.04,3.6,-1.59,943.31,21.34,
6700839,-0.02,-0.06,1.07,0.85,4.15,-1.83,943.28,21.35,
6700877,-0.02,-0.06,1.06,1.16,3.97,-1.83,943.27,21.34,
6700915,-0.02,-0.05,1.07,1.22,4.15,-1.83,943.26,21.34,
6700954,-0.02,-0.06,1.03,0.92,4.52,-1.83,943.31,21.35,
6700992,-0.01,-0.05,1.05,0.92,4.21,-1.89,943.28,21.35,
6701042,-0.03,-0.06,1.0,0.98,4.52,-1.83,943.32,21.35,
6701080,-0.02,-0.05,1.03,1.04,4.46,-2.01,943.26,21.34,
6701118,-0.02,-0.05,1.03,0.98,4.03,-1.89,943.25,21.35,
6701157,-0.02,-0.05,1.03,1.04,3.42,-1.89,943.31,21.34,
6701195,-0.02,-0.05,1.04,1.16,2.75,-1.71,943.26,21.34,
6701233,-0.02,-0.06,1.05,1.04,2.26,-1.71,943.3,21.35,
6701272,-0.02,-0.06,1.03,1.04,2.26,-1.71,943.25,21.36,
6701310,-0.03,-0.05,1.03,1.1,1.4,-1.59,943.28,21.35,
6701348,-0.03,-0.06,1.03,1.22,0.98,-1.59,943.22,21.34,
6701398,-0.02,-0.05,1.01,1.1,0.37,-1.59,943.24,21.34,
6701436,-0.03,-0.05,1.01,0.98,0.24,-1.53,943.2,21.33,
6701475,-0.03,-0.06,1.0,1.1,0.18,-1.4,943.21,21.35,
6701513,-0.02,-0.05,1.03,1.16,0.24,-1.4,943.25,21.35,
6701551,-0.02,-0.06,1.0,1.16,0.06,-1.53,943.2,21.33,
6701589,-0.03,-0.06,1.05,1.22,-0.24,-1.46,943.21,21.36,
6701627,-0.03,-0.06,1.02,1.16,-0.18,-1.28,943.28,21.35,
6701666,-0.02,-0.06,0.99,1.28,-0.18,-1.4,943.24,21.35,
6701704,-0.02,-0.06,0.99,1.4,-0.24,-1.53,943.24,21.35,
6701742,-0.02,-0.07,0.96,1.34,-0.31,-1.4,943.23,21.35,
6701792,-0.02,-0.06,0.94,1.22,0.31,-1.53,943.18,21.34,
6701830,-0.02,-0.05,0.95,1.46,0.24,-1.53,943.25,21.35,
6701869,-0.03,-0.06,0.93,1.34,0.12,-1.46,943.21,21.34,
6701907,-0.03,-0.06,0.94,1.46,-0.24,-1.46,943.22,21.33,
6701945,-0.03,-0.06,0.95,1.1,0.12,-1.46,943.18,21.35,
6701983,-0.02,-0.06,0.98,1.28,0.18,-1.46,943.21,21.35,
6702022,-0.01,-0.06,0.98,1.16,0.24,-1.59,943.19,21.35,
6702060,-0.03,-0.06,0.96,1.22,0.24,-1.53,943.23,21.35,
6702098,-0.02,-0.06,0.98,1.22,0.49,-1.53,943.18,21.36,
6702174,-0.03,-0.06,0.99,1.4,0.0,-1.46,943.16,21.31,
6702212,-0.01,-0.06,0.99,1.46,-0.06,-1.59,943.16,21.33,
6702251,-0.01,-0.06,1.01,1.71,-0.37,-1.46,943.18,21.34,
6702340,-0.03,-0.06,0.95,1.59,-0.73,-1.46,943.18,21.31,
6702379,-0.01,-0.06,0.96,1.4,-1.1,-1.59,943.2,21.32,
6702417,-0.01,-0.06,0.96,1.53,-1.53,-1.46,943.23,21.33,
6702455,-0.04,-0.07,0.96,1.71,-1.1,-1.46,943.18,21.33,
6702493,-0.02,-0.07,0.95,1.1,-0.73,-1.65,943.14,21.33,
6702532,-0.02,-0.05,0.98,1.28,-1.28,-1.65,943.16,21.34,
6702570,-0.01,-0.06,0.96,1.16,-0.98,-1.59,943.2,21.33,
6702620,-0.03,-0.06,0.96,1.16,-1.34,-1.65,943.15,21.32,
6702658,-0.02,-0.06,0.95,1.1,-0.49,-1.65,943.2,21.34,
6702696,-0.03,-0.06,0.96,1.22,-0.43,-1.77,943.19,21.34,
6702735,-0.03,-0.06,0.98,1.4,0.24,-1.71,943.16,21.33,
6702773,-0.02,-0.06,0.99,1.4,0.37,-1.77,943.18,21.34,
6702811,-0.02,-0.06,0.97,1.4,0.73,-1.77,943.22,21.35,
6702850,-0.02,-0.06,0.97,1.46,1.04,-1.83,943.22,21.34,
6702888,-0.03,-0.06,0.97,1.16,1.65,-1.95,943.17,21.35,
6702926,-0.02,-0.05,1.0,1.16,1.71,-1.83,943.13,21.35,
6702976,-0.03,-0.05,1.0,1.04,2.14,-1.77,943.18,21.34,
6703014,-0.02,-0.05,1.01,1.1,2.14,-2.14,943.23,21.35,
6703053,-0.03,-0.05,1.01,0.98,2.38,-1.95,943.25,21.35,
6703091,-0.02,-0.05,1.04,1.1,2.44,-1.95,943.18,21.34,
6703129,-0.03,-0.05,1.05,1.28,2.56,-2.01,943.17,21.35,
6703167,-0.03,-0.04,1.05,1.59,2.26,-1.95,943.21,21.36,
6703206,-0.03,-0.05,1.03,1.83,1.83,-1.77,943.21,21.35,
6703244,-0.03,-0.06,1.0,1.95,1.71,-1.71,943.27,21.36,
6703282,-0.03,-0.05,0.97,2.08,1.1,-1.77,943.19,21.36,
6703320,-0.03,-0.06,0.93,2.32,0.61,-1.65,943.21,21.35,
6703370,-0.03,-0.05,0.91,2.69,-0.24,-1.34,943.19,21.34,
6703409,-0.04,-0.06,0.88,2.56,-0.24,-1.28,943.22,21.35,
6703447,-0.03,-0.05,0.9,2.62,-0.92,-1.16,943.14,21.34,
6703485,-0.03,-0.06,0.88,2.5,-0.92,-1.16,943.18,21.35,
6703523,-0.02,-0.06,0.88,2.62,-1.4,-1.1,943.19,21.36,
6703562,-0.03,-0.06,0.87,2.5,-1.4,-1.1,943.21,21.37,
6703600,-0.02,-0.06,0.87,2.62,-1.4,-0.98,943.24,21.36,
6703638,-0.01,-0.06,0.88,2.62,-1.59,-1.04,943.2,21.35,
6703677,-0.02,-0.06,0.86,2.14,-1.65,-1.1,943.21,21.37,
6703727,-0.02,-0.06,0.88,2.2,-1.28,-1.22,943.24,21.36,
6703765,-0.02,-0.06,0.88,2.08,-1.1,-1.16,943.23,21.35,
6703803,-0.03,-0.05,0.9,2.08,-1.22,-1.22,943.21,21.36,
6703841,-0.03,-0.06,0.94,2.01,-0.79,-1.22,943.23,21.35,
6703880,-0.02,-0.06,0.94,1.89,-0.55,-1.4,943.24,21.36,
6703918,-0.03,-0.06,0.94,1.71,-0.24,-1.22,943.29,21.36,
6703956,-0.03,-0.05,0.95,1.59,0.18,-1.34,943.25,21.35,
6703994,-0.03,-0.05,0.96,1.65,0.12,-1.28,943.21,21.36,
6704033,-0.03,-0.05,1.01,1.59,0.61,-1.22,943.23,21.36,
6704083,-0.02,-0.05,1.02,2.08,0.43,-1.1,943.32,21.36,
6704121,-0.04,-0.05,1.02,2.01,0.92,-1.04,943.28,21.36,
6704159,-0.03,-0.04,1.0,2.14,1.04,-0.98,943.25,21.36,
6704197,-0.03,-0.04,1.04,2.32,1.4,-0.92,943.27,21.34,
6704236,-0.02,-0.04,1.05,2.26,1.71,-0.79,943.24,21.36,
6704274,-0.03,-0.04,1.12,2.2,1.71,-0.98,943.27,21.36,
6704312,-0.03,-0.04,1.12,2.08,2.26,-0.92,943.19,21.36,
6704350,-0.03,-0.04,1.17,1.95,1.4,-0.61,943.25,21.36,
6704389,-0.03,-0.03,1.17,1.89,1.53,-0.67,943.25,21.36,
6704427,-0.02,-0.02,1.21,2.14,-0.18,-0.61,943.25,21.36,
6704477,-0.03,-0.05,1.16,1.95,-1.22,-0.37,943.27,21.36,
6704515,-0.03,-0.04,1.15,2.01,-2.87,-0.12,943.24,21.35,
6704554,-0.03,-0.04,1.17,2.2,-3.23,0.06,943.24,21.35,
6704592,-0.03,-0.04,1.11,2.32,-4.33,0.12,943.22,21.35,
6704630,-0.05,-0.04,1.1,2.69,-5.37,0.12,943.28,21.36,
6704668,-0.04,-0.06,1.0,2.2,-5.37,0.24,943.23,21.36,
6704707,-0.03,-0.05,1.04,2.44,-6.65,0.24,943.24,21.36,
6704745,-0.04,-0.05,0.96,2.01,-5.25,0.31,943.2,21.35,
6704783,-0.04,-0.05,1.0,2.5,-6.77,0.43,943.2,21.36,
6704833,-0.07,-0.05,0.97,2.14,-5.13,0.24,943.19,21.35,
6704871,-0.05,-0.04,1.09,2.38,-4.58,0.31,943.16,21.35,
6704910,-0.05,-0.03,1.14,1.71,-2.44,0.12,943.19,21.36,
6704948,-0.08,-0.03,1.13,1.16,-2.26,0.24,943.17,21.35,
6704986,-0.08,-0.04,1.19,1.22,-1.04,0.55,943.17,21.36,
6705024,-0.06,-0.04,1.16,1.1,0.73,0.49,943.19,21.36,
6705063,-0.05,-0.02,1.19,1.22,1.16,0.61,943.19,21.37,
6705101,-0.05,-0.02,1.16,1.1,2.14,0.79,943.24,21.37,
6705139,-0.06,-0.04,1.07,1.34,2.93,1.22,943.23,21.37,
6705178,-0.07,-0.05,1.1,1.77,3.6,1.4,943.18,21.36,
6705254,-0.06,-0.03,1.07,2.32,2.87,1.89,943.25,21.34,
6705292,-0.03,-0.05,1.01,2.14,2.75,2.14,943.23,21.34,
6705330,-0.03,-0.05,0.98,2.01,2.38,2.38,943.25,21.35,
6705420,-0.03,-0.05,0.96,1.65,0.67,2.99,943.27,21.31,
6705458,-0.05,-0.03,0.99,1.34,-0.98,3.17,943.23,21.33,
6705496,-0.04,-0.06,1.0,1.77,-1.34,3.3,943.23,21.34,
6705535,-0.01,-0.05,0.93,1.04,-1.22,3.17,943.29,21.34,
6705573,-0.01,-0.05,0.98,1.83,-2.69,3.42,943.28,21.35,
6705611,-0.02,-0.07,0.89,1.53,-2.38,3.48,943.27,21.35,
6705661,-0.04,-0.06,0.89,1.83,-2.5,3.54,943.23,21.34,
6705699,-0.03,-0.06,0.8,1.34,-1.22,3.48,943.3,21.35,
6705738,-0.02,-0.05,0.79,1.89,-2.99,3.17,943.28,21.36,
6705776,-0.02,-0.06,0.78,1.83,-2.26,3.23,943.25,21.35,
6705814,-0.0,-0.07,0.8,1.46,-1.71,3.11,943.2,21.36,
6705852,-0.02,-0.07,0.84,1.77,-1.28,3.3,943.21,21.34,
6705891,-0.02,-0.06,0.86,1.1,-0.67,3.11,943.26,21.37,
6705929,-0.02,-0.05,0.89,1.83,0.06,2.87,943.21,21.36,
6705967,-0.0,-0.07,0.89,1.53,1.53,2.62,943.23,21.36,
6706005,-0.01,-0.05,0.91,1.34,0.98,2.56,943.28,21.36,
6706055,-0.01,-0.06,0.9,1.1,2.81,2.62,943.22,21.35,
6706094,0.0,-0.05,0.96,1.59,2.32,2.14,943.25,21.34,
6706132,-0.01,-0.05,0.95,1.28,3.72,2.38,943.27,21.35,
6706170,-0.02,-0.06,1.03,1.46,3.11,2.32,943.24,21.36,
6706208,-0.0,-0.07,1.01,1.46,3.6,2.01,943.27,21.36,
6706247,-0.0,-0.05,1.01,1.53,3.54,1.83,943.29,21.36,
6706285,0.0,-0.05,1.0,1.65,4.27,1.77,943.26,21.37,
6706323,-0.0,-0.05,0.98,1.28,4.21,1.71,943.25,21.36,
6706361,-0.01,-0.06,1.0,1.77,4.15,1.65,943.26,21.38,
6706411,-0.02,-0.06,1.0,2.08,3.85,1.53,943.24,21.34,
6706450,-0.01,-0.05,1.04,1.89,3.72,1.53,943.26,21.36,
6706488,-0.0,-0.05,1.05,1.89,3.85,1.34,943.27,21.36,
6706526,-0.01,-0.06,1.05,2.32,3.54,1.22,943.2,21.35,
6706565,-0.02,-0.05,1.03,2.08,4.21,1.22,943.24,21.35,
6706603,-0.0,-0.05,1.03,2.38,3.91,1.28,943.24,21.36,
6706641,-0.01,-0.05,1.01,2.2,3.78,1.22,943.28,21.37,
6706679,-0.01,-0.05,1.03,2.5,3.48,1.16,943.28,21.37,
6706717,-0.01,-0.06,1.01,2.5,3.72,0.98,943.23,21.36,
6706756,-0.0,-0.06,1.03,2.44,3.23,0.98,943.25,21.37,
6706806,-0.0,-0.06,1.02,2.26,2.69,0.98,943.31,21.36,
6706844,-0.01,-0.06,0.97,2.01,3.17,0.92,943.26,21.36,
6706882,-0.01,-0.06,0.96,1.89,3.42,0.85,943.28,21.37,
6706920,-0.0,-0.06,0.95,1.77,3.48,0.73,943.26,21.37,
6706959,-0.01,-0.06,0.92,1.59,3.42,0.67,943.21,21.38,
6706997,-0.01,-0.05,0.92,1.65,3.54,0.55,943.31,21.37,
6707035,0.0,-0.06,0.92,1.89,4.09,0.49,943.3,21.37,
6707074,0.0,-0.07,0.94,1.77,4.03,0.37,943.27,21.37,
6707112,-0.01,-0.06,0.93,1.71,3.85,0.37,943.31,21.36,
6707150,-0.02,-0.06,0.92,1.77,4.03,0.37,943.24,21.36,
6707200,-0.0,-0.06,0.88,1.59,4.52,0.24,943.27,21.37,
6707238,-0.02,-0.06,0.87,1.71,4.76,0.18,943.27,21.37,
6707276,-0.02,-0.07,0.85,1.53,6.16,0.18,943.21,21.37,
6707315,-0.02,-0.06,0.87,1.53,7.39,0.18,943.21,21.37,
6707353,-0.02,-0.06,0.88,1.16,8.36,0.31,943.17,21.36,
6707391,-0.03,-0.06,0.88,1.34,9.28,0.31,943.17,21.37,
6707429,-0.02,-0.06,0.92,0.85,10.07,0.37,943.16,21.37,
6707468,-0.0,-0.05,0.93,0.85,10.62,0.43,943.27,21.36,
6707506,-0.01,-0.05,0.97,0.61,10.25,0.55,943.25,21.36,
6707556,-0.01,-0.05,1.0,0.73,10.19,0.67,943.23,21.36,
6707594,-0.01,-0.04,1.03,0.67,9.77,0.79,943.22,21.36,
6707632,-0.0,-0.04,1.06,0.61,9.22,1.04,943.23,21.37,
6707671,-0.01,-0.04,1.09,0.55,8.54,1.1,943.28,21.37,
6707709,-0.0,-0.04,1.09,0.49,8.79,0.98,943.3,21.37,
6707747,-0.0,-0.04,1.12,0.79,8.36,1.04,943.32,21.37,
6707785,0.0,-0.04,1.11,1.16,8.85,0.92,943.28,21.37,
6707824,0.02,-0.04,1.08,1.22,8.24,1.28,943.28,21.36,
6707862,0.01,-0.04,1.07,1.53,8.24,1.1,943.31,21.38,
6707900,-0.0,-0.05,1.0,1.77,8.42,0.92,943.28,21.37,
6707950,0.03,-0.04,1.0,1.77,7.45,0.98,943.23,21.35,
6707988,0.01,-0.05,0.98,1.71,7.2,0.85,943.27,21.37,
6708027,0.01,-0.05,0.99,1.65,6.29,0.92,943.23,21.37,
6708065,0.01,-0.05,1.01,1.53,6.47,0.85,943.28,21.37,
6708103,0.01,-0.05,0.98,1.34,6.65,0.61,943.27,21.37,
6708141,0.02,-0.04,1.03,1.4,5.49,0.61,943.28,21.37,
6708180,-0.0,-0.05,0.99,1.53,5.37,0.55,943.27,21.36,
6708218,0.0,-0.06,0.95,1.34,5.19,0.43,943.27,21.37,
6708256,0.02,-0.05,0.97,1.65,5.19,0.24,943.32,21.37,
6708295,0.0,-0.05,0.87,1.4,5.31,0.37,943.26,21.37,
6708371,0.01,-0.06,0.86,1.77,4.33,0.0,943.33,21.35,
6708409,-0.0,-0.06,0.86,1.77,3.36,0.06,943.35,21.35,
6708447,0.01,-0.06,0.86,1.59,3.48,0.0,943.33,21.36,
6708537,-0.01,-0.06,0.95,0.85,1.89,-0.24,943.34,21.32,
6708575,-0.0,-0.05,0.98,1.04,0.79,-0.37,943.28,21.33,
6708613,0.0,-0.05,0.95,0.92,1.59,-0.55,943.39,21.35,
6708652,0.0,-0.04,0.94,0.92,0.92,-0.55,943.38,21.35,
6708690,0.0,-0.05,0.9,1.16,1.1,-0.61,943.4,21.36,
6708728,-0.0,-0.05,0.89,0.98,0.67,-0.92,943.3,21.35,
6708766,0.0,-0.05,0.93,1.28,0.49,-0.92,943.37,21.36,
6708816,-0.0,-0.05,0.92,1.04,0.55,-1.1,943.29,21.34,
6708855,-0.0,-0.05,0.95,1.28,0.49,-1.16,943.37,21.36,
6708893,-0.01,-0.06,0.9,1.28,1.28,-1.16,943.33,21.35,
6708931,-0.01,-0.05,0.94,1.4,0.85,-1.4,943.37,21.35,
6708969,-0.01,-0.05,0.92,1.22,1.22,-1.4,943.4,21.36,
6709008,-0.01,-0.05,0.92,1.65,1.1,-1.59,943.36,21.37,
6709046,-0.02,-0.05,0.92,1.65,1.89,-1.53,943.34,21.37,
6709084,-0.02,-0.05,0.92,1.83,2.5,-1.46,943.39,21.36,
6709122,-0.02,-0.05,0.95,1.89,2.38,-1.46,943.34,21.36,
6709172,-0.03,-0.05,0.94,2.01,3.05,-1.4,943.37,21.36,
6709211,-0.02,-0.05,0.98,2.32,3.17,-1.4,943.36,21.36,
6709249,-0.03,-0.05,0.94,2.44,3.48,-1.4,943.35,21.37,
6709287,-0.03,-0.04,0.97,2.69,2.87,-1.28,943.42,21.37,
6709326,-0.03,-0.05,0.96,2.75,3.36,-1.22,943.36,21.36,
6709364,-0.02,-0.05,0.95,2.81,3.23,-1.22,943.38,21.37,
6709402,-0.03,-0.04,0.98,3.11,3.23,-1.16,943.36,21.37,
6709440,-0.03,-0.05,0.93,3.17,3.11,-0.85,943.41,21.37,
6709479,-0.03,-0.04,0.97,3.48,2.5,-0.85,943.43,21.37,
6709517,-0.03,-0.04,0.94,3.23,2.75,-0.85,943.38,21.36,
6709567,-0.04,-0.04,0.95,3.42,1.71,-0.61,943.41,21.35,
6709605,-0.04,-0.05,0.96,3.36,1.53,-0.55,943.4,21.37,
6709644,-0.03,-0.05,0.98,3.42,1.1,-0.43,943.37,21.37,
6709682,-0.03,-0.05,0.98,3.23,1.16,-0.31,943.38,21.37,
6709720,-0.04,-0.04,0.98,3.42,0.85,-0.12,943.37,21.36,
6709758,-0.04,-0.05,0.97,3.42,1.04,-0.18,943.42,21.36,
6709797,-0.03,-0.05,0.96,3.42,0.67,-0.06,943.38,21.38,
6709835,-0.04,-0.05,0.96,3.66,1.04,0.06,943.41,21.38,
6709873,-0.04,-0.05,0.94,3.54,1.04,0.18,943.36,21.38,
6709923,-0.05,-0.05,0.94,3.6,1.16,0.31,943.42,21.36,
6709962,-0.04,-0.05,0.92,3.78,1.22,0.31,943.41,21.37,
6710000,-0.04,-0.05,0.92,3.85,1.46,0.49,943.45,21.37,
6710038,-0.03,-0.05,0.91,3.91,1.53,0.49,943.43,21.37,
6710076,-0.04,-0.05,0.9,3.78,1.46,0.49,943.46,21.37,
6710114,-0.04,-0.05,0.89,3.85,1.59,0.73,943.47,21.37,
6710153,-0.04,-0.05,0.88,3.78,1.46,0.85,943.43,21.37,
6710191,-0.04,-0.05,0.89,3.6,1.34,0.79,943.45,21.38,
6710229,-0.04,-0.06,0.89,3.36,1.34,1.1,943.42,21.38,
6710268,-0.04,-0.05,0.91,3.48,1.16,1.04,943.51,21.38,
6710317,-0.03,-0.06,0.88,3.17,1.28,1.34,943.45,21.37,
6710356,-0.04,-0.05,0.89,3.11,0.98,1.22,943.46,21.37,
6710394,-0.04,-0.05,0.89,3.05,1.34,1.46,943.48,21.37,
6710432,-0.04,-0.05,0.88,2.99,1.22,1.53,943.47,21.38,
6710471,-0.03,-0.05,0.91,3.11,1.1,1.71,943.45,21.37,
6710509,-0.03,-0.05,0.88,2.87,1.28,1.77,943.51,21.39,
6710547,-0.03,-0.05,0.9,3.11,0.67,1.89,943.49,21.37,
6710585,-0.04,-0.05,0.89,3.11,1.1,2.01,943.56,21.39,
6710624,-0.04,-0.05,0.88,2.93,0.92,2.01,943.5,21.37,
6710674,-0.03,-0.05,0.89,2.93,0.85,2.14,943.56,21.37,
6710712,-0.03,-0.05,0.89,2.81,0.43,2.08,943.52,21.38,
6710750,-0.03,-0.05,0.91,2.75,0.55,2.32,943.53,21.37,
6710789,-0.03,-0.05,0.9,2.62,0.31,2.32,943.54,21.37,
6710827,-0.02,-0.05,0.92,2.62,-0.06,2.32,943.61,21.38,
6710865,-0.03,-0.05,0.91,2.32,0.06,2.44,943.62,21.39,
6710903,-0.03,-0.05,0.92,2.2,-0.12,2.44,943.57,21.37,
6710942,-0.03,-0.05,0.93,2.08,-0.37,2.62,943.58,21.38,
6710980,-0.02,-0.05,0.92,2.26,-0.61,2.56,943.59,21.38,
6711018,-0.02,-0.05,0.93,2.14,-0.79,2.62,943.58,21.38,
6711068,-0.03,-0.05,0.93,2.14,-0.85,2.75,943.6,21.37,
6711106,-0.03,-0.05,0.94,1.77,-0.98,2.69,943.69,21.39,
6711145,-0.03,-0.05,0.94,2.08,-0.79,2.69,943.64,21.37,
6711183,-0.03,-0.05,0.93,2.08,-0.92,2.69,943.62,21.38,
6711221,-0.02,-0.05,0.95,1.95,-0.79,2.75,943.69,21.38,
6711259,-0.02,-0.05,0.95,2.01,-0.79,2.62,943.67,21.38,
6711298,-0.02,-0.05,0.95,2.08,-0.92,2.75,943.69,21.38,
6711336,-0.03,-0.05,0.96,1.95,-0.73,2.75,943.74,21.37,
6711374,-0.02,-0.05,0.96,2.01,-0.92,2.81,943.72,21.38,
6711450,-0.02,-0.05,0.97,1.89,-0.79,2.69,943.69,21.34,
6711489,-0.02,-0.05,0.98,1.77,-0.73,2.75,943.67,21.36,
