timestamp,acc_x,acc_y,acc_z,rot_x,rot_y,rot_z,qfe,temp
2432522,-0.05,-0.09,0.95,1.89,5.62,0.0,904.35,34.16
2432560,-0.06,-0.1,0.86,1.77,7.45,-0.06,904.29,34.14
2432598,-0.04,-0.09,0.9,2.32,6.71,0.12,904.34,34.16
2432636,-0.02,-0.11,0.89,1.83,8.48,0.31,904.31,34.14
2432674,-0.04,-0.1,0.89,2.08,6.96,0.43,904.33,34.16
2432712,-0.03,-0.1,0.93,2.01,7.81,0.67,904.24,34.14
2432750,-0.04,-0.1,0.94,1.89,7.75,0.73,904.3,34.15
2432788,-0.05,-0.09,0.96,2.01,6.77,0.85,904.3,34.16
2432838,-0.04,-0.1,0.98,2.08,6.59,0.92,904.32,34.13
2432876,-0.06,-0.09,1.0,2.2,5.74,1.22,904.29,34.15
2432914,-0.04,-0.09,1.02,2.32,6.04,1.34,904.34,34.14
2432952,-0.06,-0.1,1.01,2.44,5.68,1.46,904.27,34.13
2432990,-0.05,-0.1,1.01,2.38,5.74,1.59,904.33,34.14
2433028,-0.04,-0.09,1.03,2.5,5.25,1.59,904.32,34.15
2433066,-0.03,-0.1,1.01,2.14,5.55,1.95,904.26,34.15
2433104,-0.04,-0.11,1.01,2.69,6.53,1.95,904.27,34.14
2433142,-0.04,-0.09,1.01,2.5,6.41,2.01,904.25,34.14
2433219,-0.06,-0.1,1.0,2.44,6.29,2.32,904.27,34.11
2433257,-0.06,-0.1,0.98,2.5,6.35,2.26,904.21,34.11
2433295,-0.02,-0.1,1.01,2.5,6.04,2.32,904.28,34.13
2433384,-0.04,-0.1,0.91,2.56,6.47,2.81,904.26,34.09
2433423,-0.04,-0.1,0.96,2.75,5.49,2.69,904.26,34.11
2433461,-0.05,-0.11,0.92,2.75,6.23,2.81,904.24,34.11
2433499,-0.05,-0.09,0.92,2.75,5.49,2.56,904.22,34.12
2433537,-0.04,-0.09,0.93,2.93,6.16,2.75,904.2,34.12
2433575,-0.02,-0.1,0.91,2.93,5.8,2.75,904.24,34.12
2433613,-0.02,-0.1,0.91,2.93,5.8,2.75,904.19,34.13
2433663,-0.03,-0.1,0.86,2.99,6.9,2.69,904.23,34.11
2433701,-0.02,-0.1,0.88,3.11,6.16,2.75,904.18,34.13
2433739,-0.02,-0.1,0.85,2.93,5.98,2.87,904.2,34.13
2433777,-0.01,-0.09,0.86,3.23,5.55,2.81,904.2,34.12
2433815,-0.01,-0.09,0.86,3.6,5.49,2.93,904.18,34.11
2433853,0.0,-0.1,0.84,3.54,4.21,2.69,904.17,34.13
2433891,0.02,-0.1,0.8,3.54,3.72,2.62,904.15,34.13
2433930,0.0,-0.09,0.83,3.72,2.99,2.62,904.18,34.13
2433968,0.02,-0.1,0.78,3.05,2.56,2.56,904.17,34.14
2434006,-0.01,-0.09,0.81,3.36,0.79,2.26,904.15,34.13
2434056,0.02,-0.11,0.8,2.99,1.16,2.08,904.11,34.11
2434094,0.0,-0.1,0.84,3.42,-0.49,1.71,904.11,34.12
2434132,0.01,-0.1,0.82,2.87,0.24,1.59,904.15,34.14
2434170,-0.0,-0.1,0.84,2.87,-0.43,1.22,904.14,34.14
2434208,-0.0,-0.11,0.86,2.62,0.12,1.22,904.11,34.13
2434246,-0.01,-0.11,0.85,2.38,-1.04,0.79,904.14,34.13
2434284,-0.0,-0.1,0.86,2.44,-0.98,0.61,904.12,34.14
2434322,0.0,-0.11,0.85,2.08,-0.12,0.49,904.14,34.14
2434360,0.0,-0.09,0.93,2.14,-0.24,0.18,904.17,34.14
2434398,-0.01,-0.11,0.95,1.83,0.67,0.12,904.1,34.12
2434448,-0.04,-0.1,0.98,1.95,0.73,0.12,904.11,34.11
2434486,-0.0,-0.1,0.97,1.83,2.14,-0.18,904.08,34.14
2434524,0.0,-0.1,0.99,1.59,1.77,-0.37,904.13,34.13
2434562,-0.03,-0.1,0.95,1.59,2.44,-0.49,904.12,34.12
2434600,-0.01,-0.1,0.95,1.65,2.81,-0.49,904.1,34.13
2434638,0.02,-0.1,0.92,1.65,3.85,-0.67,904.11,34.13
2434676,-0.0,-0.09,0.88,1.95,3.72,-0.79,904.14,34.12
2434714,-0.02,-0.1,0.85,1.83,4.58,-0.92,904.16,34.14
2434752,-0.03,-0.09,0.91,2.08,2.32,-0.98,904.11,34.12
2434802,-0.01,-0.1,0.91,1.53,2.69,-0.79,904.12,34.11
2434840,0.0,-0.1,0.97,1.77,0.92,-1.04,904.12,34.12
2434878,-0.02,-0.1,0.94,1.28,1.95,-1.04,904.08,34.12
2434916,-0.02,-0.1,0.9,1.28,1.53,-1.16,904.13,34.13
2434954,-0.05,-0.09,0.91,1.53,2.01,-1.22,904.16,34.12
2434992,-0.03,-0.11,0.88,1.53,2.99,-1.4,904.19,34.13
2435030,-0.03,-0.09,0.92,1.22,2.81,-1.28,904.14,34.12
2435068,-0.04,-0.1,0.91,1.1,2.75,-1.1,904.18,34.14
2435107,-0.05,-0.1,0.9,0.79,2.75,-1.16,904.11,34.12
2435145,-0.04,-0.1,0.95,1.1,3.17,-1.22,904.11,34.13
2435194,-0.05,-0.1,0.92,0.79,2.75,-1.1,904.13,34.12
2435233,-0.06,-0.1,0.92,1.04,3.05,-0.98,904.19,34.13
2435271,-0.03,-0.09,0.91,0.49,3.3,-0.92,904.18,34.11
2435309,-0.05,-0.09,0.95,0.73,2.81,-0.79,904.15,34.13
2435347,-0.05,-0.1,0.95,0.79,2.32,-0.67,904.14,34.13
2435385,-0.05,-0.09,0.96,0.61,2.75,-0.49,904.18,34.13
2435423,-0.05,-0.1,1.0,1.04,2.69,-0.49,904.15,34.12
2435461,-0.06,-0.09,1.0,0.61,2.69,-0.37,904.18,34.12
2435499,-0.07,-0.09,1.03,0.92,2.5,-0.12,904.16,34.12
2435549,-0.07,-0.09,1.01,1.04,2.81,-0.12,904.16,34.12
2435587,-0.07,-0.09,1.02,1.1,3.17,0.18,904.17,34.14
2435625,-0.08,-0.09,1.05,0.92,3.36,0.43,904.15,34.13
2435663,-0.07,-0.09,1.09,1.28,4.64,0.43,904.13,34.12
2435701,-0.07,-0.09,1.1,1.65,4.94,0.73,904.2,34.13
2435739,-0.07,-0.08,1.14,1.95,4.94,1.04,904.15,34.12
2435778,-0.06,-0.09,1.1,1.95,5.62,1.16,904.16,34.12
2435816,-0.08,-0.08,1.09,2.75,5.19,1.4,904.19,34.13
2435854,-0.04,-0.09,1.08,2.62,5.86,1.65,904.17,34.13
2435892,-0.05,-0.08,1.09,3.23,5.37,1.95,904.2,34.13
2435942,-0.05,-0.09,1.05,3.23,5.8,2.2,904.18,34.13
2435980,-0.05,-0.08,1.06,3.72,5.13,2.38,904.22,34.13
2436018,-0.04,-0.09,1.03,3.78,5.68,2.38,904.18,34.13
2436056,-0.02,-0.08,1.03,3.66,5.55,2.69,904.18,34.14
2436094,-0.04,-0.09,0.98,3.85,6.41,2.62,904.16,34.13
2436132,-0.05,-0.09,0.98,4.03,5.92,2.62,904.18,34.12
2436170,-0.03,-0.09,0.96,3.85,6.04,2.87,904.2,34.14
2436208,-0.04,-0.09,0.93,3.85,6.29,2.93,904.24,34.14
2436246,-0.05,-0.09,0.91,3.91,6.65,2.99,904.22,34.14
2436322,-0.02,-0.09,0.91,3.78,6.16,3.05,904.18,34.1
2436360,-0.04,-0.1,0.87,3.66,6.35,3.11,904.15,34.11
2436398,-0.03,-0.09,0.85,3.72,6.84,2.87,904.2,34.13
2436488,-0.03,-0.1,0.81,3.42,5.43,3.48,904.23,34.09
2436526,-0.02,-0.09,0.8,2.99,4.7,3.42,904.19,34.1
2436564,-0.01,-0.09,0.89,3.11,2.99,3.3,904.16,34.12
2436602,0.0,-0.1,0.86,2.56,2.26,3.05,904.18,34.11
2436640,-0.01,-0.09,0.97,2.38,0.55,2.99,904.21,34.11
2436678,-0.0,-0.1,1.0,2.14,0.12,3.11,904.18,34.12
2436716,-0.01,-0.1,1.02,1.53,-1.22,3.17,904.21,34.12
2436766,-0.03,-0.1,1.01,1.46,-1.89,2.93,904.18,34.09
2436804,-0.0,-0.1,0.95,1.16,-1.89,2.87,904.16,34.11
2436842,-0.02,-0.1,0.95,1.89,-2.81,2.56,904.18,34.11
2436881,-0.01,-0.1,0.87,1.59,-2.01,2.62,904.18,34.1
2436919,-0.02,-0.1,0.88,1.71,-1.83,2.26,904.2,34.12
2436957,-0.02,-0.09,0.89,1.46,-1.1,2.2,904.21,34.11
2436995,-0.03,-0.1,0.9,1.46,-0.79,2.01,904.19,34.11
2437033,-0.03,-0.1,0.89,1.28,-0.31,1.83,904.25,34.1
2437071,-0.03,-0.09,0.89,1.46,-0.37,1.65,904.25,34.11
2437109,-0.02,-0.09,0.89,1.46,0.85,1.65,904.21,34.11
2437159,-0.02,-0.09,0.87,1.59,1.53,1.71,904.19,34.1
2437197,-0.04,-0.09,0.89,2.01,1.53,1.83,904.27,34.11
2437235,-0.04,-0.1,0.93,2.2,1.83,1.77,904.21,34.11
2437273,-0.04,-0.09,0.96,1.89,2.01,1.95,904.22,34.09
2437311,-0.05,-0.08,0.97,2.26,2.32,1.71,904.29,34.11
2437349,-0.04,-0.09,0.96,2.44,2.93,1.77,904.3,34.12
2437388,-0.03,-0.09,0.93,2.14,4.76,1.77,904.29,34.11
2437426,-0.04,-0.08,0.92,2.44,5.19,1.83,904.32,34.12
2437464,-0.06,-0.08,0.9,2.56,5.92,2.08,904.26,34.12
2437514,-0.03,-0.09,0.91,2.5,6.1,2.14,904.25,34.1
2437552,-0.04,-0.09,0.94,2.62,5.55,2.32,904.32,34.11
2437590,-0.05,-0.09,0.93,2.62,4.94,2.5,904.29,34.11
2437628,-0.05,-0.09,0.94,2.81,4.27,2.56,904.29,34.11
2437666,-0.04,-0.09,0.94,2.81,2.99,2.75,904.3,34.12
2437704,-0.04,-0.09,0.95,2.81,2.2,2.93,904.28,34.1
2437742,-0.05,-0.08,0.91,2.44,2.08,2.99,904.24,34.1
2437780,-0.05,-0.08,0.92,2.56,1.95,3.23,904.28,34.11
2437818,-0.04,-0.08,0.92,2.44,1.1,3.17,904.3,34.12
2437857,-0.03,-0.09,0.92,2.26,1.34,3.3,904.26,34.12
2437906,-0.02,-0.12,0.96,2.5,2.26,3.11,904.3,34.11
2437944,-0.03,-0.08,0.95,2.5,2.26,3.48,904.33,34.1
2437983,-0.04,-0.07,0.97,2.93,1.77,3.42,904.32,34.11
2438021,-0.06,-0.09,0.91,2.75,3.05,3.42,904.28,34.09
2438059,-0.02,-0.07,1.06,3.42,0.61,3.36,904.31,34.1
2438097,-0.05,-0.1,1.04,3.6,2.38,3.54,904.36,34.1
2438135,-0.04,-0.08,1.03,3.54,1.95,3.54,904.34,34.1
2438173,-0.0,-0.08,1.11,4.15,2.81,3.54,904.34,34.11
2438211,-0.02,-0.09,1.05,3.42,2.26,3.6,904.35,34.11
2438261,-0.01,-0.08,1.09,2.93,3.48,3.66,904.27,34.11
2438299,-0.02,-0.08,1.07,3.17,3.36,3.66,904.35,34.1
2438337,-0.02,-0.08,1.09,2.93,2.81,3.91,904.34,34.11
2438375,-0.01,-0.09,1.06,2.62,2.56,3.78,904.3,34.11
2438413,-0.02,-0.08,1.07,2.81,2.5,3.48,904.35,34.11
2438451,0.0,-0.09,1.06,2.62,2.69,3.72,904.38,34.11
2438489,0.02,-0.08,1.05,2.69,1.4,3.72,904.3,34.1
2438528,-0.05,-0.08,1.02,2.44,2.26,3.66,904.3,34.11
2438566,-0.03,-0.09,1.0,2.69,2.99,3.36,904.38,34.1
2438604,-0.0,-0.08,1.03,2.56,3.05,3.23,904.37,34.1
2438653,-0.02,-0.08,1.05,2.38,3.91,3.23,904.34,34.09
2438691,-0.0,-0.08,1.04,2.5,4.76,2.93,904.33,34.08
2438730,-0.01,-0.08,1.02,2.69,5.31,3.11,904.36,34.09
2438768,-0.02,-0.1,1.02,2.75,6.47,2.87,904.32,34.1
2438806,-0.02,-0.09,1.04,2.56,6.96,2.81,904.39,34.11
2438844,-0.01,-0.1,1.02,2.5,8.48,2.5,904.27,34.1
2438882,0.0,-0.08,1.03,2.56,7.2,2.69,904.42,34.1
2438920,-0.02,-0.09,1.04,2.5,7.75,2.69,904.33,34.09
2438958,-0.02,-0.09,0.99,2.2,8.24,2.87,904.34,34.09
2438996,-0.02,-0.08,1.02,2.62,7.45,2.69,904.36,34.1
2439046,-0.02,-0.09,0.96,2.26,7.02,2.69,904.38,34.09
2439084,-0.0,-0.09,0.98,2.2,6.53,2.56,904.34,34.09
2439122,-0.0,-0.1,0.95,1.77,6.65,2.56,904.35,34.1
2439160,-0.01,-0.08,0.98,1.59,5.37,2.5,904.36,34.09
2439199,0.01,-0.09,0.96,1.16,5.07,2.44,904.36,34.1
2439237,0.0,-0.1,0.99,0.73,4.03,2.38,904.35,34.1
2439275,-0.02,-0.09,1.0,0.31,4.21,2.14,904.35,34.09
2439313,-0.0,-0.09,1.01,0.31,3.23,2.2,904.34,34.08
2439351,-0.01,-0.09,1.04,0.49,2.93,2.14,904.33,34.09
2439389,-0.02,-0.09,1.01,0.61,2.87,2.08,904.33,34.1
2439465,0.01,-0.09,0.99,1.1,2.69,2.01,904.4,34.07
2439503,0.0,-0.09,1.01,1.28,1.83,1.59,904.4,34.08
2439541,-0.01,-0.09,0.99,1.34,2.14,1.71,904.35,34.07
2439630,-0.01,-0.09,0.96,1.77,3.36,1.28,904.44,34.04
2439668,-0.02,-0.08,1.0,1.95,2.5,1.28,904.37,34.06
2439707,-0.03,-0.1,0.95,1.89,5.0,0.98,904.39,34.07
2439745,-0.01,-0.1,0.93,2.32,5.68,0.73,904.38,34.06
2439783,0.0,-0.09,0.86,1.89,5.13,0.85,904.45,34.07
2439821,-0.01,-0.08,0.89,2.38,3.97,0.79,904.42,34.07
2439871,-0.02,-0.08,0.8,2.69,3.85,0.67,904.46,34.06
2439909,-0.02,-0.1,0.74,2.69,5.25,0.73,904.44,34.07
2439947,0.0,-0.1,0.72,3.66,3.3,0.67,904.39,34.07
2439985,-0.02,-0.09,0.71,3.42,3.6,0.85,904.4,34.08
2440023,-0.02,-0.11,0.6,2.44,4.64,0.98,904.4,34.08
2440061,-0.02,-0.09,0.69,2.81,2.75,0.61,904.36,34.07
2440099,-0.03,-0.11,0.81,1.95,3.54,0.85,904.38,34.09
2440137,-0.0,-0.1,0.87,1.46,2.87,0.67,904.34,34.09
2440175,-0.02,-0.09,0.99,1.46,2.87,0.67,904.36,34.08
2440213,-0.02,-0.09,1.03,1.04,3.48,0.55,904.39,34.07
2440263,-0.01,-0.1,1.09,1.1,4.21,0.61,904.5,34.08
2440301,0.01,-0.09,1.1,1.04,3.23,0.37,904.42,34.07
2440339,-0.02,-0.1,1.04,0.79,3.72,0.31,904.42,34.08
2440377,-0.02,-0.08,1.09,1.28,2.26,0.37,904.45,34.08
2440416,-0.05,-0.11,1.07,1.16,2.69,0.67,904.55,34.1
2440454,-0.03,-0.1,1.07,0.92,2.38,0.49,904.42,34.07
2440492,-0.04,-0.09,1.09,1.4,2.01,0.43,904.49,34.08
2440530,-0.01,-0.09,1.06,0.67,2.44,0.61,904.45,34.08
2440568,-0.02,-0.09,1.16,1.53,2.2,0.67,904.48,34.07
2440606,-0.04,-0.12,1.0,0.43,4.33,0.61,904.47,34.07
2440656,-0.01,-0.08,1.14,1.95,2.81,0.55,904.5,34.09
2440694,-0.03,-0.11,1.06,1.16,3.54,0.49,904.46,34.07
2440732,-0.04,-0.09,1.05,1.46,3.11,0.37,904.51,34.08
2440770,-0.02,-0.11,1.07,1.4,4.52,0.24,904.5,34.07
2440808,0.0,-0.1,1.06,1.16,3.54,0.06,904.52,34.09
2440846,-0.03,-0.1,1.03,1.53,3.17,0.24,904.49,34.09
2440884,-0.01,-0.11,0.96,1.59,3.23,0.18,904.46,34.09
2440922,-0.03,-0.09,1.03,1.65,2.56,0.06,904.49,34.09
2440960,-0.03,-0.11,1.01,1.04,2.99,0.24,904.54,34.1
2441010,-0.02,-0.11,1.0,1.1,4.7,0.12,904.44,34.09
2441048,0.0,-0.11,0.98,0.79,5.0,-0.18,904.5,34.07
2441086,0.01,-0.1,1.0,0.73,4.27,-0.18,904.5,34.09
2441124,-0.03,-0.1,0.93,-0.12,4.46,-0.12,904.52,34.09
2441162,0.01,-0.1,1.02,0.37,3.72,-0.12,904.5,34.11
2441200,-0.03,-0.12,0.98,-0.55,5.68,-0.24,904.5,34.1
2441238,0.01,-0.1,1.06,-0.18,2.81,-0.06,904.53,34.1
2441276,-0.03,-0.11,1.04,-0.73,4.7,-0.06,904.49,34.1
2441315,-0.03,-0.09,1.09,-0.31,2.62,-0.12,904.57,34.11
2441353,-0.02,-0.09,1.17,-0.37,1.89,0.18,904.55,34.1
2441402,-0.03,-0.09,1.11,-0.18,1.22,0.18,904.6,34.09
2441441,-0.02,-0.09,1.17,0.55,2.38,0.18,904.61,34.1
2441479,0.01,-0.11,1.13,0.37,4.15,0.18,904.54,34.1
2441517,-0.04,-0.09,1.1,1.28,4.58,0.12,904.59,34.09
2441555,-0.06,-0.09,1.08,1.16,5.43,0.18,904.6,34.11
2441593,-0.02,-0.1,1.05,0.61,7.02,0.06,904.52,34.09
2441631,-0.03,-0.09,0.98,0.67,7.75,0.12,904.57,34.11
2441669,-0.02,-0.12,0.94,0.92,8.06,0.37,904.51,34.1
2441707,-0.02,-0.1,0.93,-0.24,8.91,0.49,904.53,34.11
2441757,-0.01,-0.1,1.0,-0.37,9.52,0.37,904.55,34.1
2441795,-0.04,-0.1,1.01,-0.79,8.18,0.61,904.51,34.1
2441833,-0.04,-0.09,1.12,-0.55,8.0,0.61,904.53,34.1
2441871,-0.01,-0.1,1.09,-1.4,8.97,0.79,904.57,34.1
2441909,-0.02,-0.07,1.2,-0.98,6.04,0.79,904.57,34.1
2441947,-0.04,-0.09,1.22,-1.1,6.71,1.34,904.54,34.1
2441986,-0.03,-0.09,1.22,-1.28,6.29,1.4,904.59,34.11
2442024,-0.02,-0.07,1.3,-1.1,4.64,1.4,904.58,34.11
2442062,-0.03,-0.09,1.28,-1.1,5.55,1.53,904.54,34.11
2442100,-0.03,-0.08,1.32,-0.61,3.48,1.46,904.54,34.11
2442150,-0.03,-0.08,1.32,-0.24,6.1,1.65,904.6,34.1
2442188,-0.03,-0.08,1.36,0.18,5.0,1.46,904.6,34.1
2442226,-0.03,-0.08,1.43,1.34,5.0,1.65,904.59,34.11
2442264,-0.03,-0.09,1.37,0.98,5.13,1.83,904.6,34.11
2442302,-0.03,-0.07,1.39,2.2,4.27,1.95,904.57,34.11
2442340,-0.01,-0.1,1.31,2.32,5.49,1.89,904.63,34.11
2442378,-0.03,-0.09,1.27,3.11,2.75,2.01,904.62,34.12
2442417,-0.03,-0.11,1.25,3.97,3.72,2.14,904.57,34.11
2442455,-0.02,-0.09,1.2,3.91,3.6,1.95,904.64,34.11
2442493,-0.02,-0.07,1.19,4.88,2.87,2.2,904.53,34.11
2442569,-0.04,-0.09,1.05,5.49,4.03,2.14,904.51,34.08
2442607,-0.0,-0.1,0.98,5.43,4.88,2.08,904.54,34.09
2442645,-0.0,-0.09,1.0,5.43,2.99,2.01,904.55,34.1
2442734,-0.03,-0.09,0.86,4.94,3.91,1.95,904.5,34.05
2442772,-0.0,-0.11,0.83,4.21,5.49,1.83,904.47,34.07
2442811,-0.0,-0.1,0.84,3.91,2.99,1.65,904.42,34.08
2442849,-0.01,-0.09,0.86,3.48,3.72,1.65,904.41,34.09
2442887,0.0,-0.1,0.86,2.75,3.78,1.65,904.49,34.1
2442925,-0.01,-0.09,0.91,2.62,3.36,1.65,904.41,34.1
2442975,-0.01,-0.1,0.9,2.32,3.54,1.65,904.39,34.09
2443013,-0.01,-0.1,0.9,1.95,4.46,1.53,904.39,34.09
2443051,0.01,-0.1,0.91,2.08,4.58,1.46,904.42,34.07
2443089,-0.02,-0.1,0.9,2.01,4.33,1.28,904.43,34.1
2443127,-0.01,-0.1,0.87,1.83,4.58,1.4,904.47,34.1
2443165,-0.01,-0.09,0.91,1.89,4.64,1.16,904.4,34.1
2443203,-0.03,-0.1,0.9,1.83,5.07,1.28,904.46,34.1
2443241,-0.02,-0.09,0.93,2.01,4.33,1.1,904.41,34.11
2443279,-0.02,-0.1,0.93,2.01,5.37,0.92,904.43,34.1
2443317,-0.02,-0.09,0.9,1.83,5.62,0.79,904.42,34.1
2443367,-0.04,-0.1,0.91,1.83,5.49,1.04,904.37,34.09
2443405,-0.02,-0.1,0.91,1.65,6.41,1.04,904.35,34.09
2443443,-0.03,-0.09,0.95,1.83,6.35,1.04,904.39,34.11
2443481,-0.03,-0.1,0.94,1.95,6.9,1.04,904.4,34.1
2443520,-0.03,-0.1,0.94,2.01,7.57,1.04,904.39,34.09
2443558,-0.02,-0.09,0.91,2.01,7.14,0.98,904.41,34.1
2443596,-0.0,-0.09,0.94,2.44,6.71,1.16,904.41,34.1
2443634,-0.02,-0.1,0.9,2.14,5.86,1.1,904.36,34.09
2443672,-0.02,-0.09,0.91,2.08,5.37,1.34,904.37,34.09
2443710,-0.04,-0.09,0.93,1.65,3.85,1.28,904.29,34.09
2443760,-0.06,-0.09,0.96,1.59,3.85,1.34,904.36,34.1
2443798,-0.01,-0.09,0.95,0.85,3.6,1.28,904.39,34.1
2443836,-0.02,-0.09,0.99,1.16,2.08,1.4,904.37,34.1
2443874,-0.05,-0.09,0.94,0.92,2.32,1.59,904.32,34.1
2443912,-0.04,-0.09,0.99,0.98,2.08,1.71,904.36,34.11
2443950,-0.05,-0.09,0.97,1.04,1.95,1.71,904.36,34.1
2443988,-0.04,-0.09,0.98,1.16,1.59,1.65,904.36,34.09
2444027,-0.03,-0.09,0.94,0.85,2.56,1.83,904.3,34.1
2444065,-0.03,-0.09,0.98,1.16,2.32,1.77,904.34,34.11
2444114,-0.04,-0.09,0.98,1.1,2.44,1.83,904.27,34.09
2444153,-0.04,-0.08,1.04,1.4,2.69,1.77,904.31,34.09
2444191,-0.04,-0.09,1.03,1.4,3.85,1.71,904.31,34.1
2444229,-0.06,-0.08,1.09,1.95,3.36,1.65,904.3,34.1
2444267,-0.06,-0.09,1.1,2.08,4.33,1.83,904.35,34.11
2444305,-0.04,-0.09,1.07,1.71,4.39,1.71,904.3,34.11
2444343,-0.06,-0.09,1.05,2.32,5.55,1.89,904.34,34.1
2444381,-0.06,-0.08,0.99,2.2,6.47,1.89,904.34,34.12
2444420,-0.06,-0.07,1.0,2.44,7.02,1.71,904.3,34.11
2444458,-0.03,-0.07,1.01,2.62,7.39,2.08,904.34,34.12
2444508,-0.05,-0.07,0.97,2.56,8.36,2.08,904.32,34.09
2444546,-0.04,-0.08,1.04,3.17,7.39,2.08,904.33,34.1
2444584,-0.05,-0.09,0.99,2.62,7.81,2.2,904.32,34.11
2444622,-0.04,-0.07,1.13,2.81,5.07,2.44,904.33,34.12
2444660,-0.06,-0.09,1.15,2.69,5.62,2.62,904.28,34.1
2444698,-0.07,-0.08,1.13,2.56,4.76,2.44,904.25,34.11
2444736,-0.05,-0.08,1.16,2.93,4.21,2.56,904.27,34.11
2444774,-0.05,-0.08,1.09,2.5,4.09,2.44,904.26,34.1
2444813,-0.05,-0.07,1.12,2.69,3.05,2.93,904.27,34.12
2444851,-0.05,-0.1,1.05,3.05,4.64,3.17,904.25,34.11
2444900,-0.08,-0.08,0.97,3.72,2.93,3.05,904.27,34.1
2444939,-0.09,-0.08,0.94,4.09,1.95,3.6,904.25,34.11
2444977,-0.06,-0.09,0.9,3.36,2.08,3.6,904.24,34.12
2445015,-0.03,-0.09,0.92,3.54,1.65,3.6,904.18,34.09
2445053,-0.04,-0.1,0.93,3.36,1.53,3.85,904.23,34.11
2445091,-0.06,-0.1,0.95,3.23,0.61,4.21,904.2,34.1
2445129,-0.04,-0.09,0.93,2.69,0.79,4.15,904.24,34.12
2445167,-0.05,-0.07,0.98,2.62,0.85,4.09,904.2,34.09
2445205,-0.07,-0.09,0.96,2.14,1.89,4.39,904.2,34.11
2445255,-0.03,-0.09,1.02,2.32,2.87,4.03,904.15,34.1
2445293,-0.02,-0.08,1.02,2.2,4.46,4.15,904.23,34.12
2445331,-0.02,-0.08,1.02,2.56,5.74,4.33,904.18,34.1
2445369,-0.03,-0.09,1.02,2.62,6.16,4.15,904.2,34.11
2445408,-0.04,-0.09,0.98,2.81,7.2,4.15,904.16,34.1
2445446,-0.03,-0.08,0.98,2.99,7.39,4.03,904.17,34.11
2445484,-0.02,-0.08,0.95,2.81,7.39,3.85,904.17,34.11
2445522,-0.04,-0.09,0.93,3.42,6.77,3.91,904.22,34.11
2445560,-0.03,-0.09,0.83,2.99,6.77,3.97,904.22,34.11
2445598,-0.02,-0.08,0.85,3.23,6.53,3.85,904.21,34.11
2445674,-0.03,-0.09,0.78,2.62,5.92,3.78,904.15,34.08
2445712,-0.02,-0.09,0.84,2.99,5.13,3.72,904.11,34.09
2445750,-0.02,-0.11,0.82,2.2,5.92,3.85,904.07,34.09
2445839,-0.0,-0.11,0.91,2.5,6.1,3.72,904.16,34.06
2445878,0.0,-0.1,0.98,2.75,5.49,3.23,904.11,34.09
2445916,0.01,-0.09,0.99,2.62,6.84,3.05,904.15,34.09
2445954,-0.02,-0.09,1.02,2.81,5.43,2.99,904.1,34.1
2445992,-0.0,-0.09,1.06,2.38,5.49,2.99,904.08,34.08
2446030,-0.02,-0.09,1.04,2.14,5.19,2.81,904.1,34.1
2446068,-0.01,-0.09,1.11,2.26,4.09,2.44,904.11,34.09
2446118,-0.01,-0.08,1.08,1.53,4.03,2.26,904.12,34.09
2446156,0.01,-0.08,1.07,1.71,3.48,2.26,904.09,34.1
2446194,0.02,-0.09,1.06,2.08,2.62,1.83,904.07,34.09
2446232,-0.0,-0.09,1.02,2.01,1.89,2.01,904.05,34.11
2446270,0.0,-0.09,1.03,2.14,0.24,1.59,904.06,34.09
2446308,-0.01,-0.1,0.97,1.95,0.61,1.46,904.06,34.1
2446347,0.0,-0.1,0.98,2.44,-1.04,1.34,904.08,34.11
2446385,0.01,-0.1,0.93,2.26,-0.61,1.16,904.08,34.11
2446423,-0.02,-0.09,0.88,2.44,-0.79,0.85,904.06,34.12
2446472,-0.01,-0.1,0.87,2.75,0.12,0.55,904.1,34.1
2446510,0.01,-0.1,0.81,2.56,-0.18,0.24,904.12,34.11
2446549,-0.01,-0.09,0.71,2.14,-0.49,0.12,904.02,34.11
2446587,-0.02,-0.09,0.73,2.87,-1.1,-0.18,904.1,34.1
2446625,0.01,-0.1,0.62,1.83,-0.73,-0.12,903.99,34.11
2446663,0.01,-0.08,0.68,2.26,-2.44,-0.37,904.03,34.1
2446701,-0.03,-0.1,0.58,1.46,-1.16,-0.49,903.99,34.1
2446739,-0.03,-0.09,0.64,1.65,-1.83,-0.37,904.13,34.11
2446777,-0.0,-0.1,0.7,1.46,-0.79,-0.61,904.04,34.11
2446815,-0.0,-0.1,0.71,1.4,-0.79,-0.61,904.08,34.13
2446865,-0.03,-0.08,0.72,1.59,-0.92,-0.67,904.04,34.1
2446903,-0.02,-0.1,0.69,1.22,0.31,-0.67,904.07,34.1
2446941,-0.02,-0.09,0.74,1.28,-0.92,-0.73,904.1,34.11
2446979,-0.04,-0.08,0.79,0.79,-1.04,-0.92,904.15,34.11
2447017,-0.04,-0.09,0.81,0.67,0.06,-0.73,904.07,34.11
2447055,-0.0,-0.09,0.96,1.04,0.31,-0.92,904.11,34.11
2447093,-0.02,-0.09,0.92,0.12,1.22,-0.85,904.11,34.1
2447131,-0.05,-0.08,1.0,1.1,-0.43,-0.79,904.12,34.12
2447169,-0.02,-0.09,0.99,0.79,1.16,-0.92,904.15,34.11
2447219,-0.04,-0.07,1.02,1.53,-1.04,-0.98,904.15,34.11
2447257,-0.03,-0.08,0.99,1.46,0.49,-0.67,904.1,34.11
2447295,-0.03,-0.08,1.0,1.83,0.18,-0.92,904.12,34.11
2447334,-0.03,-0.07,1.06,2.08,0.31,-0.85,904.2,34.11
2447372,-0.04,-0.08,1.03,2.14,1.1,-0.73,904.18,34.12
2447410,-0.05,-0.07,1.1,2.75,0.73,-0.73,904.16,34.12
2447448,-0.04,-0.08,1.02,2.5,2.5,-0.92,904.16,34.12
2447486,-0.05,-0.07,1.05,3.11,1.34,-0.92,904.2,34.12
2447524,-0.04,-0.08,1.0,2.87,3.05,-0.55,904.17,34.13
2447562,-0.05,-0.08,0.98,3.17,2.14,-0.61,904.18,34.12
2447612,-0.06,-0.08,0.97,3.36,2.08,-0.49,904.19,34.1
2447650,-0.04,-0.08,0.98,3.3,1.53,-0.37,904.16,34.11
2447688,-0.04,-0.07,0.97,3.17,1.71,-0.37,904.16,34.11
2447726,-0.05,-0.08,0.99,3.36,2.08,-0.12,904.16,34.12
2447764,-0.05,-0.07,0.98,3.48,2.01,0.06,904.18,34.13
2447802,-0.05,-0.08,1.01,3.54,2.44,0.18,904.17,34.13
2447840,-0.05,-0.08,0.98,3.05,4.09,0.18,904.13,34.12
2447878,-0.04,-0.07,1.01,3.48,4.46,0.31,904.19,34.12
2447917,-0.05,-0.08,0.99,2.99,4.94,0.43,904.17,34.12
2447966,-0.04,-0.08,0.98,3.23,5.68,0.61,904.17,34.11
2448004,-0.04,-0.08,0.93,3.05,7.26,0.79,904.12,34.11
2448042,-0.06,-0.07,0.91,3.36,6.84,1.04,904.18,34.12
2448081,-0.04,-0.08,0.88,2.87,7.81,1.04,904.19,34.12
2448119,-0.04,-0.08,0.89,2.99,7.69,1.04,904.22,34.11
2448157,-0.04,-0.08,0.89,3.05,8.0,1.4,904.2,34.12
2448195,-0.04,-0.08,0.87,2.69,8.0,1.46,904.22,34.13
2448233,-0.06,-0.07,0.91,2.87,7.14,1.65,904.2,34.11
2448271,-0.05,-0.08,0.92,2.26,8.0,1.83,904.21,34.13
2448309,-0.05,-0.08,0.97,2.69,7.75,1.83,904.17,34.12
2448359,-0.04,-0.08,0.89,2.44,8.54,2.08,904.19,34.1
2448397,-0.03,-0.06,0.9,2.56,8.0,2.01,904.17,34.12
2448435,-0.06,-0.08,0.87,2.62,8.06,2.32,904.17,34.11
2448473,-0.03,-0.08,0.85,2.81,8.0,2.44,904.17,34.11
2448511,-0.05,-0.08,0.87,2.99,7.63,2.5,904.2,34.12
2448549,-0.07,-0.07,0.87,2.81,7.45,2.99,904.17,34.12
2448587,-0.05,-0.08,0.9,3.05,7.32,3.05,904.21,34.11
2448626,-0.03,-0.09,0.87,2.81,8.24,3.17,904.19,34.11
2448664,-0.05,-0.08,0.84,2.93,7.75,3.17,904.22,34.1
2448739,-0.06,-0.08,0.78,2.56,8.06,3.54,904.23,34.1
2448777,-0.04,-0.08,0.77,2.5,9.09,3.66,904.22,34.1
2448815,-0.05,-0.09,0.75,2.26,8.48,3.66,904.19,34.1
2448905,-0.03,-0.08,0.77,2.44,8.3,3.97,904.3,34.07
2448943,-0.02,-0.08,0.79,2.32,7.51,4.15,904.29,34.09
2448981,-0.04,-0.09,0.77,2.26,7.39,4.15,904.23,34.09
2449019,-0.03,-0.08,0.78,2.01,6.96,4.33,904.24,34.09
2449057,-0.02,-0.08,0.8,1.53,5.62,4.33,904.26,34.09
2449095,-0.02,-0.09,0.83,1.65,4.7,4.21,904.27,34.09
2449133,-0.03,-0.09,0.84,1.46,4.03,4.46,904.26,34.09
2449183,-0.02,-0.08,0.89,1.89,3.78,4.27,904.31,34.09
2449221,-0.01,-0.08,0.9,1.65,4.46,4.27,904.34,34.09
2449259,-0.01,-0.08,0.94,1.77,3.78,4.46,904.41,34.1
2449297,-0.01,-0.09,0.93,1.65,4.03,4.21,904.39,34.1
2449335,-0.02,-0.09,0.93,1.95,4.33,4.03,904.38,34.1
2449373,-0.02,-0.09,0.93,1.83,4.46,3.91,904.37,34.1
2449411,-0.0,-0.09,0.94,1.83,3.48,3.91,904.36,34.09
2449449,-0.01,-0.08,0.95,1.83,3.78,3.54,904.38,34.09
2449487,-0.02,-0.08,0.97,1.65,3.48,3.54,904.32,34.09
2449525,-0.0,-0.08,1.01,1.65,3.05,3.42,904.39,34.1
2449575,-0.0,-0.08,1.02,1.34,2.69,3.17,904.39,34.09
2449613,-0.02,-0.07,1.05,1.53,2.99,3.05,904.45,34.1
2449651,-0.01,-0.08,1.06,1.1,3.23,3.05,904.4,34.09
2449689,-0.01,-0.09,1.06,1.28,2.14,2.99,904.39,34.09
2449727,-0.01,-0.08,1.05,1.22,1.83,2.87,904.4,34.09
2449766,-0.01,-0.08,1.04,1.22,2.14,2.81,904.47,34.1
2449804,-0.0,-0.07,1.03,1.34,1.77,2.69,904.47,34.09
2449842,-0.02,-0.09,1.02,1.77,2.2,2.5,904.4,34.09
2449880,0.01,-0.09,1.02,1.71,2.2,2.44,904.48,34.09
2449930,0.0,-0.08,1.03,1.71,2.01,2.2,904.52,34.08
2449968,-0.01,-0.09,1.01,1.59,2.38,2.32,904.42,34.08
2450006,-0.01,-0.09,1.01,1.89,2.2,1.95,904.47,34.08
2450044,-0.0,-0.09,1.0,2.01,2.69,1.65,904.46,34.08
2450082,0.01,-0.08,1.01,1.89,2.87,1.59,904.45,34.09
2450120,-0.0,-0.09,1.01,1.89,3.36,1.4,904.47,34.09
2450158,-0.0,-0.09,1.0,1.95,3.48,1.28,904.48,34.09
2450196,-0.0,-0.08,1.02,2.01,3.05,1.16,904.53,34.08
2450234,-0.01,-0.09,0.99,2.01,3.6,1.04,904.49,34.09
2450273,-0.03,-0.08,0.99,2.08,3.05,0.98,904.47,34.08
2450322,-0.01,-0.08,1.0,1.77,2.62,0.85,904.57,34.08
2450360,-0.0,-0.09,1.01,1.89,2.81,0.79,904.55,34.08
2450399,-0.01,-0.08,0.98,1.65,2.62,0.67,904.57,34.09
2450437,-0.02,-0.08,1.0,1.89,3.17,0.61,904.57,34.08
2450475,-0.01,-0.09,0.98,1.83,3.23,0.61,904.57,34.08
2450513,-0.02,-0.08,1.03,1.89,2.5,0.61,904.56,34.09
2450551,-0.01,-0.09,1.03,1.59,3.05,0.31,904.6,34.09
2450589,-0.01,-0.08,1.07,1.53,2.75,0.18,904.57,34.09
2450627,-0.02,-0.08,1.09,1.46,2.93,0.43,904.62,34.1
2450665,-0.01,-0.08,1.08,1.46,3.36,0.37,904.61,34.09
2450715,-0.02,-0.08,1.09,1.77,3.48,0.06,904.55,34.07
2450753,-0.03,-0.09,1.05,1.59,3.72,0.24,904.66,34.09
2450791,-0.02,-0.08,1.08,1.71,3.6,0.06,904.64,34.1
2450829,-0.03,-0.08,1.07,1.65,4.7,0.0,904.67,34.09
2450867,-0.02,-0.08,1.09,2.01,4.21,0.0,904.7,34.08
2450905,-0.02,-0.09,1.08,1.83,4.88,-0.06,904.71,34.09
2450944,-0.03,-0.08,1.07,2.01,5.0,0.0,904.73,34.08
2450982,-0.02,-0.08,1.09,2.26,5.31,-0.06,904.7,34.08
2451020,-0.02,-0.08,1.05,2.56,5.37,-0.12,904.75,34.09
2451070,-0.03,-0.09,1.02,2.75,5.07,-0.18,904.68,34.07
2451108,-0.02,-0.08,1.01,2.81,5.25,-0.24,904.73,34.09
2451146,-0.02,-0.08,1.0,2.56,5.0,-0.12,904.7,34.08
2451184,-0.02,-0.09,0.97,2.75,5.07,-0.31,904.74,34.08
2451222,-0.04,-0.09,0.95,2.87,5.13,-0.24,904.7,34.07
2451260,-0.02,-0.08,0.95,2.5,4.88,-0.18,904.74,34.08
2451298,-0.03,-0.09,0.93,2.44,4.46,-0.24,904.69,34.08
2451336,-0.03,-0.09,0.93,2.38,3.97,-0.12,904.74,34.09
2451374,-0.03,-0.09,0.94,2.32,4.09,-0.24,904.75,34.1
2451412,-0.03,-0.09,0.95,2.2,3.97,-0.24,904.75,34.08
2451462,-0.04,-0.08,0.96,2.14,3.54,-0.12,904.76,34.09
2451500,-0.04,-0.08,0.99,1.65,3.66,-0.18,904.72,34.07
2451538,-0.03,-0.08,1.0,1.59,3.66,-0.24,904.81,34.09
2451576,-0.03,-0.08,1.01,1.77,3.23,-0.24,904.82,34.09
2451614,-0.03,-0.08,1.01,1.59,3.3,-0.18,904.79,34.1
2451652,-0.04,-0.08,1.02,1.59,3.54,-0.24,904.76,34.1
2451690,-0.03,-0.08,1.02,1.65,3.85,-0.24,904.77,34.1
2451729,-0.04,-0.08,1.03,1.83,3.54,-0.12,904.8,34.09
2451767,-0.04,-0.08,1.02,1.89,3.54,-0.18,904.78,34.09
2451844,-0.04,-0.08,1.02,2.26,3.36,-0.06,904.82,34.06
2451882,-0.04,-0.08,1.03,2.32,3.17,-0.12,904.81,34.07
2451920,-0.05,-0.08,1.0,2.38,3.23,-0.18,904.82,34.09
2452009,-0.04,-0.08,1.0,2.5,3.54,-0.06,904.77,34.05
2452048,-0.04,-0.08,0.98,2.69,3.54,0.06,904.82,34.07
2452086,-0.04,-0.07,0.98,2.75,3.6,0.24,904.83,34.07
2452124,-0.05,-0.08,0.96,2.93,3.97,0.31,904.93,34.08
2452162,-0.04,-0.08,0.96,2.93,3.54,0.0,904.85,34.09
2452200,-0.04,-0.08,0.96,2.81,3.48,0.31,904.87,34.08
2452238,-0.06,-0.08,0.94,2.69,3.36,0.37,904.85,34.07
2452288,-0.05,-0.08,0.94,2.81,3.23,0.49,904.93,34.09
2452326,-0.05,-0.08,0.95,2.56,3.05,0.55,904.84,34.08
2452364,-0.04,-0.08,0.95,2.56,3.05,0.61,904.85,34.07
2452402,-0.05,-0.08,0.95,2.5,2.87,0.61,904.86,34.09
2452440,-0.05,-0.08,0.92,2.38,2.99,0.79,904.9,34.09
2452478,-0.04,-0.08,0.93,2.56,2.69,0.92,904.87,34.09
2452516,-0.04,-0.08,0.93,2.5,2.56,0.79,904.95,34.09
2452554,-0.05,-0.09,0.89,2.26,2.62,0.98,904.95,34.09
2452592,-0.05,-0.08,0.94,2.62,1.77,0.92,904.89,34.09
2452630,-0.03,-0.08,0.91,2.44,2.5,1.16,904.96,34.1
2452680,-0.04,-0.09,0.92,2.5,2.08,1.22,904.92,34.08
2452718,-0.04,-0.08,0.91,2.26,2.08,1.28,904.91,34.09
2452756,-0.04,-0.08,0.91,2.01,2.14,1.28,904.94,34.09
2452794,-0.03,-0.08,0.91,1.83,1.95,1.1,904.93,34.09
2452832,-0.05,-0.08,0.93,1.77,1.95,1.28,904.88,34.08
2452870,-0.04,-0.08,0.94,1.59,1.83,1.53,904.97,34.09
2452908,-0.04,-0.08,0.96,1.53,1.65,1.34,905.01,34.09
2452946,-0.04,-0.08,0.96,1.46,2.2,1.4,904.99,34.08
2452985,-0.03,-0.08,0.99,1.53,1.95,1.34,904.99,34.1
2453034,-0.05,-0.08,0.99,1.4,2.38,1.46,905.04,34.09
2453072,-0.04,-0.08,1.0,1.28,2.01,1.53,904.99,34.07
2453110,-0.04,-0.07,1.01,1.1,1.89,1.59,904.98,34.09
2453149,-0.04,-0.08,1.02,1.22,2.38,1.53,905.05,34.09
2453187,-0.04,-0.08,1.01,1.22,2.26,1.59,905.04,34.1
2453225,-0.04,-0.08,1.03,1.22,2.38,1.59,904.99,34.09
2453263,-0.04,-0.08,1.02,1.16,2.5,1.59,905.0,34.09
2453301,-0.04,-0.07,1.05,0.92,2.69,1.71,905.09,34.1
2453339,-0.04,-0.08,1.04,0.98,2.99,1.77,905.11,34.08
2453377,-0.04,-0.07,1.05,1.22,2.69,1.71,905.08,34.08
2453427,-0.04,-0.08,1.04,1.04,3.3,1.83,905.06,34.08
2453465,-0.04,-0.07,1.03,1.22,3.11,1.83,905.09,34.09
2453503,-0.03,-0.08,1.04,1.28,2.93,1.89,905.14,34.07
2453541,-0.04,-0.08,1.05,1.22,2.87,1.95,905.13,34.09
2453579,-0.05,-0.07,1.05,1.16,2.87,1.95,905.1,34.08
2453617,-0.04,-0.08,1.06,1.1,2.69,2.14,905.01,34.07
2453655,-0.03,-0.08,1.07,1.34,2.69,2.2,905.11,34.09
2453693,-0.04,-0.07,1.06,1.34,2.5,2.26,905.09,34.07
2453731,-0.04,-0.07,1.06,1.34,2.62,2.2,905.08,34.07
2453769,-0.04,-0.08,1.08,1.16,2.5,2.38,905.07,34.07
2453819,-0.04,-0.08,1.08,1.34,2.62,2.32,905.13,34.07
2453857,-0.04,-0.08,1.09,1.46,2.44,2.5,905.16,34.08
2453895,-0.03,-0.08,1.11,1.4,2.75,2.62,905.17,34.08
2453933,-0.03,-0.07,1.1,1.34,2.99,2.69,905.22,34.07
2453972,-0.04,-0.07,1.1,1.83,2.87,2.62,905.16,34.07
2454010,-0.03,-0.08,1.08,1.53,3.11,2.69,905.15,34.08
2454048,-0.03,-0.08,1.09,1.77,2.87,2.69,905.15,34.07
2454086,-0.03,-0.07,1.07,1.59,3.48,2.69,905.17,34.07
2454124,-0.03,-0.08,1.06,1.53,3.42,2.87,905.21,34.05
2454174,-0.04,-0.08,1.06,1.71,3.48,2.81,905.23,34.06
2454212,-0.03,-0.08,1.03,1.71,3.6,2.75,905.24,34.05
2454250,-0.03,-0.08,1.02,1.77,3.85,2.75,905.23,34.05
2454288,-0.03,-0.08,1.02,1.83,4.03,2.99,905.24,34.06
2454326,-0.03,-0.08,1.02,1.95,4.09,2.99,905.21,34.06
2454364,-0.03,-0.08,1.02,2.01,4.21,2.93,905.2,34.06
2454402,-0.03,-0.09,1.0,2.14,4.58,2.99,905.25,34.06
2454440,-0.03,-0.08,1.01,1.95,3.97,2.93,905.25,34.06
2454478,-0.02,-0.08,1.0,2.14,4.03,3.05,905.23,34.05
2454516,-0.01,-0.08,0.98,2.08,3.91,2.93,905.24,34.06
2454566,-0.02,-0.08,1.01,2.26,3.78,2.99,905.25,34.05
2454604,-0.03,-0.08,1.0,1.95,3.6,3.11,905.26,34.05
2454642,-0.02,-0.08,1.03,2.14,3.36,3.05,905.28,34.05
2454680,-0.02,-0.08,1.03,2.26,3.85,3.05,905.26,34.06
2454719,-0.02,-0.08,1.03,1.95,3.54,3.05,905.25,34.06
2454757,-0.03,-0.08,1.01,2.08,3.48,2.99,905.25,34.06
2454795,-0.02,-0.08,1.0,2.01,3.23,3.3,905.25,34.05
2454833,-0.03,-0.08,1.0,2.01,3.23,3.11,905.28,34.06
2454871,-0.02,-0.08,1.0,1.83,3.11,3.11,905.28,34.07
2454909,-0.03,-0.08,0.98,2.01,3.36,3.11,905.26,34.05
2454985,-0.03,-0.08,0.97,1.89,4.15,3.05,905.27,34.03
2455023,-0.02,-0.08,0.98,1.89,4.03,3.05,905.29,34.03
2455061,-0.03,-0.08,0.99,1.83,4.7,3.3,905.28,34.05
2455150,-0.03,-0.08,1.01,2.14,5.13,3.17,905.28,34.01
2455188,-0.02,-0.08,0.98,1.89,5.74,3.23,905.31,34.03
2455226,-0.01,-0.08,1.0,2.14,5.13,3.17,905.28,34.03
2455264,-0.02,-0.08,0.98,2.08,5.8,3.3,905.3,34.02
2455302,-0.01,-0.08,0.98,2.2,5.49,3.36,905.28,34.02
2455341,-0.02,-0.08,0.96,1.89,5.49,3.17,905.29,34.04
2455390,-0.02,-0.08,0.96,1.89,4.94,3.11,905.29,34.03
2455428,-0.01,-0.08,0.96,1.89,5.31,3.23,905.3,34.04
2455466,-0.01,-0.08,0.99,1.83,4.94,3.17,905.28,34.04
2455504,-0.02,-0.08,0.98,1.71,4.76,3.48,905.33,34.05
2455542,-0.01,-0.08,0.99,1.83,4.76,3.36,905.38,34.05
2455580,-0.02,-0.08,1.01,1.83,5.0,3.17,905.32,34.06
2455618,-0.02,-0.09,0.99,1.65,5.25,3.3,905.35,34.06
2455656,-0.02,-0.07,1.01,1.95,4.94,3.17,905.32,34.06
2455694,-0.01,-0.08,1.01,1.83,5.49,3.23,905.37,34.07
2455733,-0.01,-0.08,1.02,1.83,5.25,3.11,905.34,34.05
2455782,-0.01,-0.08,1.02,1.89,5.49,3.11,905.28,34.04
2455820,-0.02,-0.08,1.02,1.83,5.49,2.99,905.31,34.05
2455859,-0.0,-0.08,1.01,1.77,5.55,3.11,905.39,34.06
2455897,0.0,-0.08,1.02,1.59,4.82,2.87,905.34,34.05
2455935,-0.01,-0.08,1.01,1.71,5.25,2.87,905.32,34.05
2455973,-0.02,-0.08,1.0,1.46,5.25,2.87,905.31,34.06
2456011,-0.01,-0.08,1.02,1.71,4.94,2.87,905.37,34.06
2456049,0.01,-0.08,1.01,1.71,5.37,2.69,905.35,34.05
2456087,-0.0,-0.08,1.0,1.53,4.88,2.5,905.34,34.07
2456125,0.01,-0.08,1.01,1.83,5.07,2.44,905.35,34.06
2456175,0.0,-0.09,1.02,1.89,4.94,2.5,905.37,34.04
2456213,-0.0,-0.08,1.03,2.01,4.64,2.38,905.33,34.05
2456251,0.01,-0.09,1.0,1.71,5.0,2.26,905.35,34.07
2456289,0.01,-0.08,1.02,1.77,4.58,2.14,905.37,34.07
2456327,0.01,-0.08,1.0,1.65,5.19,2.08,905.36,34.06
2456365,0.0,-0.08,0.99,1.77,4.88,1.89,905.34,34.06
2456404,-0.0,-0.08,0.99,1.65,5.0,1.71,905.3,34.05
2456442,0.0,-0.08,1.0,1.71,4.7,1.65,905.32,34.06
2456480,-0.0,-0.08,1.0,1.59,4.58,1.4,905.36,34.07
2456529,-0.0,-0.08,1.0,1.53,4.58,1.46,905.39,34.05
2456567,-0.0,-0.08,1.01,1.65,4.39,1.22,905.34,34.06
2456606,0.0,-0.08,1.0,1.71,4.39,1.16,905.34,34.06
2456643,0.0,-0.08,1.0,1.59,4.21,1.22,905.33,34.07
2456682,-0.0,-0.08,1.01,1.71,4.39,1.22,905.31,34.07
2456720,-0.01,-0.08,1.0,1.65,4.46,0.85,905.35,34.06
2456758,0.0,-0.07,1.04,1.53,4.27,0.98,905.3,34.07
2456796,0.01,-0.08,1.0,1.46,4.82,0.79,905.38,34.08
2456834,-0.01,-0.08,1.04,1.89,4.52,0.49,905.4,34.07
2456872,-0.01,-0.08,1.03,1.77,5.07,0.73,905.4,34.07
2456921,-0.0,-0.08,1.04,2.08,4.33,0.49,905.4,34.06
2456960,0.01,-0.08,1.0,1.89,4.09,0.18,905.32,34.06
2456998,-0.0,-0.07,1.03,1.89,3.54,0.18,905.44,34.07
2457036,0.0,-0.09,1.01,2.01,3.78,0.06,905.46,34.07
2457074,-0.01,-0.08,1.04,2.08,2.62,0.0,905.45,34.09
2457112,-0.04,-0.08,1.0,2.26,2.93,-0.06,905.36,34.07
2457150,-0.0,-0.08,0.98,1.83,2.56,-0.18,905.43,34.08
2457188,0.0,-0.07,1.04,2.08,1.34,-0.31,905.43,34.07
2457226,-0.0,-0.09,0.98,1.71,2.38,-0.43,905.44,34.07
2457264,-0.02,-0.08,1.01,2.01,1.65,-0.37,905.39,34.07
2457314,-0.02,-0.08,1.04,2.14,1.77,-0.37,905.41,34.05
2457352,-0.01,-0.08,1.05,2.44,0.98,-0.49,905.45,34.07
2457390,-0.02,-0.07,1.11,2.01,0.92,-0.67,905.46,34.07
2457428,-0.01,-0.08,1.17,1.89,1.22,-0.61,905.36,34.07
2457467,-0.01,-0.08,1.15,1.59,0.92,-0.73,905.45,34.08
2457505,-0.01,-0.07,1.2,2.08,1.71,-0.79,905.41,34.07
2457543,-0.01,-0.08,1.14,1.46,2.2,-0.92,905.44,34.07
2457581,-0.03,-0.07,1.19,1.83,1.53,-0.98,905.42,34.07
2457619,-0.02,-0.08,1.15,1.89,2.81,-1.1,905.47,34.06
2457669,-0.03,-0.08,1.12,2.01,2.26,-1.22,905.47,34.06
2457707,-0.03,-0.07,1.11,2.26,1.95,-1.22,905.45,34.05
2457745,-0.02,-0.07,1.08,1.83,1.89,-1.28,905.39,34.06
2457783,-0.03,-0.08,1.06,1.71,2.08,-1.28,905.43,34.06
2457821,-0.04,-0.08,1.07,1.71,2.38,-1.4,905.45,34.07
2457859,-0.03,-0.08,1.1,1.77,1.95,-1.46,905.42,34.07
2457897,-0.02,-0.08,1.1,1.59,2.38,-1.34,905.46,34.06
2457935,-0.04,-0.08,1.08,1.59,2.14,-1.28,905.46,34.07
2457973,-0.04,-0.08,1.07,2.01,2.69,-1.16,905.45,34.07
2458011,-0.03,-0.08,1.04,1.83,2.62,-1.22,905.42,34.07
2458087,-0.04,-0.08,0.99,1.77,2.93,-1.1,905.41,34.03
2458125,-0.04,-0.08,1.0,1.83,2.56,-1.1,905.44,34.04
2458163,-0.06,-0.08,1.0,1.83,2.32,-0.85,905.4,34.05
2458253,-0.04,-0.08,1.0,1.77,3.11,-0.73,905.44,34.02
2458291,-0.05,-0.08,0.97,2.01,3.54,-0.73,905.43,34.03
2458329,-0.05,-0.08,0.95,1.77,4.03,-0.73,905.43,34.05
2458367,-0.06,-0.08,0.95,1.89,4.39,-0.61,905.46,34.05
2458405,-0.05,-0.07,0.95,1.95,4.7,-0.43,905.38,34.04
2458443,-0.06,-0.07,0.94,1.89,5.55,-0.37,905.42,34.04
2458493,-0.05,-0.07,1.01,2.32,5.43,-0.24,905.39,34.03
2458531,-0.05,-0.08,1.0,2.01,6.16,-0.12,905.33,34.06
2458569,-0.06,-0.06,1.04,2.32,5.0,0.12,905.39,34.05
2458607,-0.05,-0.08,1.02,2.08,6.1,0.31,905.42,34.06
2458645,-0.04,-0.07,0.99,2.01,5.43,0.55,905.41,34.04
2458683,-0.04,-0.07,1.02,2.26,5.0,0.67,905.44,34.07
2458721,-0.05,-0.08,0.97,1.89,5.49,0.79,905.39,34.06
2458759,-0.05,-0.07,1.0,2.01,4.82,1.04,905.38,34.06
2458797,-0.05,-0.07,1.01,1.95,4.64,1.22,905.29,34.06
2458835,-0.04,-0.08,1.01,1.89,4.7,1.34,905.39,34.05
2458885,-0.05,-0.07,1.03,1.89,4.33,1.53,905.4,34.05
2458923,-0.04,-0.08,1.04,1.89,4.09,1.89,905.4,34.07
2458961,-0.03,-0.08,1.03,1.65,3.85,2.14,905.41,34.07
2458999,-0.05,-0.07,1.03,1.53,3.42,2.14,905.36,34.06
2459037,-0.04,-0.08,1.04,1.4,3.48,2.26,905.35,34.06
2459075,-0.04,-0.07,1.05,1.46,2.99,2.44,905.41,34.07
2459113,-0.04,-0.07,1.06,1.71,2.87,2.5,905.35,34.06
2459151,-0.03,-0.07,1.04,1.53,3.05,2.69,905.35,34.07
2459189,-0.04,-0.07,1.07,1.65,2.62,2.75,905.42,34.07
2459239,-0.03,-0.08,1.06,1.77,3.85,2.99,905.35,34.06
2459277,-0.04,-0.06,1.11,2.14,3.36,2.75,905.29,34.05
2459315,-0.06,-0.08,1.07,1.65,5.98,2.75,905.41,34.06
2459353,-0.03,-0.07,1.11,2.14,5.0,2.93,905.33,34.07
2459391,-0.05,-0.07,1.13,2.2,6.04,3.11,905.36,34.05
2459429,-0.05,-0.07,1.08,2.32,6.9,3.36,905.37,34.07
2459468,-0.04,-0.06,1.08,2.56,7.02,3.3,905.36,34.06
2459506,-0.03,-0.07,1.07,2.62,6.84,3.6,905.36,34.07
2459544,-0.03,-0.07,1.02,2.62,6.77,3.6,905.36,34.05
2459582,-0.04,-0.07,1.0,2.69,6.9,3.66,905.33,34.06
2459632,-0.02,-0.08,0.99,2.56,6.71,3.85,905.32,34.04
2459670,-0.04,-0.08,0.96,2.81,6.23,3.97,905.29,34.06
2459708,-0.02,-0.08,0.97,2.87,6.16,4.09,905.33,34.06
2459746,-0.0,-0.08,0.94,2.81,6.29,3.97,905.34,34.06
2459784,-0.02,-0.08,0.91,2.69,6.41,4.03,905.36,34.06
2459822,-0.03,-0.08,0.9,2.87,5.74,4.09,905.36,34.06
2459860,-0.03,-0.08,0.85,2.56,6.41,4.09,905.3,34.06
2459898,-0.01,-0.07,0.89,2.38,4.88,4.21,905.28,34.06
2459936,-0.01,-0.08,0.89,1.95,4.94,4.27,905.26,34.06
2459974,-0.02,-0.08,0.91,2.01,4.15,4.33,905.31,34.05
2460024,-0.01,-0.08,0.94,1.77,5.07,4.15,905.24,34.04
2460062,-0.01,-0.08,0.97,1.89,4.39,4.46,905.25,34.07
2460100,-0.0,-0.09,0.94,1.59,5.25,4.39,905.34,34.05
2460138,-0.01,-0.08,0.91,1.77,4.88,4.15,905.25,34.06
2460176,-0.02,-0.07,0.95,2.08,4.64,4.15,905.27,34.06
2460214,0.01,-0.09,0.94,1.77,4.15,4.03,905.29,34.06
2460253,-0.0,-0.07,0.97,1.77,3.66,3.97,905.21,34.06
2460291,-0.0,-0.08,0.99,1.95,3.78,3.97,905.25,34.07
2460329,0.01,-0.08,1.0,1.59,3.97,3.91,905.25,34.07
2460367,-0.01,-0.07,1.04,1.71,3.6,3.78,905.29,34.07
2460417,0.0,-0.07,1.02,1.71,3.72,3.54,905.27,34.04
2460455,-0.01,-0.07,1.03,2.14,3.54,3.42,905.28,34.06
2460493,0.0,-0.08,0.99,2.01,4.7,3.17,905.2,34.05
2460531,0.01,-0.08,0.99,1.89,4.39,3.05,905.28,34.06
2460569,-0.01,-0.08,0.98,2.14,5.0,2.87,905.28,34.06
2460607,0.0,-0.08,0.95,2.14,5.13,2.87,905.15,34.05
2460645,-0.01,-0.08,0.95,2.2,5.37,2.62,905.23,34.05
2460683,0.0,-0.08,0.95,2.14,5.25,2.44,905.19,34.05
2460722,-0.0,-0.08,0.93,2.2,5.49,2.44,905.24,34.06
2460771,0.01,-0.08,0.91,2.08,5.0,2.2,905.2,34.05
2460809,0.0,-0.08,0.9,2.01,4.88,1.95,905.23,34.07
2460848,-0.0,-0.09,0.87,2.08,4.52,1.89,905.18,34.05
2460886,-0.0,-0.08,0.86,2.01,4.33,1.71,905.14,34.05
2460924,-0.01,-0.08,0.89,2.08,3.97,1.59,905.2,34.06
2460962,-0.01,-0.08,0.84,1.65,4.76,1.53,905.21,34.06
2461000,0.01,-0.08,0.85,1.53,4.33,1.16,905.16,34.07
2461038,-0.01,-0.08,0.9,1.53,4.39,1.16,905.24,34.08
2461076,-0.0,-0.08,0.87,1.46,4.33,0.98,905.15,34.07
2461114,-0.01,-0.08,0.92,1.34,4.15,0.79,905.18,34.07
2461190,-0.01,-0.08,0.96,1.28,3.85,0.79,905.16,34.05
2461228,-0.01,-0.08,0.97,1.16,4.09,0.55,905.22,34.07
2461266,-0.01,-0.08,0.97,0.92,5.13,0.49,905.15,34.05
2461355,-0.01,-0.08,0.99,1.16,4.39,0.31,905.19,34.01
2461393,-0.01,-0.07,1.01,1.4,3.66,-0.06,905.23,34.03
2461431,-0.01,-0.07,1.0,1.22,3.85,0.0,905.18,34.04
2461469,-0.01,-0.08,0.97,1.16,3.3,-0.06,905.24,34.05
2461507,-0.0,-0.08,0.99,1.22,3.05,-0.24,905.14,34.03
2461545,-0.01,-0.08,0.96,1.1,3.36,-0.31,905.16,34.06
2461583,-0.01,-0.07,0.98,1.53,3.05,-0.31,905.2,34.05
2461633,-0.01,-0.08,0.95,1.71,2.93,-0.43,905.18,34.03
2461671,-0.02,-0.07,0.93,1.83,3.36,-0.55,905.14,34.05
2461709,-0.0,-0.07,0.98,2.08,1.77,-0.43,905.18,34.06
2461747,-0.01,-0.08,0.96,1.89,1.59,-0.55,905.2,34.06
2461785,-0.02,-0.07,1.01,2.32,0.43,-0.49,905.2,34.06
2461823,-0.01,-0.08,1.02,2.38,1.34,-0.55,905.17,34.05
2461861,-0.01,-0.07,1.03,2.62,-0.06,-0.79,905.2,34.05
2461899,-0.02,-0.07,1.01,2.87,0.24,-0.79,905.17,34.05
2461937,-0.03,-0.07,0.98,3.05,0.18,-0.92,905.2,34.07
2461987,-0.02,-0.08,0.97,3.54,1.16,-1.22,905.13,34.04
2462025,-0.02,-0.07,0.97,3.6,1.28,-1.16,905.21,34.05
2462063,-0.02,-0.06,0.98,3.78,1.89,-1.34,905.16,34.06
2462101,-0.03,-0.08,0.94,3.72,2.69,-1.34,905.17,34.07
2462140,-0.03,-0.07,0.99,3.91,2.08,-1.46,905.18,34.06
2462178,-0.03,-0.08,0.98,3.6,2.38,-1.28,905.18,34.07
2462216,-0.03,-0.07,0.96,3.66,2.14,-1.22,905.18,34.07
2462254,-0.04,-0.06,0.99,3.72,2.32,-1.16,905.18,34.07
2462292,-0.04,-0.07,0.99,3.78,2.62,-1.04,905.17,34.06
2462330,-0.04,-0.08,1.02,3.85,2.75,-1.1,905.12,34.07
2462380,-0.03,-0.07,1.0,3.85,3.36,-0.85,905.24,34.06
2462418,-0.05,-0.07,1.0,3.78,3.42,-0.92,905.18,34.05
2462456,-0.04,-0.07,0.97,3.78,3.6,-0.79,905.22,34.06
2462494,-0.04,-0.07,1.0,4.03,3.66,-0.73,905.16,34.05
2462532,-0.04,-0.08,0.97,3.72,4.46,-0.61,905.12,34.06
2462570,-0.04,-0.07,0.98,3.66,4.03,-0.55,905.15,34.07
2462609,-0.04,-0.07,0.98,3.6,4.52,-0.49,905.16,34.05
2462647,-0.04,-0.07,0.99,3.42,4.39,-0.37,905.13,34.07
2462685,-0.05,-0.07,0.98,3.42,4.39,-0.31,905.19,34.06
2462734,-0.04,-0.07,0.97,3.36,4.58,-0.12,905.17,34.05
2462773,-0.04,-0.07,0.97,3.42,4.7,-0.12,905.12,34.07
2462811,-0.05,-0.08,0.97,3.23,4.88,0.0,905.18,34.06
2462849,-0.05,-0.08,0.98,3.36,4.82,0.24,905.14,34.06
2462887,-0.04,-0.08,0.98,3.11,5.07,0.24,905.15,34.06
2462925,-0.04,-0.07,0.99,2.99,4.7,0.43,905.15,34.07
2462963,-0.05,-0.08,0.98,3.11,4.09,0.67,905.12,34.06
2463001,-0.02,-0.08,1.0,2.81,3.42,0.85,905.15,34.06
2463039,-0.04,-0.08,0.98,2.69,3.36,1.22,905.16,34.08
2463077,-0.05,-0.08,0.94,2.44,3.23,1.22,905.2,34.06
2463127,-0.04,-0.07,0.93,2.44,3.23,1.46,905.18,34.05
2463165,-0.04,-0.08,0.9,2.14,3.48,1.46,905.13,34.05
2463203,-0.03,-0.08,0.91,2.32,2.44,1.53,905.18,34.05
2463241,-0.03,-0.08,0.94,1.71,2.93,1.59,905.15,34.07
2463279,-0.04,-0.08,0.91,1.59,2.93,1.71,905.12,34.07
2463317,-0.04,-0.07,0.99,1.71,2.56,1.89,905.15,34.06
2463355,-0.03,-0.08,0.97,1.34,3.3,1.83,905.18,34.06
2463393,-0.03,-0.07,1.01,1.59,2.5,1.83,905.12,34.06
2463431,-0.04,-0.08,0.98,1.4,3.42,1.89,905.12,34.07
2463481,-0.03,-0.07,1.01,1.89,2.87,1.89,905.17,34.06
2463519,-0.03,-0.08,1.02,1.89,2.69,1.89,905.15,34.06
2463557,-0.03,-0.07,1.01,2.08,2.69,2.14,905.18,34.06
2463595,-0.03,-0.08,1.0,2.08,2.93,2.08,905.16,34.06
2463634,-0.03,-0.08,0.97,2.26,2.69,2.01,905.17,34.08
2463672,-0.03,-0.07,0.97,2.38,2.38,1.95,905.17,34.07
2463710,-0.02,-0.08,0.94,2.14,2.99,1.95,905.17,34.07
2463748,-0.03,-0.07,0.95,2.2,2.62,2.14,905.13,34.08
2463786,-0.03,-0.08,0.93,2.2,2.87,2.01,905.17,34.07
2463824,-0.02,-0.08,0.95,2.01,2.69,2.26,905.16,34.07
2463874,-0.04,-0.08,0.96,1.77,3.17,2.26,905.14,34.06
2463912,-0.02,-0.07,0.96,1.53,2.93,2.2,905.14,34.06
2463950,-0.03,-0.07,0.98,1.59,2.99,2.14,905.15,34.07
2463988,-0.02,-0.08,0.98,1.46,3.72,2.14,905.15,34.06
2464026,-0.02,-0.07,1.02,1.46,4.09,2.2,905.13,34.07
2464064,-0.03,-0.08,1.0,1.04,4.46,2.14,905.19,34.08
2464102,-0.03,-0.08,0.99,1.1,4.46,2.26,905.14,34.07
2464140,-0.04,-0.07,1.02,1.04,4.03,2.2,905.1,34.05
2464178,-0.03,-0.08,1.02,0.73,4.03,2.38,905.16,34.07
2464216,-0.03,-0.07,1.03,0.92,3.48,2.32,905.17,34.08
2464292,-0.03,-0.07,1.05,0.55,3.36,2.69,905.14,34.04
2464330,-0.04,-0.07,1.05,0.55,3.48,2.44,905.12,34.06
2464368,-0.03,-0.07,1.08,0.55,3.42,2.62,905.15,34.05
2464457,-0.02,-0.07,1.09,0.55,3.17,2.81,905.13,34.03
2464495,-0.03,-0.07,1.09,0.73,3.05,2.81,905.18,34.03
2464534,-0.04,-0.07,1.08,0.85,3.05,2.81,905.14,34.04
2464572,-0.03,-0.07,1.08,0.79,3.11,2.81,905.14,34.04
2464610,-0.03,-0.08,1.07,0.92,3.3,2.81,905.12,34.05
2464648,-0.03,-0.08,1.05,0.85,3.85,2.81,905.16,34.04
2464698,-0.02,-0.07,1.05,1.16,3.6,2.87,905.16,34.03
2464736,-0.02,-0.07,1.03,1.28,3.85,2.87,905.08,34.05
2464774,-0.02,-0.07,1.03,1.28,3.6,2.69,905.12,34.05
2464812,-0.03,-0.07,1.04,1.34,3.78,2.87,905.1,34.05
2464850,-0.03,-0.07,1.03,1.28,3.78,2.87,905.13,34.06
2464888,-0.02,-0.07,1.05,1.22,3.36,2.93,905.17,34.05
2464926,-0.02,-0.07,1.04,1.22,3.36,2.99,905.17,34.05
2464964,-0.02,-0.07,1.04,1.28,3.66,2.93,905.1,34.06
2465002,-0.01,-0.07,1.03,1.46,3.3,2.81,905.11,34.07
2465041,-0.02,-0.07,1.03,1.4,2.99,2.81,905.15,34.06
2465090,-0.02,-0.07,1.02,1.65,3.05,2.93,905.09,34.04
2465128,-0.02,-0.07,1.02,1.71,2.75,2.81,905.13,34.05
2465166,-0.02,-0.08,1.02,1.71,2.62,2.99,905.11,34.06
2465205,-0.02,-0.08,1.01,1.95,2.44,2.99,905.05,34.05
2465243,-0.02,-0.07,1.02,2.08,2.81,2.69,905.09,34.06
2465281,-0.01,-0.07,0.99,2.2,3.17,2.81,905.13,34.07
2465319,-0.02,-0.07,0.99,2.44,3.3,2.75,905.05,34.06
2465357,-0.01,-0.07,0.99,2.26,3.3,2.75,905.08,34.06
2465395,-0.02,-0.07,0.99,2.5,3.48,2.38,905.06,34.05
2465433,-0.02,-0.08,0.98,2.5,3.91,2.44,905.07,34.05
2465483,-0.02,-0.07,0.96,2.5,4.33,2.5,905.1,34.04
2465521,-0.03,-0.07,0.96,2.62,3.97,2.5,905.02,34.04
2465559,-0.02,-0.08,0.94,2.56,4.64,2.5,905.06,34.06
2465597,-0.01,-0.08,0.93,2.62,4.27,2.5,905.05,34.06
2465635,-0.02,-0.08,0.94,2.69,4.33,2.5,905.06,34.05
2465673,-0.02,-0.08,0.92,2.62,5.0,2.38,905.1,34.07
2465711,-0.01,-0.07,0.94,2.56,4.82,2.44,905.07,34.06
2465749,-0.01,-0.08,0.92,2.44,4.88,2.38,905.02,34.06
2465787,-0.02,-0.08,0.91,2.62,4.52,2.38,905.05,34.04
2465837,-0.01,-0.08,0.89,2.5,4.7,2.32,905.09,34.06
2465875,0.0,-0.08,0.9,2.32,4.03,2.26,905.0,34.05
2465913,-0.01,-0.08,0.9,2.14,4.09,2.2,905.05,34.05
2465951,-0.01,-0.08,0.89,2.14,3.78,2.32,905.02,34.06
2465989,-0.0,-0.08,0.9,2.26,3.97,2.2,905.0,34.06
2466027,-0.01,-0.08,0.91,2.14,3.66,1.95,905.01,34.05
2466066,-0.01,-0.08,0.9,2.26,3.6,2.14,905.02,34.06
2466104,-0.01,-0.08,0.92,2.14,3.23,1.95,905.05,34.05
2466142,-0.01,-0.08,0.92,2.26,3.17,1.89,905.04,34.04
2466180,-0.01,-0.08,0.92,2.08,2.93,2.01,904.96,34.05
2466229,-0.0,-0.08,0.95,2.08,3.05,1.77,904.99,34.05
2466268,-0.01,-0.08,0.94,2.08,3.11,1.83,905.02,34.04
2466306,-0.01,-0.08,0.95,1.95,2.87,1.71,905.01,34.07
2466344,-0.01,-0.08,0.93,2.08,3.36,1.59,905.03,34.06
2466382,-0.01,-0.07,0.95,2.08,3.78,1.71,904.97,34.05
2466420,-0.0,-0.08,0.96,2.08,4.03,1.4,905.03,34.04
2466458,-0.01,-0.08,0.97,2.14,3.54,1.53,905.01,34.06
2466496,-0.02,-0.07,1.0,2.08,3.72,1.4,905.04,34.06
2466534,-0.01,-0.08,1.02,2.01,4.09,1.28,905.06,34.07
2466572,-0.01,-0.07,1.06,2.26,3.66,1.16,905.07,34.05
2466622,-0.02,-0.08,1.0,1.83,5.19,1.22,905.04,34.05
2466660,-0.01,-0.08,1.01,2.14,5.07,1.28,905.01,34.05
2466698,0.0,-0.08,1.0,2.26,4.82,0.98,905.04,34.06
2466736,-0.02,-0.08,0.96,2.26,4.46,1.16,905.03,34.06
2466774,-0.02,-0.08,0.93,2.32,4.27,1.1,905.04,34.07
2466812,-0.01,-0.08,0.92,2.44,4.33,1.1,905.07,34.07
2466850,-0.01,-0.08,0.95,2.38,3.11,0.98,905.03,34.06
2466888,-0.02,-0.08,0.94,2.2,2.81,1.04,904.99,34.07
2466926,-0.02,-0.08,0.99,2.2,2.81,0.98,905.01,34.07
2466976,-0.01,-0.08,1.0,2.01,2.87,1.1,905.0,34.04
2467014,-0.02,-0.07,1.03,2.2,2.14,0.98,905.03,34.06
2467052,-0.02,-0.08,1.01,1.71,2.56,0.73,905.01,34.07
2467090,-0.01,-0.07,1.04,1.89,2.32,0.73,905.02,34.06
2467128,-0.01,-0.07,1.05,1.83,2.38,0.98,905.04,34.07
2467166,-0.01,-0.08,1.02,1.71,2.75,0.79,905.0,34.07
2467204,-0.01,-0.07,1.06,1.71,2.32,0.61,904.95,34.05
2467242,-0.01,-0.07,1.07,1.89,2.62,0.61,905.01,34.06
2467280,-0.01,-0.08,1.06,1.65,2.75,0.61,905.04,34.07
2467318,-0.02,-0.07,1.07,1.77,3.05,0.61,904.98,34.07
2467394,-0.01,-0.09,1.04,1.65,3.72,0.55,904.95,34.02
2467432,-0.02,-0.08,1.0,1.83,3.6,0.37,904.99,34.04
2467470,-0.02,-0.07,1.01,1.89,4.27,0.49,904.95,34.05
2467560,-0.01,-0.08,0.98,1.77,4.88,0.12,904.99,34.0
2467598,-0.01,-0.08,1.0,1.77,4.82,0.24,904.99,34.02
2467636,-0.01,-0.08,0.99,1.59,5.25,0.12,905.03,34.03
2467674,-0.01,-0.08,0.99,1.28,5.07,0.06,904.98,34.04
2467712,-0.03,-0.07,0.98,1.22,5.07,0.12,904.97,34.03
2467750,-0.02,-0.08,0.96,1.04,5.8,0.0,904.96,34.03
2467788,-0.02,-0.07,0.94,0.67,5.19,-0.12,905.01,34.05
2467838,-0.02,-0.08,0.96,0.18,4.94,0.24,904.95,34.03
2467876,-0.01,-0.08,0.97,-0.12,4.94,-0.12,904.97,34.04
2467914,-0.01,-0.07,1.03,-0.12,4.46,-0.06,904.91,34.02
2467952,-0.01,-0.08,1.02,-0.55,5.37,-0.12,904.99,34.03
2467990,-0.03,-0.07,1.05,-0.43,4.27,0.06,904.97,34.04
2468028,-0.02,-0.08,1.07,-0.31,4.7,-0.12,904.99,34.06
2468066,-0.01,-0.08,1.07,-0.37,4.15,-0.06,904.95,34.05
2468104,-0.03,-0.07,1.08,-0.18,4.09,0.06,904.96,34.05
2468142,-0.03,-0.07,1.09,0.24,3.6,-0.12,904.92,34.05
2468192,-0.03,-0.07,1.11,0.43,3.6,0.0,904.99,34.04
2468230,-0.02,-0.07,1.13,0.85,3.05,0.0,904.95,34.05
2468268,-0.03,-0.07,1.12,0.85,3.36,0.0,904.98,34.06
2468306,-0.03,-0.07,1.1,1.04,3.6,0.0,904.92,34.05
2468344,-0.02,-0.07,1.1,1.34,3.42,-0.06,904.94,34.04
2468382,-0.04,-0.07,1.07,1.46,3.54,0.18,904.97,34.06
2468420,-0.03,-0.07,1.04,1.71,3.6,0.0,904.9,34.05
2468458,-0.03,-0.07,1.01,1.77,3.78,0.0,904.92,34.05
2468496,-0.03,-0.07,1.01,2.08,3.54,0.18,904.91,34.06
2468534,-0.03,-0.08,1.0,1.83,3.48,0.12,904.92,34.04
2468584,-0.03,-0.07,1.01,1.95,3.17,0.0,905.02,34.05
2468622,-0.04,-0.08,0.99,1.71,3.72,0.18,904.91,34.04
2468660,-0.04,-0.07,1.0,2.08,2.99,0.06,904.91,34.05
2468698,-0.05,-0.08,0.95,1.71,4.09,0.18,904.91,34.05
2468736,-0.04,-0.07,0.98,1.95,3.17,0.24,904.91,34.06
2468774,-0.04,-0.07,0.96,1.77,3.72,0.31,904.9,34.06
2468812,-0.04,-0.07,0.94,1.65,3.17,0.49,904.92,34.06
2468850,-0.05,-0.07,0.98,2.01,3.23,0.43,904.9,34.06
2468889,-0.04,-0.08,0.95,1.59,4.27,0.67,904.88,34.07
2468938,-0.04,-0.07,0.99,1.83,3.42,0.73,904.92,34.06
2468976,-0.05,-0.07,0.97,2.08,3.97,0.73,904.87,34.05
2469015,-0.05,-0.07,0.95,2.2,4.15,0.92,904.89,34.06
2469053,-0.04,-0.07,0.96,2.2,3.66,1.04,904.88,34.06
2469091,-0.05,-0.07,0.95,2.26,3.42,1.16,904.91,34.05
2469129,-0.04,-0.07,0.97,2.56,3.3,1.4,904.88,34.07
2469167,-0.04,-0.08,0.95,2.44,3.54,1.4,904.87,34.05
2469205,-0.04,-0.07,0.95,2.44,2.93,1.59,904.9,34.06
2469243,-0.04,-0.07,0.94,2.38,2.75,1.65,904.87,34.06
2469281,-0.04,-0.07,0.93,2.26,2.62,1.83,904.9,34.07
2469331,-0.04,-0.07,0.95,2.26,2.5,1.83,904.87,34.05
2469369,-0.03,-0.07,0.97,2.44,2.14,2.14,904.87,34.05
2469407,-0.03,-0.07,0.98,2.44,2.62,2.14,904.85,34.05
2469445,-0.03,-0.07,0.99,2.56,2.56,2.2,904.81,34.06
2469483,-0.03,-0.08,0.97,2.32,2.99,2.2,904.86,34.06
2469521,-0.04,-0.07,0.96,2.32,3.11,2.2,904.82,34.07
2469559,-0.03,-0.07,0.97,2.26,3.72,2.32,904.87,34.06
2469598,-0.03,-0.07,0.94,2.14,4.15,2.44,904.85,34.06
2469636,-0.04,-0.07,0.95,2.38,3.72,2.5,904.83,34.06
2469674,-0.02,-0.08,0.95,2.2,4.33,2.56,904.83,34.05
2469723,-0.03,-0.07,0.95,2.08,3.78,2.5,904.81,34.04
2469762,-0.03,-0.07,0.94,2.01,3.91,2.5,904.8,34.06
2469800,-0.02,-0.07,0.94,1.77,3.66,2.62,904.82,34.05
2469838,-0.02,-0.07,0.97,2.14,3.05,2.62,904.82,34.04
2469876,-0.04,-0.07,0.96,1.77,3.36,2.56,904.81,34.07
2469914,-0.03,-0.07,0.95,1.65,3.72,2.81,904.77,34.05
2469952,-0.02,-0.07,0.95,1.83,3.48,2.62,904.87,34.07
2469990,-0.02,-0.07,0.96,1.46,3.85,2.81,904.85,34.06
2470028,-0.02,-0.07,0.96,1.34,3.42,2.69,904.85,34.05
2470078,-0.03,-0.07,0.96,1.04,3.72,2.69,904.83,34.06
2470116,-0.02,-0.07,0.96,0.85,3.85,2.75,904.81,34.06
2470154,-0.02,-0.06,0.97,0.73,3.48,2.69,904.77,34.05
2470192,-0.02,-0.07,0.99,0.67,3.23,2.87,904.74,34.05
2470231,-0.02,-0.07,1.0,0.61,3.23,2.87,904.83,34.05
2470269,-0.03,-0.07,1.0,0.37,3.3,2.87,904.8,34.05
2470307,-0.03,-0.06,1.02,0.43,3.17,2.81,904.81,34.06
2470345,-0.03,-0.07,1.02,0.31,3.48,2.81,904.79,34.07
2470383,-0.02,-0.06,1.05,0.31,3.23,2.87,904.72,34.05
2470421,-0.03,-0.06,1.06,0.31,2.87,2.75,904.74,34.06
2470497,-0.02,-0.06,1.1,0.18,2.99,2.81,904.77,34.03
2470535,-0.02,-0.06,1.1,0.49,3.17,2.69,904.79,34.03
2470573,-0.03,-0.06,1.11,0.73,3.6,2.75,904.77,34.03
2470737,-0.03,-0.06,1.05,2.26,5.0,2.69,904.75,33.97
2470775,-0.03,-0.06,1.03,2.5,5.43,2.81,904.75,33.99
2470813,-0.0,-0.06,1.03,2.75,5.0,2.93,904.73,34.0
2470851,-0.03,-0.06,1.01,3.05,4.82,2.69,904.79,34.0
2470889,-0.02,-0.06,1.0,3.05,4.94,2.87,904.76,34.01
2470927,-0.02,-0.07,1.02,3.6,4.64,2.81,904.75,34.02
2470965,-0.02,-0.06,1.0,3.72,4.27,2.62,904.75,34.02
2471015,-0.01,-0.06,0.99,4.09,4.09,2.69,904.74,34.01
2471053,-0.02,-0.06,0.97,4.15,4.21,2.75,904.74,34.01
2471091,-0.02,-0.06,0.95,4.58,3.91,2.75,904.74,34.01
2471129,-0.03,-0.07,0.94,4.82,4.15,2.75,904.79,34.03
2471167,-0.01,-0.07,0.91,5.0,3.85,2.81,904.67,34.02
2471205,-0.01,-0.06,0.92,5.13,3.97,2.62,904.74,34.02
2471243,-0.02,-0.07,0.88,5.19,4.46,2.62,904.73,34.04
2471281,-0.01,-0.07,0.87,5.25,3.97,2.56,904.73,34.03
2471319,-0.01,-0.07,0.88,5.31,4.21,2.62,904.73,34.04
2471369,-0.01,-0.07,0.85,5.13,3.97,2.5,904.72,34.02
2471407,-0.02,-0.07,0.84,5.13,4.21,2.5,904.72,34.04
2471445,-0.01,-0.07,0.82,4.82,3.97,2.38,904.67,34.04
2471483,-0.01,-0.07,0.82,4.58,4.09,2.44,904.68,34.03
2471521,-0.01,-0.08,0.81,4.21,4.03,2.44,904.69,34.05
2471559,-0.02,-0.07,0.81,3.97,4.21,2.44,904.74,34.03
2471597,-0.02,-0.08,0.82,3.54,4.64,2.44,904.61,34.04
2471635,-0.02,-0.08,0.82,3.23,4.88,2.26,904.68,34.05
2471673,-0.01,-0.07,0.83,3.23,4.82,2.14,904.66,34.04
2471711,-0.01,-0.07,0.82,3.17,5.13,2.08,904.72,34.05
2471761,-0.01,-0.07,0.84,2.93,5.0,2.08,904.71,34.04
2471799,-0.01,-0.07,0.85,2.56,5.07,2.08,904.6,34.03
2471837,-0.02,-0.07,0.86,2.75,5.07,2.08,904.7,34.04
2471875,-0.01,-0.07,0.87,2.56,5.13,1.95,904.7,34.04
2471913,-0.01,-0.07,0.88,2.56,5.37,1.95,904.66,34.05
2471951,-0.01,-0.07,0.89,2.56,4.94,1.95,904.62,34.03
2471989,-0.02,-0.07,0.89,2.38,5.62,1.95,904.67,34.05
2472027,-0.01,-0.07,0.89,2.26,5.19,1.89,904.66,34.04
2472065,-0.02,-0.07,0.92,1.95,5.07,1.83,904.69,34.05
2472104,-0.01,-0.07,0.91,1.89,5.37,1.95,904.7,34.05
2472153,-0.01,-0.07,0.91,1.71,5.07,1.83,904.68,34.03
2472191,-0.01,-0.07,0.92,1.65,4.94,1.59,904.71,34.05
2472229,-0.01,-0.06,0.92,1.59,5.0,1.89,904.64,34.05
2472268,-0.01,-0.06,0.93,1.59,4.88,1.77,904.63,34.04
2472306,-0.01,-0.06,0.95,1.59,4.03,1.65,904.69,34.05
2472344,-0.0,-0.07,0.97,1.59,4.15,1.53,904.74,34.06
2472382,-0.01,-0.07,0.98,1.28,3.66,1.53,904.65,34.04
2472420,-0.01,-0.06,1.01,1.53,3.48,1.4,904.68,34.05
2472458,-0.0,-0.06,1.0,1.46,3.11,1.22,904.67,34.05
2472508,-0.02,-0.06,1.01,1.77,2.56,1.4,904.67,34.02
2472546,-0.01,-0.06,1.0,1.71,2.5,1.1,904.69,34.03
2472584,-0.02,-0.06,1.01,1.95,2.01,1.1,904.67,34.04
2472622,-0.0,-0.07,0.99,2.01,2.38,1.04,904.73,34.04
2472660,-0.01,-0.06,1.0,2.08,1.83,0.79,904.7,34.04
2472698,-0.02,-0.07,1.01,2.14,2.2,0.85,904.7,34.04
2472736,-0.02,-0.06,1.0,2.26,2.56,0.85,904.69,34.04
2472774,-0.02,-0.06,1.01,2.26,2.62,0.85,904.73,34.03
2472812,-0.01,-0.06,0.99,2.08,2.62,0.67,904.66,34.05
2472850,-0.01,-0.06,1.01,2.32,2.08,0.61,904.7,34.04
2472900,-0.02,-0.07,1.0,2.08,2.56,0.55,904.73,34.04
2472938,-0.01,-0.06,1.02,2.44,2.01,0.43,904.75,34.03
2472976,-0.02,-0.06,1.01,2.08,2.14,0.43,904.68,34.04
2473014,-0.02,-0.06,1.0,2.26,1.83,0.37,904.68,34.05
2473052,-0.01,-0.06,1.02,2.26,1.77,0.12,904.72,34.04
2473090,-0.02,-0.06,1.01,2.08,1.59,0.31,904.71,34.05
2473128,-0.01,-0.06,1.02,2.08,1.04,0.06,904.74,34.06
2473166,-0.02,-0.07,1.01,2.08,1.71,0.0,904.7,34.05
2473204,-0.02,-0.06,1.0,2.2,1.34,0.18,904.68,34.04
2473242,-0.02,-0.06,1.0,2.26,1.46,0.12,904.7,34.05
2473292,-0.02,-0.06,0.99,2.14,1.53,0.06,904.69,34.04
2473330,-0.03,-0.06,1.0,2.08,1.77,0.06,904.71,34.03
2473368,-0.02,-0.06,1.0,2.08,2.26,0.12,904.68,34.03
2473406,-0.01,-0.06,1.01,2.32,2.5,0.06,904.73,34.04
2473444,-0.03,-0.07,0.98,2.14,3.36,-0.06,904.71,34.05
2473482,-0.03,-0.06,1.0,2.14,3.54,0.12,904.69,34.04
2473520,-0.03,-0.06,0.98,2.2,4.27,-0.06,904.74,34.05
2473558,-0.01,-0.06,0.96,2.14,4.58,0.0,904.74,34.04
2473596,-0.03,-0.06,0.94,2.32,5.13,0.06,904.73,34.05
2473672,-0.02,-0.06,0.92,2.5,5.8,0.0,904.73,34.03
2473710,-0.02,-0.07,0.91,2.26,6.1,-0.06,904.72,34.02
2473748,-0.03,-0.07,0.9,2.32,6.53,-0.06,904.74,34.03
2473837,-0.03,-0.06,0.93,2.32,7.14,0.06,904.72,34.0
2473875,-0.02,-0.07,0.92,2.14,7.08,0.12,904.74,34.02
2473913,-0.03,-0.06,0.95,2.14,6.04,0.12,904.72,34.01
2473951,-0.03,-0.06,0.93,2.08,6.59,0.37,904.74,34.03
2473989,-0.02,-0.06,0.92,2.01,6.1,0.49,904.71,34.01
2474027,-0.02,-0.06,0.94,2.26,5.8,0.43,904.71,34.01
2474065,-0.04,-0.07,0.9,1.95,5.8,0.61,904.75,34.03
2474115,-0.03,-0.06,0.94,2.2,5.19,0.79,904.73,34.02
2474153,-0.02,-0.06,0.95,1.95,5.49,0.79,904.77,34.03
2474191,-0.02,-0.06,0.94,1.89,5.43,0.92,904.76,34.03
2474229,-0.04,-0.06,0.93,1.95,5.25,0.92,904.73,34.02
2474268,-0.04,-0.06,0.94,1.83,5.37,1.1,904.75,34.04
2474306,-0.02,-0.06,0.95,1.77,5.37,1.04,904.69,34.03
2474344,-0.03,-0.06,0.95,1.65,5.25,1.22,904.71,34.03
2474382,-0.03,-0.06,0.96,1.83,5.25,1.1,904.69,34.04
2474420,-0.03,-0.06,0.95,1.4,5.68,1.1,904.83,34.03
2474470,-0.04,-0.06,0.97,1.71,5.68,1.34,904.72,34.02
2474508,-0.03,-0.06,0.97,1.53,5.74,1.46,904.73,34.03
2474546,-0.03,-0.06,1.0,1.65,5.37,1.53,904.71,34.03
2474584,-0.03,-0.06,0.99,1.65,5.43,1.59,904.82,34.05
2474622,-0.03,-0.06,1.02,1.77,5.13,1.59,904.79,34.03
2474660,-0.03,-0.06,1.01,1.65,5.68,1.71,904.78,34.03
2474698,-0.03,-0.06,1.0,1.83,5.31,1.65,904.78,34.05
2474736,-0.03,-0.06,1.0,1.83,5.43,1.77,904.72,34.03
2474774,-0.03,-0.06,0.98,1.77,5.55,1.83,904.75,34.03
2474812,-0.03,-0.06,0.99,1.83,5.0,1.77,904.8,34.03
2474862,-0.03,-0.06,0.99,1.77,4.76,1.71,904.78,34.03
2474900,-0.03,-0.06,1.0,2.01,4.21,1.89,904.77,34.03
2474938,-0.03,-0.06,0.99,1.95,4.03,1.77,904.77,34.04
2474976,-0.03,-0.06,0.99,2.2,3.85,2.2,904.79,34.03
2475014,-0.03,-0.06,1.0,2.2,3.54,1.89,904.77,34.04
2475053,-0.03,-0.06,1.02,2.26,3.17,1.89,904.75,34.05
2475091,-0.02,-0.06,1.03,2.26,2.81,1.89,904.79,34.04
2475129,-0.03,-0.06,1.06,2.5,2.75,1.83,904.78,34.05
2475167,-0.02,-0.05,1.08,2.26,2.69,1.83,904.76,34.05
2475205,-0.03,-0.05,1.11,2.5,2.69,1.95,904.79,34.05
2475255,-0.03,-0.06,1.08,2.32,2.56,1.89,904.81,34.02
2475293,-0.03,-0.05,1.12,2.5,2.08,1.77,904.8,34.03
2475331,-0.02,-0.05,1.12,2.44,2.14,1.89,904.73,34.03
2475369,-0.02,-0.03,1.22,2.62,-0.18,2.01,904.74,34.04
2475407,-0.03,-0.05,1.16,2.08,1.22,2.2,904.81,34.05
2475445,-0.05,-0.04,1.21,2.56,0.0,2.08,904.81,34.03
2475483,-0.02,-0.05,1.25,2.62,1.83,1.95,904.77,34.04
2475521,-0.01,-0.06,1.15,2.44,1.65,1.89,904.78,34.04
2475559,-0.03,-0.04,1.16,3.17,1.46,1.77,904.8,34.03
2475609,-0.03,-0.06,1.07,2.93,3.05,1.83,904.82,34.05
2475647,-0.02,-0.05,1.07,3.17,2.44,1.77,904.78,34.03
2475685,-0.03,-0.06,1.07,3.48,2.81,1.65,904.8,34.04
2475723,-0.04,-0.07,1.01,3.05,3.3,1.83,904.78,34.04
2475761,-0.01,-0.06,1.06,2.99,3.05,1.46,904.83,34.05
2475799,-0.02,-0.07,1.02,2.62,3.54,1.77,904.82,34.04
2475837,-0.04,-0.07,1.0,2.5,2.87,1.65,904.83,34.04
2475875,-0.02,-0.07,0.98,2.38,3.17,1.77,904.75,34.04
2475913,-0.04,-0.07,0.94,2.14,3.3,1.53,904.8,34.03
2475951,-0.04,-0.06,0.92,2.14,2.56,1.71,904.82,34.05
2476001,-0.03,-0.07,0.9,1.89,2.44,1.83,904.82,34.05
2476039,-0.01,-0.07,0.92,1.95,2.62,1.71,904.83,34.03
2476077,-0.03,-0.07,0.9,1.46,2.93,1.77,904.77,34.04
2476115,-0.04,-0.07,0.93,1.59,3.23,1.77,904.79,34.04
2476153,-0.02,-0.08,0.92,1.4,3.72,1.71,904.81,34.04
2476191,-0.03,-0.06,0.94,1.4,3.42,1.53,904.82,34.05
2476229,-0.02,-0.07,0.93,1.04,4.58,1.71,904.77,34.06
2476267,-0.02,-0.06,0.96,0.85,4.27,1.71,904.81,34.05
2476305,-0.03,-0.07,0.98,0.67,5.25,1.65,904.8,34.05
2476343,-0.03,-0.06,0.99,0.55,5.62,1.53,904.77,34.04
2476393,-0.03,-0.06,1.06,0.31,6.1,1.59,904.82,34.04
2476431,-0.03,-0.07,1.05,-0.06,6.23,1.65,904.82,34.05
2476469,-0.03,-0.05,1.08,0.24,5.55,1.46,904.8,34.04
2476507,-0.02,-0.06,1.08,0.0,5.8,1.89,904.77,34.03
2476545,-0.01,-0.07,1.05,0.12,5.86,1.65,904.77,34.03
2476583,-0.02,-0.06,1.05,0.49,5.19,1.59,904.78,34.04
2476621,-0.02,-0.06,1.07,0.67,5.43,1.71,904.76,34.04
2476659,-0.02,-0.06,1.06,0.67,5.0,1.59,904.79,34.05
2476697,-0.03,-0.06,1.1,0.67,4.7,1.46,904.75,34.04
2476773,-0.01,-0.06,1.13,0.55,4.7,1.34,904.78,34.02
2476811,-0.04,-0.06,1.12,1.1,5.37,1.71,904.75,34.02
2476849,-0.02,-0.07,1.08,0.67,6.1,1.53,904.82,34.04
2476938,-0.03,-0.07,1.02,1.4,5.37,1.4,904.78,34.0
2476976,-0.02,-0.07,1.01,1.53,5.31,1.4,904.75,34.01
2477014,-0.01,-0.07,1.03,1.71,4.76,1.16,904.74,34.01
2477052,-0.02,-0.07,1.01,1.46,4.52,1.22,904.76,34.03
2477091,-0.03,-0.06,1.06,1.4,3.6,1.4,904.73,34.02
2477129,-0.03,-0.06,1.07,1.4,3.85,1.4,904.73,34.03
2477167,-0.02,-0.07,1.07,1.4,3.78,1.28,904.74,34.01
2477216,-0.03,-0.05,1.07,1.53,2.93,1.16,904.79,34.03
2477254,-0.03,-0.06,1.04,1.4,3.6,1.22,904.73,34.03
2477293,-0.02,-0.06,1.06,1.71,3.42,1.22,904.77,34.03
2477331,-0.03,-0.06,1.06,1.77,2.81,1.34,904.76,34.03
2477369,-0.03,-0.07,1.05,1.59,3.05,1.46,904.75,34.03
2477407,-0.03,-0.06,1.04,1.71,3.36,1.22,904.72,34.03
2477445,-0.03,-0.06,1.02,1.95,3.72,1.28,904.74,34.03
2477483,-0.02,-0.07,1.0,2.2,3.54,1.34,904.74,34.03
2477521,-0.04,-0.07,0.98,2.26,3.48,1.22,904.78,34.03
2477559,-0.03,-0.06,0.96,2.2,3.42,1.22,904.7,34.03
2477609,-0.01,-0.06,0.92,2.14,3.05,1.22,904.76,34.03
2477647,-0.03,-0.07,0.92,2.14,2.99,1.22,904.79,34.03
2477685,-0.03,-0.07,0.9,1.77,2.93,1.16,904.79,34.05
2477723,-0.03,-0.07,0.92,1.95,2.01,1.4,904.73,34.04
2477761,-0.03,-0.07,0.88,1.83,2.32,1.4,904.71,34.05
2477799,-0.02,-0.06,0.89,1.65,1.77,1.4,904.76,34.02
2477837,-0.03,-0.07,0.9,1.89,2.01,1.34,904.7,34.03
2477875,-0.03,-0.07,0.88,1.71,1.89,1.53,904.72,34.04
2477913,-0.03,-0.06,0.91,1.65,1.46,1.34,904.66,34.03
2477963,-0.04,-0.07,0.92,1.53,1.95,1.4,904.73,34.03
2478001,-0.03,-0.06,0.93,1.4,1.95,1.46,904.66,34.02
2478039,-0.03,-0.06,0.96,1.71,2.2,1.46,904.73,34.03
2478077,-0.03,-0.06,0.93,1.4,2.87,1.34,904.75,34.03
2478115,-0.03,-0.06,0.95,1.83,2.44,1.53,904.73,34.04
2478153,-0.02,-0.06,0.97,1.89,2.62,1.53,904.69,34.03
2478191,-0.02,-0.06,0.98,2.01,2.99,1.65,904.69,34.04
2478229,-0.04,-0.06,0.98,2.2,2.99,1.59,904.7,34.02
2478267,-0.03,-0.06,1.0,2.26,3.3,1.65,904.72,34.03
2478305,-0.02,-0.06,1.0,2.38,3.6,1.59,904.67,34.04
2478355,-0.03,-0.05,1.02,2.44,3.48,1.83,904.65,34.03
2478393,-0.03,-0.06,1.02,2.38,3.78,1.89,904.67,34.03
2478431,-0.03,-0.06,1.02,2.44,4.15,1.83,904.68,34.03
2478469,-0.03,-0.05,1.03,2.26,4.15,1.77,904.68,34.03
2478507,-0.02,-0.06,1.06,2.44,4.21,1.83,904.71,34.05
2478545,-0.02,-0.06,1.06,2.26,5.49,1.46,904.69,34.03
2478583,-0.04,-0.05,1.1,2.56,5.19,1.71,904.7,34.03
2478621,-0.03,-0.05,1.1,2.56,6.04,1.65,904.67,34.03
2478659,-0.02,-0.05,1.05,2.26,6.29,1.77,904.64,34.04
2478697,-0.03,-0.04,1.07,2.56,5.92,1.53,904.66,34.02
2478747,-0.03,-0.07,0.98,2.5,6.96,1.71,904.69,34.03
2478785,-0.02,-0.06,0.98,2.69,5.49,1.71,904.66,34.02
2478823,-0.01,-0.07,0.95,2.56,5.49,1.95,904.68,34.04
2478861,-0.0,-0.06,0.94,2.32,3.36,2.2,904.64,34.02
2478899,-0.03,-0.05,0.97,2.2,2.75,2.01,904.67,34.04
2478937,-0.03,-0.05,1.06,2.26,1.4,2.01,904.56,34.03
2478975,-0.01,-0.06,1.13,1.53,1.46,2.44,904.64,34.03
2479013,-0.03,-0.05,1.25,1.77,1.22,2.2,904.63,34.04
2479051,-0.02,-0.03,1.33,1.89,0.55,2.44,904.63,34.04
2479101,-0.01,-0.03,1.31,1.65,2.75,2.44,904.59,34.02
2479139,-0.02,-0.03,1.36,2.32,2.5,2.32,904.65,34.03
2479177,-0.04,-0.05,1.26,2.2,3.78,2.32,904.58,34.02
2479215,-0.04,-0.04,1.27,3.11,2.75,2.14,904.55,34.03
2479253,0.0,-0.05,1.24,3.11,4.39,2.2,904.65,34.03
2479291,0.01,-0.03,1.21,2.87,2.56,2.2,904.59,34.03
2479330,-0.02,-0.05,1.21,3.36,1.95,2.5,904.65,34.04
2479368,-0.01,-0.07,1.12,3.48,1.71,2.44,904.59,34.03
2479406,-0.03,-0.06,1.17,3.66,0.12,2.44,904.55,34.03
2479444,-0.03,-0.08,1.02,2.87,0.85,2.38,904.58,34.04
2479493,-0.02,-0.05,0.98,3.11,0.49,2.26,904.59,34.02
2479531,-0.01,-0.06,0.96,3.42,1.22,2.44,904.57,34.03
2479569,-0.02,-0.08,0.88,2.93,1.53,2.32,904.54,34.03
2479608,-0.03,-0.07,0.87,2.87,1.71,2.2,904.53,34.03
2479646,-0.02,-0.07,0.87,2.99,2.75,1.83,904.56,34.03
2479684,-0.02,-0.07,0.86,2.38,3.72,2.01,904.55,34.04
2479722,-0.02,-0.08,0.88,2.01,3.23,2.01,904.58,34.04
2479760,-0.03,-0.08,0.87,1.77,4.33,1.89,904.48,34.03
2479798,-0.01,-0.06,0.91,1.53,4.94,1.89,904.47,34.03
2479836,-0.01,-0.07,0.92,1.4,5.98,1.95,904.56,34.03
2479911,-0.02,-0.08,0.96,1.16,5.49,1.89,904.47,34.0
2479950,-0.02,-0.07,0.92,1.28,6.35,1.77,904.5,34.02
2479988,-0.01,-0.06,0.96,1.59,4.58,2.01,904.43,34.01
2480077,-0.01,-0.06,0.93,1.59,4.09,1.77,904.44,33.97
2480115,-0.02,-0.08,0.94,1.28,5.68,2.01,904.45,33.99
2480153,-0.03,-0.08,0.87,1.28,3.85,2.08,904.51,34.01
2480191,-0.02,-0.06,0.95,1.34,3.3,2.14,904.49,34.0
2480229,-0.01,-0.07,0.91,0.92,4.27,2.08,904.45,34.01
2480267,-0.02,-0.07,0.97,1.53,3.3,2.01,904.44,34.01
2480317,-0.02,-0.07,0.96,1.1,3.72,2.44,904.46,34.01
2480355,-0.04,-0.06,1.02,1.71,3.3,2.38,904.38,34.0
2480393,-0.03,-0.07,0.99,1.04,4.03,2.44,904.44,34.01
2480431,-0.01,-0.06,1.05,1.22,2.75,2.38,904.42,34.0
2480469,-0.03,-0.07,1.03,1.16,4.33,2.44,904.38,34.0
2480507,-0.03,-0.07,1.03,1.46,4.03,2.38,904.36,34.01
2480545,-0.02,-0.06,1.04,1.16,5.13,2.5,904.4,34.02
2480583,-0.03,-0.07,1.04,1.28,4.82,2.56,904.37,34.01
2480622,-0.04,-0.07,1.0,0.98,6.29,2.44,904.36,34.03
2480660,-0.03,-0.07,0.99,0.98,6.84,2.44,904.38,34.03
2480709,-0.02,-0.06,1.04,1.59,7.02,2.44,904.38,34.02
2480747,-0.03,-0.07,1.03,0.85,8.3,2.62,904.36,34.0
2480785,-0.0,-0.08,1.09,1.16,7.75,2.32,904.29,34.02
2480824,-0.02,-0.07,1.14,1.1,7.45,2.44,904.27,34.01
2480862,-0.06,-0.06,1.1,0.79,8.48,2.32,904.28,34.02
2480900,-0.03,-0.06,1.13,0.73,9.77,2.26,904.32,34.02
2480938,-0.02,-0.06,1.16,0.61,9.95,2.26,904.32,34.02
2480976,-0.04,-0.06,1.16,0.79,9.34,2.62,904.37,34.01
2481014,-0.05,-0.06,1.17,0.85,10.56,2.56,904.32,34.02
2481052,-0.01,-0.04,1.18,1.1,11.35,2.26,904.25,34.01
2481102,-0.01,-0.06,1.2,1.71,10.86,2.62,904.26,34.0
2481140,-0.04,-0.06,1.2,2.14,10.19,2.44,904.28,34.01
2481178,-0.03,-0.05,1.18,2.32,11.96,2.26,904.3,34.02
2481216,-0.03,-0.05,1.18,2.81,10.74,2.14,904.26,34.01
2481254,-0.02,-0.06,1.17,3.11,10.99,2.5,904.24,34.01
2481292,-0.0,-0.07,1.1,2.75,10.8,2.26,904.26,34.01
2481331,-0.02,-0.05,1.13,3.42,8.97,1.89,904.23,34.02
2481369,-0.01,-0.06,1.1,3.23,9.58,2.01,904.22,34.02
2481407,-0.01,-0.05,1.09,2.99,6.9,2.2,904.26,34.01
2481456,0.0,-0.07,1.06,2.5,7.14,2.01,904.2,34.01
2481495,-0.0,-0.05,1.07,2.08,5.0,2.01,904.19,34.02
2481533,-0.01,-0.06,1.05,1.89,3.97,1.77,904.11,34.01
2481571,-0.02,-0.08,0.94,1.34,3.36,1.71,904.17,34.04
2481609,-0.02,-0.06,0.98,2.01,2.2,1.46,904.14,34.03
2481647,0.0,-0.08,0.9,1.71,3.3,1.34,904.11,34.02
2481685,-0.0,-0.07,0.88,2.26,1.83,1.04,904.13,34.03
2481723,-0.02,-0.06,0.86,2.2,2.32,0.85,904.1,34.03
2481761,-0.0,-0.07,0.86,1.77,1.46,0.92,904.12,34.01
2481799,0.0,-0.07,0.92,1.89,1.16,0.61,904.08,34.03
2481849,-0.02,-0.06,0.9,1.34,0.31,0.61,904.11,34.02
2481887,-0.01,-0.07,0.93,1.22,1.53,0.49,904.05,34.02
2481925,0.02,-0.07,0.88,0.79,0.18,0.12,904.05,34.02
2481963,-0.04,-0.05,1.0,1.59,-0.67,0.06,904.01,34.02
2482001,-0.01,-0.09,0.87,0.61,1.95,0.06,904.0,34.02
2482039,0.0,-0.05,0.94,1.53,-1.1,-0.24,903.98,34.03
2482077,-0.01,-0.06,0.93,1.53,0.37,-0.18,903.98,34.01
2482115,0.01,-0.08,0.88,1.95,-0.37,-0.24,903.99,34.01
2482153,0.01,-0.07,0.96,2.69,-0.79,-0.49,903.97,34.02
2482203,-0.01,-0.08,0.81,2.62,-0.24,-0.73,904.03,34.01
2482241,-0.02,-0.05,0.87,3.36,-1.59,-0.79,903.99,34.02
2482279,-0.0,-0.08,0.81,3.11,0.37,-0.73,904.0,34.02
2482317,-0.01,-0.08,0.83,3.48,-0.31,-1.28,903.93,34.03
2482355,-0.01,-0.07,0.84,3.3,1.16,-1.22,904.01,34.03
2482393,0.0,-0.08,0.82,3.17,1.89,-1.28,904.02,34.03
2482431,-0.02,-0.06,0.87,3.11,2.32,-1.59,903.96,34.03
2482469,-0.01,-0.07,0.85,3.05,2.56,-1.53,903.97,34.02
2482507,-0.03,-0.07,0.85,3.17,2.69,-1.46,903.97,34.03
2482545,-0.01,-0.07,0.83,2.81,3.05,-1.59,903.94,34.04
2482595,-0.01,-0.06,0.86,2.56,2.5,-1.65,903.96,34.01
2482633,-0.02,-0.07,0.87,2.5,2.87,-1.46,903.97,34.01
2482671,-0.01,-0.07,0.88,2.5,2.93,-1.65,903.95,34.02
2482710,-0.03,-0.05,0.95,2.5,3.05,-1.71,903.92,34.01
2482748,-0.01,-0.06,0.96,2.38,3.91,-1.71,903.97,34.02
2482786,-0.01,-0.06,0.96,2.38,3.6,-1.77,903.94,34.01
2482824,-0.02,-0.06,0.99,2.38,4.21,-1.71,903.95,34.03
2482862,-0.02,-0.07,0.94,2.01,4.64,-1.65,903.95,34.01
2482900,-0.02,-0.05,0.96,2.2,4.76,-1.89,903.95,34.01
2482976,-0.02,-0.05,0.94,1.77,5.13,-1.77,903.94,33.99
2483014,-0.03,-0.05,0.96,1.71,5.37,-1.83,903.88,33.99
2483052,-0.03,-0.06,0.94,1.34,5.92,-1.71,903.91,34.01
2483141,-0.02,-0.06,1.0,0.85,6.1,-1.53,903.89,33.97
2483179,-0.04,-0.05,1.0,1.04,5.55,-1.65,903.9,33.98
2483218,-0.04,-0.06,0.98,1.04,5.74,-1.77,903.86,34.0
2483255,-0.01,-0.05,1.0,1.04,5.31,-1.65,903.88,34.0
2483294,-0.03,-0.05,0.99,1.28,5.25,-1.65,903.84,34.0
2483332,-0.03,-0.05,0.98,1.34,4.94,-1.59,903.86,34.0
2483370,-0.03,-0.06,1.01,1.59,5.19,-1.77,903.86,34.02
2483420,-0.03,-0.06,1.01,1.65,3.6,-1.4,903.74,33.98
2483458,-0.04,-0.06,1.0,1.22,3.66,-1.4,903.84,34.0
2483496,-0.04,-0.05,1.01,1.04,2.69,-1.53,903.75,34.0
2483534,-0.03,-0.05,1.03,0.73,2.14,-1.28,903.86,34.01
2483572,-0.03,-0.05,1.05,0.18,1.65,-1.16,903.83,34.01
2483610,-0.03,-0.05,1.08,0.06,1.89,-1.22,903.81,34.0
2483648,-0.02,-0.05,1.06,-0.31,2.44,-1.34,903.77,34.0
2483686,-0.04,-0.04,1.07,-0.43,1.77,-1.28,903.85,34.01
2483724,-0.03,-0.04,1.1,-0.12,2.08,-1.22,903.8,34.01
2483774,-0.03,-0.05,1.09,0.43,2.26,-1.28,903.8,33.99
2483812,-0.04,-0.03,1.12,0.73,2.32,-1.34,903.79,34.0
2483850,-0.03,-0.04,1.11,1.16,2.93,-1.22,903.82,34.01
2483888,-0.04,-0.04,1.12,1.77,2.08,-1.22,903.76,34.0
2483926,-0.04,-0.04,1.14,1.95,2.81,-0.98,903.77,34.0
2483964,-0.04,-0.04,1.13,2.32,2.5,-1.04,903.77,34.01
2484002,-0.03,-0.04,1.14,2.56,2.2,-0.79,903.76,34.01
2484040,-0.05,-0.03,1.12,2.56,1.77,-0.67,903.75,34.01
2484078,-0.04,-0.04,1.11,2.75,1.34,-0.61,903.75,34.0
2484116,-0.03,-0.04,1.12,2.75,1.1,-0.49,903.69,34.01
2484166,-0.04,-0.04,1.07,2.87,-0.06,-0.24,903.76,33.99
2484204,-0.04,-0.04,1.05,3.05,0.31,-0.18,903.69,34.0
2484242,-0.04,-0.05,1.02,3.17,1.16,-0.06,903.75,34.01
2484280,-0.04,-0.04,1.02,3.3,1.59,-0.18,903.7,34.01
2484318,-0.03,-0.04,1.01,3.11,2.01,-0.06,903.72,34.01
2484356,-0.03,-0.04,1.0,2.99,3.11,0.06,903.68,34.01
2484394,-0.04,-0.04,1.03,3.11,3.11,-0.12,903.72,34.01
2484432,-0.05,-0.05,1.05,2.87,2.99,0.12,903.65,34.01
2484471,-0.06,-0.04,1.06,3.23,3.42,0.55,903.72,34.02
