timestamp,acc_x,acc_y,acc_z,rot_x,rot_y,rot_z,qfe,temp
5265507,-0.04,-0.07,1.01,0.31,3.3,4.21,870.36,30.69
5265583,-0.04,-0.07,1.01,0.49,4.64,4.09,870.31,30.66
5265621,-0.04,-0.06,1.07,0.55,3.48,4.15,870.25,30.66
5265659,-0.05,-0.07,1.06,0.73,4.52,4.09,870.28,30.68
5265748,-0.03,-0.06,1.1,1.04,4.7,3.85,870.28,30.64
5265787,-0.01,-0.07,1.06,1.1,3.23,3.91,870.3,30.66
5265825,-0.06,-0.04,1.1,1.59,3.54,3.91,870.28,30.66
5265863,-0.05,-0.08,1.03,1.71,4.15,4.03,870.28,30.66
5265901,-0.03,-0.07,1.12,1.65,2.87,4.03,870.25,30.65
5265939,-0.05,-0.07,1.04,1.4,3.72,4.15,870.32,30.66
5265977,-0.04,-0.06,1.05,1.22,2.56,4.21,870.29,30.66
5266027,-0.04,-0.07,1.09,1.59,3.11,3.97,870.3,30.65
5266065,-0.03,-0.05,1.15,1.4,2.14,4.15,870.29,30.65
5266104,-0.03,-0.05,1.13,1.65,3.48,4.15,870.27,30.67
5266142,-0.06,-0.06,1.14,1.53,2.93,4.09,870.32,30.64
5266180,-0.05,-0.06,1.15,1.71,3.78,3.91,870.36,30.67
5266218,-0.07,-0.07,1.09,1.89,3.54,4.03,870.31,30.67
5266256,-0.06,-0.06,1.05,2.38,3.48,4.39,870.36,30.67
5266294,-0.05,-0.09,0.97,2.5,4.39,4.15,870.3,30.67
5266333,-0.05,-0.07,0.96,2.26,3.6,4.15,870.28,30.67
5266383,-0.06,-0.08,0.83,2.08,4.88,4.21,870.31,30.65
5266421,-0.06,-0.07,0.88,1.65,4.39,4.09,870.29,30.67
5266459,-0.05,-0.07,0.92,1.4,6.16,4.39,870.21,30.67
5266497,-0.06,-0.07,0.88,1.4,5.62,4.21,870.3,30.67
5266535,-0.07,-0.06,0.98,1.4,6.1,4.46,870.33,30.67
5266573,-0.05,-0.08,0.95,1.22,6.84,4.33,870.31,30.67
5266612,-0.07,-0.06,0.97,1.22,5.86,4.33,870.33,30.67
5266650,-0.05,-0.08,0.95,1.46,7.14,4.52,870.31,30.66
5266688,-0.05,-0.08,0.94,1.59,6.65,4.52,870.36,30.67
5266726,-0.05,-0.07,0.98,1.71,7.2,4.82,870.42,30.67
5266776,-0.05,-0.08,0.93,1.71,5.92,4.64,870.34,30.66
5266814,-0.04,-0.07,0.93,1.59,6.23,4.58,870.29,30.67
5266852,-0.03,-0.08,0.94,1.53,6.04,4.76,870.4,30.67
5266891,-0.05,-0.08,0.88,1.22,5.92,5.0,870.36,30.68
5266929,-0.03,-0.07,0.88,0.92,4.7,5.07,870.36,30.68
5266967,-0.04,-0.07,0.93,0.92,3.85,4.94,870.33,30.69
5267005,-0.04,-0.08,0.89,0.49,3.23,5.0,870.36,30.68
5267043,-0.04,-0.07,0.97,0.18,2.69,5.13,870.33,30.67
5267082,-0.03,-0.08,0.93,0.49,2.93,5.0,870.37,30.67
5267120,-0.04,-0.07,0.99,0.31,1.46,5.13,870.37,30.69
5267170,-0.04,-0.07,0.98,0.24,1.89,5.0,870.4,30.66
5267208,-0.05,-0.06,1.01,0.12,0.24,5.0,870.4,30.67
5267246,-0.01,-0.07,1.01,0.12,1.16,5.13,870.38,30.68
5267284,-0.03,-0.07,1.0,0.06,0.79,4.82,870.4,30.68
5267322,-0.02,-0.07,1.04,0.12,0.18,4.88,870.43,30.68
5267360,-0.02,-0.08,1.0,-0.12,-0.37,4.82,870.39,30.69
5267399,-0.04,-0.06,1.08,-0.06,-1.22,4.82,870.38,30.68
5267437,-0.02,-0.08,1.08,-0.24,-0.61,4.7,870.45,30.68
5267475,-0.02,-0.07,1.09,-0.06,-1.28,4.46,870.4,30.68
5267525,-0.03,-0.08,1.01,0.31,-0.49,4.46,870.45,30.68
5267563,-0.03,-0.07,0.99,0.37,-0.92,4.39,870.47,30.68
5267601,-0.04,-0.07,0.98,0.67,-0.67,4.27,870.4,30.69
5267639,-0.03,-0.08,0.96,0.67,-0.37,4.21,870.42,30.67
5267677,-0.02,-0.07,0.99,0.31,-0.55,4.03,870.41,30.68
5267716,-0.05,-0.06,1.0,0.0,-0.61,4.09,870.47,30.67
5267754,-0.03,-0.07,1.06,0.06,-1.04,4.15,870.48,30.68
5267792,-0.01,-0.07,1.06,-0.24,-1.22,4.09,870.47,30.67
5267830,-0.04,-0.06,1.08,-0.31,-1.04,4.09,870.43,30.66
5267868,-0.03,-0.06,1.07,0.12,-0.98,3.97,870.49,30.68
5267918,-0.05,-0.06,1.03,0.24,-1.1,3.66,870.49,30.68
5267956,-0.05,-0.07,1.05,0.61,-1.65,3.78,870.44,30.67
5267994,-0.04,-0.07,1.04,0.79,-1.16,3.91,870.48,30.67
5268033,-0.03,-0.06,1.06,1.04,-1.65,3.66,870.48,30.68
5268071,-0.05,-0.06,1.06,0.92,-2.14,3.78,870.5,30.67
5268109,-0.04,-0.07,1.06,1.22,-0.85,3.66,870.47,30.67
5268147,-0.04,-0.07,1.02,1.28,0.49,3.42,870.49,30.67
5268185,-0.06,-0.06,1.03,1.22,0.12,3.6,870.49,30.67
5268224,-0.05,-0.07,1.05,1.4,0.55,3.66,870.45,30.67
5268273,-0.06,-0.06,1.04,1.28,1.1,3.42,870.53,30.68
5268312,-0.06,-0.06,1.04,1.59,2.32,3.72,870.52,30.68
5268350,-0.03,-0.07,1.0,1.46,2.5,3.97,870.54,30.69
5268388,-0.06,-0.06,1.02,2.01,2.14,3.72,870.54,30.67
5268426,-0.06,-0.07,0.96,1.95,2.5,3.85,870.55,30.67
5268464,-0.04,-0.07,0.95,2.08,2.08,3.97,870.53,30.67
5268503,-0.05,-0.07,0.89,2.01,2.5,3.97,870.55,30.68
5268541,-0.05,-0.06,0.85,1.95,2.26,4.15,870.53,30.67
5268579,-0.04,-0.07,0.86,2.08,2.56,4.09,870.52,30.67
5268617,-0.03,-0.08,0.81,1.83,2.69,4.33,870.59,30.68
5268693,-0.06,-0.07,0.82,1.59,2.93,4.39,870.57,30.64
5268731,-0.02,-0.08,0.85,1.28,2.62,4.21,870.56,30.65
5268769,-0.06,-0.07,0.86,1.16,2.99,4.09,870.51,30.65
5268859,-0.04,-0.06,0.88,1.22,3.6,4.33,870.55,30.61
5268897,-0.04,-0.07,0.89,1.28,3.23,4.33,870.61,30.64
5268935,-0.05,-0.07,0.92,1.4,3.42,4.39,870.57,30.64
5268973,-0.07,-0.08,0.91,1.46,3.72,4.33,870.55,30.64
5269011,-0.04,-0.07,0.94,1.65,4.03,4.27,870.66,30.65
5269050,-0.04,-0.07,0.92,1.65,4.03,4.33,870.64,30.64
5269099,-0.06,-0.07,0.91,1.83,4.03,4.39,870.65,30.64
5269138,-0.06,-0.07,0.92,1.95,4.33,4.33,870.69,30.65
5269176,-0.04,-0.07,0.86,1.71,4.82,4.46,870.61,30.65
5269214,-0.06,-0.07,0.86,1.65,4.52,4.39,870.64,30.66
5269252,-0.06,-0.07,0.84,1.65,5.49,4.52,870.67,30.66
5269290,-0.03,-0.08,0.85,1.53,5.8,4.46,870.64,30.67
5269328,-0.04,-0.07,0.82,1.34,6.41,4.46,870.72,30.66
5269367,-0.05,-0.07,0.82,1.16,6.35,4.52,870.64,30.67
5269405,-0.05,-0.07,0.83,0.92,6.23,4.46,870.69,30.66
5269443,-0.06,-0.06,0.84,1.04,6.47,4.58,870.67,30.68
5269493,-0.04,-0.07,0.87,1.1,5.8,4.88,870.7,30.68
5269531,-0.05,-0.07,0.88,1.1,6.16,4.7,870.74,30.67
5269569,-0.04,-0.07,0.9,1.46,5.43,4.88,870.72,30.68
5269607,-0.04,-0.07,0.92,1.53,5.55,4.94,870.75,30.69
5269645,-0.05,-0.07,0.91,1.65,5.13,4.94,870.74,30.69
5269683,-0.05,-0.06,0.94,1.77,5.37,5.07,870.75,30.69
5269722,-0.04,-0.06,0.94,1.59,5.62,5.0,870.76,30.69
5269760,-0.05,-0.06,0.95,1.65,4.46,5.07,870.73,30.7
5269798,-0.05,-0.06,0.97,1.53,4.46,5.19,870.81,30.68
5269836,-0.04,-0.07,0.97,1.65,4.7,5.07,870.82,30.67
5269886,-0.04,-0.06,0.99,1.89,4.46,5.13,870.85,30.67
5269924,-0.04,-0.06,0.96,1.83,4.64,5.19,870.81,30.68
5269962,-0.06,-0.06,0.98,2.08,4.39,5.25,870.83,30.67
5270000,-0.06,-0.07,0.95,2.01,4.52,5.13,870.88,30.67
5270039,-0.06,-0.06,0.94,2.01,4.52,5.25,870.89,30.68
5270077,-0.05,-0.06,0.95,2.26,5.0,5.37,870.85,30.67
5270115,-0.05,-0.06,0.94,2.01,5.0,5.31,870.89,30.66
5270153,-0.05,-0.06,0.92,2.14,5.43,5.19,870.93,30.67
5270191,-0.06,-0.07,0.93,2.32,5.49,5.37,870.9,30.69
5270241,-0.05,-0.07,0.9,2.2,5.86,5.43,870.99,30.67
5270279,-0.05,-0.06,0.89,2.14,5.74,5.25,870.98,30.66
5270317,-0.06,-0.06,0.88,2.26,5.31,5.62,870.96,30.67
5270355,-0.05,-0.07,0.89,2.08,4.94,5.49,870.99,30.67
5270394,-0.05,-0.07,0.93,1.95,5.31,5.62,871.0,30.67
5270432,-0.05,-0.07,0.92,1.77,5.0,5.62,871.01,30.66
5270470,-0.05,-0.06,0.95,1.89,4.7,5.8,871.04,30.67
5270508,-0.04,-0.07,0.96,1.77,4.64,5.74,871.0,30.66
5270546,-0.05,-0.06,0.99,1.46,4.27,5.74,870.99,30.66
5270584,-0.06,-0.06,1.0,1.53,4.27,6.1,871.05,30.67
5270634,-0.06,-0.06,0.99,1.65,3.78,5.86,871.05,30.67
5270672,-0.05,-0.06,1.0,1.65,3.72,5.92,871.11,30.66
5270711,-0.06,-0.06,0.98,1.77,3.48,5.92,871.13,30.68
5270749,-0.05,-0.06,0.99,1.83,3.66,5.98,871.12,30.68
5270787,-0.06,-0.06,0.96,1.83,4.03,5.92,871.09,30.68
5270825,-0.06,-0.06,0.99,2.01,4.39,6.04,871.11,30.66
5270863,-0.06,-0.07,0.98,2.08,5.19,6.04,871.12,30.67
5270901,-0.06,-0.07,0.94,2.38,6.04,6.16,871.11,30.66
5270939,-0.06,-0.06,0.92,2.69,7.02,6.29,871.17,30.68
5270978,-0.05,-0.06,0.9,2.93,7.75,6.41,871.21,30.66
5271028,-0.05,-0.06,0.89,3.17,8.0,6.59,871.14,30.65
5271066,-0.04,-0.06,0.91,3.17,8.36,6.65,871.13,30.65
5271104,-0.04,-0.06,0.9,3.3,8.54,6.71,871.14,30.66
5271142,-0.04,-0.07,0.91,3.3,8.06,6.96,871.2,30.65
5271180,-0.05,-0.06,0.93,3.11,7.75,6.96,871.25,30.67
5271218,-0.05,-0.04,0.97,3.11,7.75,7.26,871.22,30.66
5271256,-0.05,-0.07,0.94,3.17,7.26,7.39,871.29,30.67
5271295,-0.06,-0.05,0.94,3.11,6.1,7.57,871.3,30.66
5271333,-0.03,-0.07,0.92,3.17,7.32,7.63,871.32,30.66
5271383,-0.04,-0.07,0.88,3.23,6.23,7.75,871.31,30.65
5271421,-0.05,-0.07,0.85,3.11,8.0,7.69,871.32,30.65
5271459,-0.05,-0.07,0.82,3.05,7.75,7.69,871.41,30.67
5271497,-0.04,-0.06,0.88,2.87,7.2,7.75,871.34,30.66
5271535,-0.04,-0.08,0.85,2.56,7.57,7.81,871.38,30.66
5271573,-0.04,-0.07,0.9,2.01,7.87,7.75,871.35,30.65
5271612,-0.04,-0.06,0.92,1.95,7.45,7.75,871.34,30.66
5271650,-0.03,-0.06,0.95,1.65,6.59,8.18,871.37,30.65
5271688,-0.03,-0.07,0.95,1.65,7.02,7.87,871.44,30.67
5271726,-0.04,-0.06,0.99,1.77,6.71,8.06,871.39,30.65
5271802,-0.03,-0.06,0.95,1.77,6.16,8.18,871.44,30.62
5271840,-0.04,-0.05,0.98,2.2,6.41,8.12,871.5,30.64
5271878,-0.02,-0.08,0.94,2.14,7.39,8.12,871.49,30.64
5271968,-0.02,-0.07,0.91,2.5,6.77,8.06,871.51,30.6
5272006,-0.02,-0.06,0.92,2.32,6.84,7.81,871.57,30.62
5272044,-0.02,-0.07,0.91,2.62,6.71,8.06,871.6,30.63
5272083,-0.02,-0.07,0.93,2.56,6.29,7.93,871.6,30.63
5272121,-0.01,-0.07,0.91,2.38,6.53,8.0,871.62,30.62
5272159,-0.01,-0.06,0.92,2.38,6.23,7.93,871.66,30.63
5272197,-0.01,-0.06,0.97,2.26,6.16,7.87,871.6,30.63
5272247,-0.03,-0.07,0.97,1.95,5.62,7.75,871.7,30.61
5272285,-0.01,-0.06,1.0,2.01,5.86,7.57,871.77,30.63
5272323,0.0,-0.07,1.0,1.95,6.04,7.63,871.74,30.63
5272361,-0.01,-0.06,0.99,1.71,5.43,7.45,871.78,30.63
5272400,-0.02,-0.07,0.97,1.77,5.43,7.39,871.76,30.64
5272438,-0.01,-0.07,1.0,1.77,5.8,7.2,871.82,30.63
5272476,-0.01,-0.07,1.02,2.01,6.04,7.08,871.84,30.62
5272514,-0.01,-0.06,1.03,2.08,6.77,6.9,871.79,30.62
5272552,-0.01,-0.06,1.07,2.01,7.26,6.77,871.88,30.63
5272602,-0.01,-0.07,1.06,1.77,7.2,6.65,871.85,30.62
5272640,-0.0,-0.07,1.03,1.95,7.14,6.53,871.91,30.63
5272678,-0.02,-0.07,0.97,2.08,7.02,6.53,871.9,30.62
5272717,0.0,-0.06,0.96,2.01,6.41,6.53,871.98,30.63
5272755,0.01,-0.08,0.94,2.26,5.62,6.53,871.97,30.62
5272793,0.0,-0.07,0.88,2.08,5.25,6.1,872.01,30.62
5272831,0.01,-0.08,0.9,1.95,5.13,6.04,872.01,30.62
5272869,0.01,-0.08,0.94,1.53,4.52,5.92,872.05,30.63
5272907,0.0,-0.07,0.96,1.34,4.21,5.92,872.04,30.62
5272945,0.0,-0.08,0.96,1.1,3.42,5.62,872.1,30.63
5272995,-0.01,-0.08,0.91,0.98,2.93,5.55,872.12,30.61
5273033,0.01,-0.07,0.9,0.67,2.5,5.13,872.12,30.62
5273072,0.02,-0.07,0.92,0.43,1.89,5.0,872.14,30.62
5273110,0.02,-0.09,0.91,0.37,2.2,5.13,872.15,30.63
5273148,-0.0,-0.08,0.91,0.61,2.26,4.7,872.22,30.64
5273186,0.0,-0.08,0.88,0.67,2.56,4.39,872.18,30.62
5273224,0.0,-0.08,0.87,0.85,2.2,4.21,872.27,30.65
5273262,-0.01,-0.09,0.81,0.85,3.11,4.09,872.19,30.63
5273300,-0.01,-0.08,0.83,0.61,3.3,4.03,872.27,30.63
5273339,0.01,-0.08,0.86,0.67,3.42,3.6,872.28,30.64
5273389,0.0,-0.07,0.86,0.43,4.09,3.36,872.31,30.63
5273427,-0.0,-0.07,0.96,0.24,5.0,3.36,872.28,30.64
5273465,-0.01,-0.09,0.97,0.31,5.86,3.23,872.3,30.65
5273503,-0.01,-0.06,1.08,0.61,5.07,3.11,872.34,30.65
5273541,0.0,-0.09,1.06,0.67,7.08,2.93,872.34,30.64
5273579,-0.0,-0.07,1.08,0.73,6.41,2.5,872.37,30.64
5273617,-0.01,-0.07,1.1,1.16,8.0,2.62,872.36,30.65
5273656,-0.01,-0.08,1.08,1.4,8.06,2.32,872.42,30.65
5273694,0.0,-0.07,1.13,1.59,8.54,2.44,872.46,30.65
5273732,-0.02,-0.08,1.06,2.01,9.16,2.2,872.39,30.63
5273782,-0.01,-0.09,1.06,2.08,9.64,2.01,872.47,30.63
5273820,0.01,-0.07,1.05,1.83,8.97,1.83,872.48,30.64
5273858,-0.0,-0.07,1.08,1.89,8.54,2.08,872.47,30.63
5273896,-0.02,-0.08,1.04,1.65,8.73,1.95,872.51,30.64
5273934,-0.02,-0.06,1.09,1.77,8.12,1.95,872.54,30.64
5273973,0.0,-0.08,1.11,1.95,7.63,1.83,872.58,30.64
5274011,-0.01,-0.08,1.15,2.14,7.51,2.08,872.58,30.63
5274049,-0.02,-0.08,1.12,2.01,7.93,1.95,872.59,30.65
5274087,-0.01,-0.07,1.13,2.14,7.51,1.89,872.65,30.65
5274137,-0.01,-0.08,1.08,1.95,7.63,2.01,872.6,30.63
5274175,0.0,-0.08,1.12,1.95,6.77,1.95,872.62,30.64
5274213,-0.01,-0.09,1.05,2.14,7.51,1.83,872.69,30.63
5274251,-0.01,-0.07,1.12,2.14,5.43,1.83,872.7,30.63
5274290,0.0,-0.09,1.1,2.01,4.94,1.89,872.69,30.64
5274328,-0.01,-0.09,1.1,1.65,4.52,1.65,872.77,30.65
5274366,-0.02,-0.08,1.08,1.34,5.86,1.89,872.82,30.63
5274404,-0.01,-0.08,1.08,1.28,6.04,1.34,872.78,30.63
5274442,-0.01,-0.08,1.06,1.16,5.68,1.16,872.81,30.62
5274480,-0.02,-0.08,1.05,1.46,5.92,1.34,872.87,30.65
5274530,-0.02,-0.08,1.04,1.04,7.57,0.92,872.82,30.62
5274568,-0.02,-0.08,1.09,0.79,7.63,0.79,872.86,30.62
5274607,-0.02,-0.08,1.12,0.61,8.67,0.85,872.86,30.61
5274645,-0.02,-0.08,1.22,0.43,10.68,0.49,872.94,30.63
5274683,-0.02,-0.08,1.22,0.79,11.05,0.43,872.9,30.62
5274721,-0.03,-0.07,1.27,0.79,11.66,0.49,872.92,30.62
5274759,-0.02,-0.07,1.24,0.49,12.15,0.49,872.94,30.62
5274798,-0.03,-0.06,1.32,0.92,12.21,0.37,872.95,30.62
5274836,0.0,-0.07,1.26,0.73,12.76,0.24,872.94,30.63
5274874,-0.01,-0.05,1.36,0.73,11.54,0.12,872.93,30.62
5274950,-0.03,-0.04,1.36,0.85,10.31,0.18,872.96,30.59
5274988,0.0,-0.04,1.46,1.4,8.36,0.18,872.94,30.6
5275026,-0.02,-0.08,1.4,1.4,6.96,0.24,872.97,30.61
5275116,0.01,-0.06,1.35,1.1,6.96,0.0,873.04,30.58
5275154,-0.02,-0.07,1.28,0.92,6.77,-0.24,873.06,30.59
5275192,-0.03,-0.05,1.3,1.16,6.16,-0.18,873.07,30.59
5275230,-0.02,-0.07,1.28,1.22,5.68,-0.43,873.04,30.6
5275268,-0.01,-0.08,1.28,1.46,4.88,-0.37,873.08,30.59
5275306,-0.03,-0.07,1.24,1.34,3.85,-0.43,873.06,30.6
5275356,-0.03,-0.08,1.24,1.53,3.6,-0.37,873.1,30.59
5275395,-0.03,-0.08,1.22,1.59,3.3,-0.61,873.12,30.59
5275433,-0.03,-0.08,1.18,1.65,3.23,-0.67,873.11,30.59
5275471,-0.04,-0.07,1.13,1.4,3.23,-0.55,873.13,30.61
5275509,-0.04,-0.08,1.09,1.53,4.15,-0.79,873.11,30.6
5275547,-0.04,-0.08,1.1,1.34,3.48,-0.79,873.1,30.61
5275585,-0.06,-0.08,1.08,1.28,3.6,-0.79,873.07,30.6
5275624,-0.06,-0.09,1.03,0.85,3.66,-0.92,873.07,30.61
5275662,-0.04,-0.06,1.09,0.85,3.3,-1.04,873.08,30.61
5275700,-0.04,-0.08,1.04,0.55,4.03,-0.98,873.09,30.61
5275750,-0.07,-0.09,1.07,0.49,2.62,-0.79,873.12,30.59
5275788,-0.06,-0.08,1.04,0.31,2.87,-0.73,873.12,30.61
5275826,-0.07,-0.08,1.06,0.61,1.4,-0.55,873.11,30.61
5275864,-0.07,-0.08,1.0,0.43,1.4,-0.61,873.15,30.61
5275902,-0.08,-0.08,1.04,0.37,1.46,-0.61,873.02,30.59
5275941,-0.04,-0.08,1.0,0.12,0.31,-0.24,873.15,30.61
5275979,-0.07,-0.07,1.01,-0.37,-0.24,-0.31,873.01,30.59
5276017,-0.09,-0.08,0.97,-0.37,0.61,-0.12,873.06,30.61
5276055,-0.07,-0.07,1.0,-0.61,0.49,-0.12,873.11,30.6
5276105,-0.08,-0.08,1.03,-0.49,1.16,0.0,873.14,30.6
5276143,-0.08,-0.07,1.03,-0.55,0.18,0.06,873.16,30.61
5276181,-0.09,-0.07,1.07,-0.24,1.95,0.0,873.18,30.61
5276219,-0.06,-0.08,1.04,0.12,0.85,0.18,873.13,30.6
5276257,-0.06,-0.07,1.03,0.31,0.61,0.12,873.15,30.59
5276295,-0.08,-0.08,0.99,0.61,0.73,0.37,873.1,30.6
5276334,-0.06,-0.08,1.06,0.61,-0.37,0.61,873.16,30.61
5276372,-0.07,-0.07,1.07,0.73,0.55,0.61,873.16,30.6
5276410,-0.08,-0.08,1.06,1.16,0.49,0.67,873.16,30.6
5276448,-0.06,-0.07,1.17,1.34,-0.43,0.79,873.13,30.6
5276498,-0.06,-0.08,1.18,1.46,0.92,0.85,873.16,30.59
5276536,-0.06,-0.07,1.23,1.53,-0.37,1.04,873.25,30.6
5276574,-0.06,-0.07,1.15,1.77,0.31,1.28,873.21,30.61
5276612,-0.07,-0.08,1.16,1.71,-0.37,1.34,873.25,30.6
5276651,-0.05,-0.09,1.1,1.95,-0.12,1.1,873.23,30.61
5276689,-0.08,-0.08,0.97,2.32,0.61,1.16,873.26,30.62
5276727,-0.06,-0.08,0.93,2.5,0.85,1.28,873.26,30.61
5276765,-0.05,-0.08,0.85,2.26,2.14,1.04,873.34,30.61
5276803,-0.05,-0.08,0.83,2.26,2.2,1.04,873.26,30.6
5276853,-0.06,-0.09,0.86,2.5,2.93,1.46,873.26,30.59
5276891,-0.06,-0.09,0.89,2.2,2.87,1.22,873.29,30.59
5276929,-0.04,-0.07,0.9,1.59,2.99,1.22,873.27,30.59
5276967,-0.06,-0.07,0.98,1.04,1.83,1.46,873.26,30.6
5277005,-0.05,-0.09,1.04,0.92,3.17,1.53,873.32,30.59
5277044,-0.04,-0.09,1.02,0.67,3.23,1.4,873.34,30.6
5277082,-0.05,-0.07,1.06,0.37,2.44,1.59,873.31,30.59
5277120,-0.05,-0.06,1.04,0.55,2.38,1.83,873.33,30.6
5277158,-0.05,-0.08,1.06,0.61,2.14,1.65,873.3,30.59
5277196,-0.03,-0.08,1.06,0.55,2.2,1.83,873.3,30.61
5277246,-0.03,-0.08,1.08,0.67,1.46,1.59,873.35,30.6
5277284,-0.02,-0.07,1.07,0.61,1.22,1.65,873.38,30.61
5277322,-0.04,-0.07,1.07,0.85,0.98,1.77,873.36,30.61
5277360,-0.02,-0.08,1.09,0.92,0.85,1.53,873.41,30.62
5277399,-0.03,-0.08,1.07,0.98,0.49,1.46,873.37,30.61
5277437,-0.03,-0.07,1.06,1.04,0.92,1.4,873.37,30.6
5277475,-0.03,-0.08,1.02,1.16,1.46,1.28,873.43,30.62
5277513,-0.04,-0.08,1.01,1.34,1.34,1.34,873.37,30.62
5277551,-0.04,-0.08,1.02,1.28,0.67,1.22,873.42,30.62
5277589,-0.03,-0.08,1.02,1.28,0.61,1.1,873.42,30.63
5277639,-0.03,-0.08,1.0,1.4,0.92,1.1,873.43,30.61
5277677,-0.02,-0.08,1.01,1.1,1.28,0.92,873.42,30.61
5277716,-0.04,-0.08,0.99,1.22,1.46,0.98,873.42,30.6
5277754,-0.05,-0.08,0.97,1.1,1.53,0.98,873.37,30.6
5277792,-0.05,-0.07,0.97,1.16,2.14,0.98,873.39,30.6
5277830,-0.04,-0.07,0.99,1.1,2.01,0.67,873.39,30.6
5277868,-0.04,-0.08,0.97,1.04,2.01,0.98,873.43,30.62
5277906,-0.03,-0.07,1.0,0.92,2.38,0.98,873.43,30.61
5277944,-0.04,-0.07,1.01,1.1,1.95,0.85,873.44,30.61
5278020,-0.05,-0.07,1.02,1.16,1.59,0.85,873.43,30.57
5278058,-0.05,-0.08,1.02,1.4,2.14,0.85,873.41,30.59
5278097,-0.05,-0.08,1.02,1.71,1.89,0.85,873.47,30.61
5278186,-0.05,-0.07,0.99,2.08,1.65,1.16,873.42,30.56
5278224,-0.06,-0.08,0.99,2.14,2.01,1.22,873.38,30.57
5278262,-0.05,-0.08,1.0,2.26,2.26,1.28,873.47,30.58
5278300,-0.04,-0.07,0.99,2.56,1.95,1.4,873.47,30.58
5278339,-0.06,-0.07,1.0,2.5,2.32,1.4,873.45,30.59
5278377,-0.04,-0.07,0.98,2.56,2.56,1.46,873.42,30.59
5278415,-0.06,-0.07,0.97,2.87,2.5,1.77,873.45,30.6
5278465,-0.07,-0.07,0.96,2.87,3.05,1.83,873.45,30.59
5278503,-0.05,-0.07,0.95,2.93,2.75,2.08,873.38,30.59
5278541,-0.05,-0.08,0.94,2.99,2.99,2.08,873.44,30.61
5278579,-0.05,-0.07,0.94,3.17,3.11,2.08,873.42,30.6
5278617,-0.05,-0.08,0.92,3.17,3.78,2.32,873.45,30.61
5278656,-0.06,-0.08,0.89,3.11,3.36,2.38,873.52,30.61
5278694,-0.06,-0.07,0.88,3.36,3.66,2.5,873.44,30.62
5278732,-0.06,-0.07,0.84,3.36,3.85,2.69,873.45,30.63
5278770,-0.05,-0.08,0.87,3.11,4.21,2.62,873.49,30.63
5278808,-0.04,-0.08,0.84,2.93,4.82,2.87,873.43,30.63
5278858,-0.05,-0.08,0.87,2.81,5.0,2.81,873.52,30.62
5278896,-0.05,-0.08,0.83,2.56,5.8,2.87,873.46,30.62
5278935,-0.04,-0.07,0.89,2.44,5.43,2.99,873.49,30.63
5278973,-0.04,-0.09,0.85,2.38,6.59,2.99,873.46,30.63
5279011,-0.05,-0.08,0.83,2.32,6.1,3.05,873.54,30.62
5279049,-0.05,-0.07,0.87,2.38,5.98,3.17,873.44,30.63
5279087,-0.03,-0.08,0.86,2.56,5.49,3.3,873.5,30.62
5279126,-0.05,-0.08,0.91,2.38,5.13,3.36,873.49,30.63
5279164,-0.06,-0.09,0.92,2.5,5.8,3.48,873.43,30.63
5279214,-0.04,-0.07,0.95,2.38,5.0,3.72,873.53,30.62
5279252,-0.05,-0.08,0.94,2.32,5.49,3.54,873.49,30.62
5279290,-0.04,-0.08,0.92,2.44,4.52,3.54,873.54,30.61
5279328,-0.04,-0.07,0.92,2.5,5.07,3.78,873.58,30.62
5279366,-0.04,-0.08,0.86,2.5,4.94,3.72,873.56,30.63
5279405,-0.06,-0.08,0.87,2.56,3.78,3.78,873.5,30.62
5279443,-0.04,-0.09,0.87,2.44,4.15,3.72,873.58,30.62
5279481,-0.03,-0.09,0.87,2.01,3.72,3.78,873.52,30.62
5279519,-0.04,-0.07,0.91,2.08,4.52,3.85,873.5,30.62
5279557,-0.04,-0.08,0.91,1.83,4.76,3.85,873.49,30.62
5279607,-0.02,-0.08,0.94,1.65,4.88,3.78,873.59,30.61
5279645,-0.04,-0.08,0.9,1.83,5.07,3.78,873.57,30.6
5279683,-0.04,-0.08,0.93,1.71,5.37,3.91,873.56,30.61
5279721,-0.02,-0.08,0.95,1.65,5.31,3.72,873.59,30.61
5279760,-0.03,-0.07,0.96,1.59,4.88,3.72,873.61,30.6
5279798,-0.02,-0.08,0.98,1.65,5.25,3.85,873.56,30.6
5279836,-0.03,-0.08,0.99,1.83,5.37,3.66,873.64,30.6
5279874,-0.02,-0.07,1.0,1.83,5.31,3.66,873.6,30.6
5279912,-0.04,-0.07,1.0,1.89,4.64,3.78,873.59,30.6
5279950,-0.03,-0.08,0.98,2.01,4.58,3.54,873.63,30.6
5280000,-0.02,-0.08,1.01,2.14,4.33,3.54,873.63,30.6
5280038,-0.02,-0.08,1.0,2.01,4.46,3.6,873.67,30.6
5280077,-0.03,-0.08,1.0,2.01,3.78,3.6,873.64,30.6
5280115,-0.02,-0.08,1.0,2.2,4.33,3.66,873.64,30.6
5280153,-0.02,-0.08,1.0,2.01,4.21,3.54,873.7,30.6
5280191,-0.03,-0.08,1.01,2.2,4.52,3.36,873.64,30.6
5280229,-0.03,-0.09,0.98,2.14,4.64,3.23,873.65,30.6
5280267,-0.03,-0.07,0.99,2.08,4.76,3.23,873.62,30.59
5280306,-0.02,-0.08,1.0,2.08,5.74,3.11,873.62,30.6
5280355,-0.01,-0.08,1.02,1.95,5.49,2.99,873.65,30.59
5280393,-0.01,-0.07,1.11,1.83,5.37,2.99,873.64,30.58
5280432,-0.02,-0.09,1.09,2.14,5.8,2.75,873.67,30.6
5280470,-0.03,-0.07,1.14,2.14,4.82,2.81,873.75,30.59
5280508,-0.02,-0.07,1.15,2.38,4.03,2.99,873.68,30.57
5280546,-0.02,-0.07,1.15,2.38,3.78,2.87,873.71,30.58
5280584,-0.04,-0.07,1.13,2.62,3.78,2.93,873.7,30.58
5280622,-0.03,-0.08,1.1,2.69,3.3,2.93,873.75,30.59
5280661,-0.02,-0.07,1.05,2.32,2.26,2.69,873.74,30.6
5280699,-0.03,-0.08,0.99,2.08,2.81,2.87,873.83,30.61
5280749,-0.02,-0.08,0.96,1.95,2.93,2.81,873.76,30.59
5280787,-0.02,-0.08,0.9,1.71,3.6,2.69,873.81,30.59
5280825,-0.01,-0.07,0.93,1.89,2.93,2.62,873.77,30.59
5280863,-0.01,-0.08,0.94,1.71,3.48,2.5,873.78,30.6
5280901,-0.01,-0.09,0.95,1.95,3.23,2.32,873.73,30.59
5280939,-0.02,-0.09,0.96,1.65,3.3,2.26,873.76,30.6
5280977,-0.02,-0.09,0.98,1.71,2.93,2.26,873.76,30.61
5281016,-0.01,-0.08,0.96,1.46,3.11,2.14,873.87,30.61
5281054,-0.02,-0.08,0.96,1.59,2.81,1.95,873.8,30.63
5281092,-0.02,-0.09,0.95,1.95,2.93,2.01,873.85,30.62
5281168,-0.02,-0.08,0.95,1.83,3.54,1.65,873.78,30.58
5281206,-0.02,-0.09,0.94,2.14,3.78,1.65,873.84,30.59
5281244,-0.02,-0.08,0.94,1.95,3.48,1.59,873.83,30.59
5281333,-0.01,-0.08,0.89,2.32,3.66,1.22,873.84,30.57
5281372,-0.02,-0.08,0.88,2.26,3.3,1.1,873.8,30.57
5281410,-0.02,-0.09,0.89,2.32,3.48,1.22,873.81,30.57
5281448,-0.02,-0.09,0.87,2.14,3.97,1.1,873.84,30.59
5281486,-0.02,-0.08,0.89,2.38,4.03,1.04,873.84,30.58
5281524,-0.02,-0.09,0.9,2.26,4.33,0.79,873.85,30.58
5281574,-0.03,-0.08,0.91,2.14,4.7,0.92,873.79,30.56
5281612,-0.02,-0.08,0.93,2.38,4.94,0.61,873.84,30.58
5281650,-0.02,-0.08,0.91,2.38,5.25,0.55,873.92,30.58
5281688,-0.03,-0.08,0.93,2.62,5.19,0.43,873.92,30.59
5281727,-0.01,-0.08,0.93,2.69,5.86,0.37,873.9,30.6
5281765,-0.0,-0.08,0.97,2.32,5.74,0.24,873.87,30.6
5281803,-0.02,-0.08,1.0,2.5,5.8,0.37,873.81,30.59
5281841,-0.02,-0.08,1.02,2.44,6.16,0.31,873.88,30.59
5281879,-0.02,-0.08,1.04,2.14,5.86,0.18,873.89,30.59
5281918,-0.03,-0.08,1.09,2.38,6.04,0.24,873.87,30.6
5281967,-0.02,-0.08,1.03,2.5,5.37,0.12,873.96,30.59
5282006,-0.03,-0.07,1.06,2.75,5.8,0.0,873.97,30.6
5282044,-0.02,-0.08,0.99,2.99,6.16,0.06,873.95,30.61
5282082,-0.01,-0.07,1.04,2.87,4.82,0.12,873.94,30.59
5282120,-0.03,-0.08,0.97,2.99,4.94,0.06,873.92,30.6
5282158,-0.03,-0.08,0.98,2.62,4.7,0.12,873.94,30.6
5282196,-0.02,-0.09,1.0,2.81,5.0,0.18,873.95,30.6
5282235,-0.0,-0.09,0.99,2.56,4.39,-0.06,873.97,30.61
5282273,-0.03,-0.08,1.02,2.56,4.21,0.06,873.95,30.6
5282311,-0.03,-0.09,0.97,2.44,4.94,0.18,873.91,30.6
5282361,-0.02,-0.08,1.02,2.56,3.85,-0.06,873.99,30.6
5282399,-0.03,-0.09,0.97,2.69,3.54,0.12,873.99,30.59
5282437,-0.04,-0.09,0.96,2.69,3.05,0.06,873.96,30.59
5282475,-0.01,-0.08,1.01,2.75,3.36,-0.06,874.0,30.6
5282513,-0.03,-0.09,0.94,2.75,3.42,0.12,874.03,30.6
5282552,-0.04,-0.08,0.94,2.62,2.93,0.06,874.05,30.59
5282590,-0.03,-0.09,0.9,2.75,3.78,0.0,874.01,30.6
5282628,-0.03,-0.08,0.91,2.44,3.54,-0.18,874.0,30.59
5282666,-0.03,-0.08,0.93,2.26,3.54,0.0,874.04,30.59
5282716,-0.04,-0.09,0.94,2.26,3.17,-0.06,874.12,30.58
5282754,-0.04,-0.08,0.96,2.2,2.93,0.0,874.05,30.58
5282792,-0.05,-0.08,0.98,2.14,2.69,0.06,874.04,30.59
5282830,-0.04,-0.08,0.98,2.01,3.17,0.18,874.07,30.59
5282868,-0.04,-0.08,0.98,1.95,3.17,-0.06,874.1,30.59
5282906,-0.05,-0.08,0.99,1.95,2.75,0.0,874.11,30.59
5282945,-0.04,-0.08,0.96,1.95,3.23,0.18,874.11,30.57
5282983,-0.04,-0.08,0.95,1.89,3.36,0.06,874.12,30.6
5283021,-0.05,-0.08,0.95,2.08,3.3,0.12,874.11,30.58
5283059,-0.05,-0.08,0.92,1.95,4.03,0.24,874.09,30.58
5283109,-0.06,-0.09,0.93,2.01,4.09,0.37,874.09,30.57
5283147,-0.05,-0.08,0.91,1.77,4.76,0.31,874.14,30.58
5283185,-0.06,-0.08,0.93,1.71,5.31,0.43,874.14,30.58
5283223,-0.05,-0.08,0.94,1.83,4.88,0.37,874.1,30.58
5283262,-0.04,-0.07,0.93,1.89,5.37,0.67,874.16,30.58
5283300,-0.05,-0.08,0.96,1.77,5.8,0.85,874.17,30.57
5283338,-0.04,-0.08,0.96,1.71,5.49,0.61,874.15,30.57
5283376,-0.04,-0.08,0.98,1.83,5.07,0.92,874.21,30.58
5283414,-0.03,-0.09,0.96,1.89,4.76,0.92,874.21,30.59
5283464,-0.04,-0.08,0.98,1.83,4.03,0.98,874.18,30.56
5283502,-0.04,-0.08,0.95,1.89,4.82,1.22,874.15,30.58
5283540,-0.04,-0.08,0.97,1.89,4.15,1.1,874.18,30.56
5283578,-0.03,-0.08,0.97,1.77,4.39,1.1,874.19,30.57
5283617,-0.04,-0.08,0.94,1.77,4.21,1.28,874.22,30.58
5283655,-0.03,-0.08,0.96,1.71,4.33,1.28,874.26,30.57
5283693,-0.03,-0.07,0.95,1.65,3.85,1.28,874.21,30.58
5283731,-0.03,-0.08,1.0,1.65,4.27,1.28,874.24,30.57
5283769,-0.03,-0.09,0.96,1.53,4.33,1.46,874.24,30.57
5283807,-0.04,-0.08,0.99,1.59,3.66,1.28,874.21,30.57
5283857,-0.04,-0.08,0.97,1.4,3.54,1.46,874.21,30.57
5283895,-0.03,-0.08,1.01,1.4,3.17,1.22,874.25,30.56
5283933,-0.04,-0.08,0.98,1.28,3.11,1.4,874.16,30.56
5283972,-0.04,-0.08,1.0,1.53,2.87,1.34,874.26,30.55
5284010,-0.05,-0.08,0.97,1.59,2.99,1.22,874.27,30.58
5284048,-0.03,-0.07,1.02,1.46,3.05,1.34,874.26,30.57
5284086,-0.03,-0.08,1.01,1.71,3.23,1.28,874.27,30.57
5284124,-0.04,-0.07,1.05,1.77,3.05,1.28,874.29,30.57
5284162,-0.03,-0.08,1.06,1.95,3.48,1.46,874.34,30.58
5284201,-0.03,-0.08,1.07,2.44,3.48,1.22,874.34,30.58
5284278,-0.0,-0.08,1.03,2.69,3.66,1.53,874.3,30.54
5284316,-0.03,-0.08,1.0,2.81,3.85,1.4,874.38,30.57
5284354,-0.02,-0.08,1.01,2.87,2.99,1.22,874.35,30.55
5284444,-0.03,-0.08,0.99,2.93,2.26,1.22,874.35,30.54
5284482,-0.04,-0.08,0.98,2.99,2.5,1.4,874.39,30.56
5284521,-0.04,-0.08,0.98,2.81,2.2,1.46,874.39,30.55
5284559,-0.02,-0.08,0.99,2.87,2.75,1.22,874.4,30.55
5284597,-0.04,-0.09,0.98,2.99,2.99,1.1,874.44,30.55
5284635,-0.01,-0.07,0.97,2.81,3.42,1.04,874.38,30.57
5284685,-0.02,-0.09,0.95,3.05,3.17,0.98,874.42,30.55
5284723,-0.02,-0.08,0.94,2.62,2.93,0.92,874.42,30.56
5284761,-0.03,-0.08,0.92,2.44,2.56,0.92,874.47,30.56
5284800,-0.05,-0.08,0.92,2.32,2.38,0.73,874.43,30.57
5284838,-0.01,-0.1,0.91,2.32,2.08,0.79,874.44,30.58
5284876,-0.03,-0.08,0.9,2.5,1.34,0.73,874.47,30.57
5284914,-0.02,-0.09,0.84,2.5,1.4,0.79,874.52,30.58
5284952,-0.03,-0.08,0.84,1.89,0.49,0.92,874.51,30.58
5284990,-0.02,-0.08,0.84,1.89,0.43,0.79,874.45,30.59
5285029,-0.03,-0.09,0.85,1.65,0.18,0.73,874.49,30.58
5285078,-0.03,-0.08,0.86,1.34,-0.31,0.67,874.4,30.57
5285117,-0.02,-0.07,0.9,1.4,-0.43,0.73,874.49,30.56
5285155,-0.02,-0.09,0.93,1.4,-0.31,0.61,874.53,30.57
5285193,-0.04,-0.09,0.94,1.53,-0.67,0.73,874.56,30.58
5285231,-0.04,-0.07,0.98,1.59,-0.31,0.49,874.5,30.59
5285269,-0.02,-0.08,0.96,1.83,0.37,0.61,874.57,30.58
5285307,-0.04,-0.07,0.96,1.95,-0.18,0.43,874.54,30.57
5285345,-0.05,-0.08,0.97,2.2,0.18,0.43,874.54,30.58
5285383,-0.05,-0.09,0.94,2.26,0.18,0.49,874.55,30.58
5285422,-0.04,-0.07,0.98,2.08,0.0,0.61,874.57,30.6
5285471,-0.04,-0.08,0.96,2.26,0.12,0.73,874.64,30.58
5285509,-0.04,-0.07,0.99,2.38,0.12,0.67,874.59,30.58
5285548,-0.04,-0.08,0.97,2.56,1.16,0.67,874.59,30.58
5285586,-0.04,-0.08,0.97,2.56,1.16,0.98,874.63,30.58
5285624,-0.05,-0.07,0.97,2.69,1.04,0.92,874.64,30.57
5285662,-0.05,-0.08,0.95,2.75,1.04,0.73,874.64,30.58
5285700,-0.05,-0.08,0.94,2.87,1.4,1.1,874.62,30.58
5285739,-0.04,-0.08,0.93,2.69,1.46,0.98,874.64,30.58
5285777,-0.04,-0.07,0.92,2.56,1.65,1.1,874.65,30.58
5285827,-0.04,-0.07,0.9,2.38,2.38,1.04,874.69,30.57
5285865,-0.05,-0.08,0.94,2.14,2.56,1.1,874.67,30.57
5285903,-0.05,-0.08,0.94,1.89,2.81,1.22,874.66,30.57
5285941,-0.07,-0.07,0.99,1.89,2.56,1.34,874.68,30.58
5285979,-0.04,-0.08,0.99,1.83,3.23,1.53,874.71,30.59
5286017,-0.04,-0.07,1.04,1.77,2.87,1.53,874.73,30.58
5286055,-0.04,-0.07,1.03,1.65,3.42,1.65,874.76,30.6
5286094,-0.04,-0.08,1.06,1.77,3.48,1.65,874.77,30.58
5286132,-0.04,-0.07,1.06,1.89,4.09,1.71,874.76,30.58
5286170,-0.04,-0.07,1.02,1.95,3.97,1.83,874.72,30.58
5286220,-0.05,-0.07,1.04,2.08,3.78,1.89,874.79,30.57
5286258,-0.04,-0.09,1.0,2.08,3.6,1.83,874.85,30.58
5286296,-0.03,-0.08,1.01,2.01,3.3,2.08,874.8,30.58
5286334,-0.03,-0.08,0.98,1.95,2.93,1.95,874.84,30.58
5286372,-0.04,-0.08,0.96,1.65,3.11,2.2,874.8,30.58
5286410,-0.04,-0.08,0.97,1.71,2.99,2.08,874.79,30.58
5286449,-0.04,-0.09,0.95,1.77,2.44,2.44,874.85,30.58
5286487,-0.03,-0.08,0.96,1.46,2.62,2.38,874.84,30.58
5286525,-0.03,-0.08,0.96,1.46,2.56,2.56,874.84,30.58
5286563,-0.04,-0.07,0.99,1.53,2.08,2.32,874.9,30.57
5286613,-0.04,-0.07,0.99,1.46,2.32,2.26,874.91,30.57
5286651,-0.04,-0.07,1.03,1.4,2.44,2.5,874.86,30.58
5286689,-0.04,-0.08,1.03,1.53,2.87,2.38,874.88,30.58
5286727,-0.04,-0.08,1.04,1.65,3.36,2.38,874.85,30.57
5286765,-0.04,-0.08,1.04,1.83,3.91,2.38,874.89,30.58
5286804,-0.04,-0.08,1.04,2.08,4.27,2.44,874.87,30.58
5286842,-0.03,-0.07,1.04,2.2,4.7,2.44,874.88,30.58
5286880,-0.04,-0.08,1.04,2.2,4.58,2.44,874.94,30.58
5286918,-0.04,-0.08,1.05,2.38,4.64,2.5,874.91,30.59
5286968,-0.04,-0.07,1.07,2.62,5.0,2.5,874.98,30.58
5287006,-0.03,-0.08,1.05,2.56,5.0,2.5,874.97,30.59
5287044,-0.04,-0.08,1.02,2.56,5.0,2.5,874.95,30.58
5287082,-0.04,-0.07,1.04,2.5,4.82,2.56,875.03,30.58
5287121,-0.03,-0.08,1.0,2.5,5.68,2.38,874.98,30.59
5287159,-0.04,-0.08,0.99,2.5,5.31,2.44,874.93,30.58
5287197,-0.04,-0.08,1.0,2.32,5.31,2.44,875.04,30.58
5287235,-0.03,-0.08,0.98,2.08,5.31,2.32,875.09,30.57
5287273,-0.03,-0.07,1.0,2.08,5.62,2.38,874.99,30.58
5287311,-0.03,-0.09,0.97,1.95,6.1,2.32,875.0,30.58
5287387,-0.03,-0.08,0.97,1.71,6.35,2.44,875.05,30.54
5287425,-0.03,-0.09,0.97,1.65,6.29,2.44,875.05,30.55
5287463,-0.03,-0.08,1.0,1.46,6.04,2.38,875.01,30.56
5287553,-0.03,-0.08,0.98,1.34,6.16,2.26,875.03,30.52
5287591,-0.02,-0.08,0.97,1.53,6.16,2.38,875.14,30.55
5287629,-0.03,-0.08,0.98,1.28,6.23,2.14,875.14,30.55
5287668,-0.03,-0.08,0.98,1.22,6.23,2.32,875.13,30.54
5287706,-0.03,-0.08,1.0,1.28,5.86,2.2,875.12,30.55
5287744,-0.03,-0.09,1.0,1.28,6.29,2.14,875.16,30.55
5287782,-0.03,-0.08,1.02,1.1,5.86,2.14,875.09,30.55
5287832,-0.02,-0.08,1.03,1.22,5.98,2.14,875.14,30.55
5287870,-0.02,-0.08,1.04,1.22,5.62,1.95,875.2,30.57
5287908,-0.03,-0.08,1.05,1.4,5.98,1.95,875.19,30.57
5287947,-0.03,-0.07,1.06,1.4,5.74,1.89,875.15,30.57
5287985,-0.02,-0.08,1.07,1.53,5.8,1.95,875.14,30.57
5288023,-0.04,-0.08,1.07,1.77,5.55,1.83,875.19,30.58
5288061,-0.04,-0.08,1.08,1.89,5.19,1.89,875.23,30.56
5288099,-0.03,-0.08,1.08,1.95,4.58,2.14,875.17,30.57
5288137,-0.02,-0.08,1.07,1.95,4.94,1.83,875.22,30.58
5288187,-0.04,-0.08,1.04,2.08,4.7,1.95,875.22,30.55
5288225,-0.04,-0.08,1.04,2.08,4.7,1.95,875.21,30.56
5288263,-0.03,-0.08,1.02,2.14,4.7,1.89,875.25,30.58
5288302,-0.04,-0.07,1.02,2.08,4.27,1.95,875.26,30.56
5288340,-0.02,-0.08,1.01,2.32,4.46,1.89,875.28,30.57
5288378,-0.03,-0.08,1.01,2.2,4.33,1.89,875.23,30.58
5288416,-0.03,-0.08,1.0,2.26,4.39,1.77,875.24,30.57
5288454,-0.03,-0.08,0.99,2.26,4.33,1.89,875.28,30.57
5288492,-0.03,-0.08,0.98,2.26,4.21,1.77,875.29,30.57
5288531,-0.03,-0.08,0.97,1.95,4.33,1.83,875.28,30.58
5288581,-0.03,-0.08,0.97,1.77,4.15,1.83,875.28,30.55
5288619,-0.02,-0.08,0.97,1.59,4.09,2.01,875.28,30.56
5288657,-0.02,-0.08,0.98,1.65,3.6,1.77,875.28,30.57
5288695,-0.03,-0.08,0.95,1.59,3.85,1.89,875.37,30.57
5288733,-0.03,-0.08,1.0,1.59,3.72,1.71,875.34,30.57
5288771,-0.03,-0.09,1.0,1.46,3.85,1.95,875.32,30.56
5288810,-0.04,-0.08,1.01,1.46,3.05,1.95,875.4,30.56
5288848,-0.03,-0.08,1.01,1.59,3.6,1.83,875.31,30.56
5288886,-0.02,-0.08,0.98,1.28,3.54,1.83,875.35,30.56
5288924,-0.03,-0.08,0.99,1.53,3.17,1.83,875.38,30.57
5288974,-0.03,-0.09,0.98,1.4,2.93,1.83,875.38,30.55
5289012,-0.03,-0.08,0.98,1.4,2.93,1.77,875.36,30.57
5289050,-0.02,-0.08,0.95,1.46,2.87,1.83,875.36,30.56
5289089,-0.02,-0.08,0.98,1.4,3.05,1.71,875.34,30.57
5289127,-0.02,-0.09,0.97,1.46,3.11,1.71,875.44,30.56
5289165,-0.02,-0.08,0.99,1.53,3.11,1.65,875.45,30.57
5289203,-0.03,-0.08,0.99,1.46,3.78,1.59,875.4,30.57
5289241,-0.03,-0.08,1.0,1.34,4.21,1.53,875.41,30.57
5289279,-0.03,-0.08,1.03,1.34,4.52,1.34,875.36,30.57
5289329,-0.03,-0.08,1.02,1.34,4.46,1.59,875.44,30.55
5289367,-0.06,-0.08,1.03,1.34,4.88,1.22,875.51,30.56
5289405,-0.03,-0.08,1.02,1.59,4.94,1.46,875.52,30.58
5289444,-0.03,-0.08,1.04,1.53,4.58,1.34,875.41,30.57
5289482,-0.04,-0.08,1.0,1.53,5.25,1.53,875.51,30.57
5289520,-0.03,-0.08,1.03,1.46,4.7,1.28,875.46,30.56
5289558,-0.04,-0.08,1.0,1.4,5.0,1.34,875.48,30.56
5289596,-0.02,-0.08,1.0,1.16,4.33,1.28,875.46,30.57
5289634,-0.03,-0.08,1.03,1.04,4.33,1.28,875.4,30.56
5289673,-0.02,-0.08,1.01,0.92,3.3,1.34,875.48,30.55
5289722,-0.02,-0.08,1.08,1.22,2.69,1.59,875.47,30.56
5289761,-0.02,-0.08,1.07,1.22,1.83,1.34,875.51,30.55
5289799,-0.03,-0.06,1.1,1.28,1.71,1.46,875.47,30.55
5289837,-0.02,-0.08,1.06,0.98,1.16,1.34,875.54,30.56
5289875,-0.02,-0.08,1.06,0.98,1.95,1.28,875.5,30.55
5289913,-0.03,-0.08,1.05,1.22,2.32,1.34,875.53,30.56
5289952,-0.01,-0.08,1.06,1.4,1.1,1.28,875.5,30.56
5289990,-0.02,-0.08,1.03,1.1,1.28,0.92,875.55,30.56
5290028,-0.03,-0.08,1.05,1.22,1.28,1.28,875.51,30.56
5290066,-0.02,-0.08,1.06,1.28,1.65,0.92,875.54,30.55
5290116,-0.02,-0.07,1.07,1.04,1.16,0.85,875.54,30.55
5290154,-0.03,-0.07,1.08,1.34,0.92,0.85,875.57,30.56
5290192,-0.04,-0.09,1.07,1.46,0.73,0.79,875.56,30.56
5290230,-0.03,-0.07,1.07,1.65,0.43,0.67,875.61,30.55
5290269,-0.03,-0.07,1.07,1.83,-0.24,0.79,875.64,30.56
5290307,-0.04,-0.08,1.04,1.95,0.31,0.73,875.61,30.56
5290345,-0.05,-0.08,0.98,2.08,0.55,0.55,875.65,30.57
5290383,-0.02,-0.06,1.03,2.38,1.71,0.61,875.66,30.57
5290421,-0.03,-0.08,0.95,2.44,2.81,0.73,875.64,30.56
5290497,-0.03,-0.08,0.98,2.87,4.82,0.73,875.65,30.53
5290535,-0.02,-0.08,1.01,2.87,4.33,0.79,875.6,30.53
5290574,-0.05,-0.07,1.02,2.87,3.85,0.85,875.6,30.53
5290663,-0.03,-0.08,1.05,2.69,4.03,0.98,875.55,30.5
5290701,-0.04,-0.08,1.04,2.87,3.6,1.1,875.67,30.53
5290739,-0.04,-0.07,1.03,2.87,3.97,1.1,875.65,30.54
5290778,-0.04,-0.07,1.02,2.87,4.82,0.92,875.67,30.54
5290816,-0.04,-0.07,1.02,2.87,3.85,1.34,875.61,30.52
5290854,-0.04,-0.08,1.0,2.99,4.94,1.28,875.68,30.53
5290892,-0.03,-0.09,0.97,2.87,4.82,1.22,875.71,30.54
5290942,-0.04,-0.07,0.95,3.17,5.37,1.34,875.71,30.53
5290980,-0.03,-0.08,0.91,3.3,5.74,1.34,875.73,30.53
5291018,-0.03,-0.08,0.92,3.42,5.07,1.28,875.67,30.52
5291057,-0.04,-0.09,0.87,3.23,5.13,1.53,875.69,30.54
5291095,-0.04,-0.08,0.85,3.17,4.88,1.53,875.74,30.53
5291133,-0.03,-0.08,0.89,2.99,5.13,1.53,875.66,30.54
5291171,-0.03,-0.09,0.86,2.5,6.1,1.65,875.69,30.55
5291209,-0.04,-0.07,0.91,2.5,4.21,1.65,875.74,30.54
5291247,-0.04,-0.08,0.91,2.56,5.55,1.71,875.72,30.55
5291297,-0.01,-0.08,0.92,2.44,5.31,1.77,875.68,30.53
5291335,-0.02,-0.08,0.93,2.2,5.55,1.83,875.72,30.53
5291374,-0.03,-0.09,0.91,1.77,4.82,1.83,875.75,30.53
5291412,-0.04,-0.08,0.97,2.14,5.13,1.71,875.75,30.55
5291450,-0.03,-0.08,0.93,2.01,4.76,2.01,875.74,30.52
5291488,-0.01,-0.08,0.97,1.95,3.6,1.89,875.66,30.53
5291526,-0.04,-0.08,0.96,2.2,4.15,1.71,875.76,30.53
5291565,-0.03,-0.08,0.99,1.95,3.78,1.89,875.71,30.52
5291603,-0.03,-0.07,1.08,2.01,3.85,1.89,875.76,30.53
5291641,-0.03,-0.09,1.02,2.14,4.09,2.08,875.75,30.54
5291691,-0.04,-0.07,1.08,2.01,3.54,1.83,875.74,30.52
5291729,-0.03,-0.08,1.03,2.26,3.91,2.2,875.73,30.54
5291767,-0.02,-0.08,1.03,2.08,3.97,1.89,875.78,30.54
5291805,-0.04,-0.07,0.99,2.14,3.85,2.08,875.79,30.55
5291843,-0.03,-0.08,0.99,2.26,3.48,2.08,875.82,30.56
5291882,-0.02,-0.09,1.0,2.14,3.97,2.01,875.76,30.55
5291920,-0.03,-0.08,0.99,2.08,3.72,2.01,875.83,30.56
5291958,-0.04,-0.07,1.02,2.26,3.6,2.2,875.81,30.54
5291996,-0.03,-0.08,1.01,2.38,3.23,2.14,875.8,30.55
5292034,-0.03,-0.08,1.02,2.32,3.23,2.01,875.83,30.56
5292084,-0.03,-0.08,1.02,2.2,3.36,2.14,875.81,30.54
5292122,-0.01,-0.08,1.01,2.26,3.48,2.08,875.81,30.55
5292160,-0.02,-0.08,1.02,2.38,3.66,2.01,875.81,30.56
5292198,-0.03,-0.08,1.0,2.26,3.85,1.89,875.79,30.55
5292237,-0.02,-0.08,0.99,2.2,3.54,1.95,875.83,30.55
5292275,-0.03,-0.08,1.02,2.32,3.17,1.77,875.78,30.56
5292313,-0.02,-0.08,0.99,2.32,3.85,1.83,875.86,30.56
5292351,-0.01,-0.08,1.02,2.38,3.3,1.77,875.79,30.56
5292389,-0.02,-0.08,1.0,2.62,4.15,1.65,875.84,30.55
5292439,-0.02,-0.09,0.99,2.44,3.78,1.65,875.84,30.54
5292477,-0.02,-0.08,0.98,2.62,4.09,1.53,875.84,30.55
5292515,-0.02,-0.08,0.97,2.5,3.36,1.46,875.83,30.56
5292554,-0.01,-0.08,0.97,2.5,3.42,1.28,875.87,30.56
5292592,-0.02,-0.09,0.94,2.56,3.36,1.4,875.87,30.55
5292630,-0.01,-0.09,0.94,2.75,3.3,1.28,875.86,30.56
5292668,-0.01,-0.08,0.94,2.69,3.3,1.16,875.84,30.56
5292706,-0.02,-0.08,0.92,2.69,3.54,1.22,875.92,30.56
5292745,-0.02,-0.08,0.91,2.87,3.48,1.1,875.9,30.56
5292783,-0.02,-0.08,0.9,2.93,4.15,0.85,875.86,30.55
5292833,-0.01,-0.08,0.9,3.05,4.58,0.79,875.86,30.54
5292871,-0.01,-0.08,0.91,3.17,4.88,0.73,875.94,30.56
5292909,-0.01,-0.08,0.9,3.36,4.94,0.73,875.98,30.56
5292947,-0.01,-0.09,0.9,3.36,5.68,0.49,875.95,30.55
5292985,-0.01,-0.09,0.86,3.23,5.8,0.61,875.92,30.55
5293023,-0.02,-0.08,0.89,3.3,4.76,0.37,875.97,30.55
5293062,-0.01,-0.09,0.86,3.23,5.31,0.31,875.93,30.55
5293100,-0.0,-0.08,0.87,3.05,4.64,0.12,875.98,30.55
5293138,-0.02,-0.09,0.84,3.05,5.07,0.12,876.0,30.56
5293176,-0.02,-0.09,0.85,2.99,4.46,0.24,875.96,30.56
5293226,-0.02,-0.09,0.86,3.05,4.94,0.06,876.0,30.54
5293264,-0.0,-0.09,0.86,2.81,4.46,-0.06,875.97,30.56
5293302,-0.02,-0.09,0.85,2.62,4.52,-0.18,875.97,30.54
5293340,-0.02,-0.09,0.83,2.44,4.33,-0.12,875.91,30.55
5293379,-0.0,-0.08,0.86,2.14,4.33,-0.12,875.96,30.55
5293417,-0.01,-0.09,0.87,1.83,4.15,-0.31,876.02,30.55
5293455,-0.03,-0.08,0.9,1.77,4.09,-0.24,876.02,30.57
5293493,-0.03,-0.09,0.94,1.95,3.85,-0.24,875.98,30.55
5293531,-0.02,-0.09,0.94,1.83,4.27,-0.37,876.02,30.53
5293607,-0.02,-0.08,0.97,1.77,4.03,-0.24,875.96,30.51
5293645,-0.03,-0.09,0.93,1.59,4.39,-0.24,876.06,30.53
5293684,-0.03,-0.08,0.96,1.71,4.21,-0.24,876.04,30.53
5293773,-0.03,-0.09,0.97,1.95,4.33,-0.24,876.09,30.5
5293812,-0.02,-0.07,1.01,2.01,4.03,-0.43,876.04,30.51
5293850,-0.01,-0.09,1.01,1.95,4.03,-0.43,876.13,30.52
5293888,-0.02,-0.08,1.03,1.71,3.48,-0.24,876.11,30.51
5293926,-0.03,-0.07,1.05,1.59,3.42,-0.12,876.07,30.52
5293964,-0.02,-0.08,1.02,1.53,3.3,-0.24,876.07,30.51
5294003,-0.02,-0.07,1.06,1.53,2.62,-0.24,876.11,30.51
5294053,-0.03,-0.08,1.06,1.53,2.81,-0.12,876.1,30.52
5294091,-0.03,-0.08,1.07,1.53,2.44,-0.06,876.14,30.51
5294129,-0.03,-0.07,1.08,1.59,2.56,-0.24,876.09,30.52
5294167,-0.03,-0.08,1.05,2.01,2.69,-0.31,876.11,30.52
5294205,-0.01,-0.08,1.04,1.89,2.5,-0.12,876.2,30.54
5294243,-0.03,-0.08,1.04,2.2,2.44,-0.24,876.13,30.52
5294282,-0.03,-0.08,1.04,2.2,2.38,-0.12,876.14,30.53
5294320,-0.03,-0.08,1.04,2.32,1.83,-0.06,876.17,30.53
5294358,-0.03,-0.09,1.01,2.38,2.32,-0.12,876.2,30.53
5294408,-0.04,-0.08,1.02,2.44,2.44,-0.06,876.22,30.54
5294446,-0.03,-0.09,1.0,2.62,3.11,-0.06,876.21,30.53
5294484,-0.04,-0.09,0.94,2.62,3.11,0.0,876.23,30.55
5294522,-0.04,-0.08,0.94,2.99,3.54,-0.06,876.16,30.54
5294560,-0.03,-0.09,0.89,2.62,3.48,0.0,876.17,30.54
5294598,-0.03,-0.08,0.93,2.2,2.93,0.0,876.16,30.54
5294637,-0.04,-0.08,0.94,2.26,2.75,0.12,876.22,30.54
5294675,-0.03,-0.08,0.99,2.14,1.65,0.24,876.21,30.55
5294713,-0.04,-0.08,0.99,1.83,1.65,0.37,876.22,30.55
5294751,-0.04,-0.08,1.02,1.83,1.04,0.43,876.22,30.54
5294801,-0.05,-0.08,1.03,2.26,1.16,0.61,876.24,30.54
5294839,-0.03,-0.08,1.01,2.26,0.67,0.55,876.26,30.54
5294877,-0.05,-0.07,1.04,2.32,0.06,0.67,876.24,30.54
5294915,-0.05,-0.08,1.01,2.44,0.67,0.73,876.25,30.55
5294953,-0.04,-0.08,1.02,2.26,0.31,0.85,876.28,30.54
5294992,-0.04,-0.08,0.99,2.5,0.37,0.98,876.27,30.56
5295030,-0.05,-0.08,1.01,2.69,0.55,0.98,876.35,30.56
5295068,-0.04,-0.09,0.99,2.69,1.1,1.16,876.36,30.56
5295106,-0.03,-0.08,0.98,2.62,0.31,1.16,876.37,30.57
5295144,-0.05,-0.08,0.98,2.69,0.79,1.34,876.32,30.56
5295194,-0.04,-0.08,0.94,2.44,0.12,1.4,876.3,30.56
5295232,-0.04,-0.07,0.96,2.5,0.67,1.53,876.32,30.56
5295270,-0.04,-0.09,0.95,2.01,0.31,1.46,876.34,30.56
5295308,-0.05,-0.09,0.97,1.95,0.98,1.65,876.28,30.56
5295346,-0.04,-0.09,0.96,1.95,1.04,1.53,876.39,30.57
5295384,-0.04,-0.08,0.97,2.08,1.16,1.59,876.38,30.57
5295423,-0.03,-0.08,0.96,1.89,1.95,1.46,876.38,30.56
5295461,-0.03,-0.09,0.97,1.83,2.32,1.46,876.42,30.56
5295499,-0.04,-0.08,0.97,1.95,2.14,1.53,876.38,30.56
5295549,-0.03,-0.09,0.97,1.83,2.32,1.71,876.37,30.55
5295587,-0.04,-0.08,0.97,1.83,1.83,1.65,876.48,30.57
5295625,-0.03,-0.08,0.98,1.95,1.71,1.71,876.4,30.55
5295663,-0.03,-0.08,0.99,2.14,1.89,1.53,876.45,30.56
5295701,-0.04,-0.09,0.94,2.2,2.38,1.71,876.44,30.56
5295740,-0.04,-0.08,0.91,2.56,2.56,1.59,876.44,30.55
5295778,-0.04,-0.08,0.91,2.38,3.11,1.77,876.55,30.55
5295816,-0.03,-0.1,0.81,2.32,4.03,1.59,876.54,30.56
5295854,-0.04,-0.07,0.81,2.44,3.17,1.59,876.49,30.54
5295892,-0.05,-0.08,0.83,2.56,5.31,1.65,876.52,30.54
5295942,-0.01,-0.09,0.85,2.38,4.64,1.53,876.5,30.53
5295980,-0.02,-0.08,0.93,2.32,5.49,1.46,876.5,30.54
5296018,-0.02,-0.09,0.88,2.14,5.8,1.4,876.57,30.55
5296056,-0.03,-0.07,0.95,1.89,6.35,1.53,876.54,30.54
5296095,-0.02,-0.08,0.95,2.2,6.29,1.4,876.55,30.54
5296133,-0.03,-0.09,0.98,1.95,5.49,1.53,876.58,30.55
5296171,-0.02,-0.08,0.96,1.83,5.98,1.4,876.58,30.54
5296209,-0.02,-0.08,0.98,2.08,5.43,1.46,876.6,30.56
5296247,-0.02,-0.08,0.99,2.14,4.46,1.46,876.57,30.54
5296297,-0.03,-0.08,1.02,2.2,3.85,1.59,876.6,30.55
5296335,-0.02,-0.08,1.01,2.2,3.78,1.46,876.64,30.55
5296373,-0.02,-0.08,1.0,2.2,3.48,1.46,876.63,30.55
5296411,-0.03,-0.08,1.01,2.32,2.99,1.46,876.62,30.56
5296450,-0.02,-0.08,0.98,2.2,2.93,1.53,876.72,30.56
5296488,-0.03,-0.08,0.98,2.2,3.23,1.34,876.67,30.55
5296526,-0.03,-0.08,0.98,2.44,3.36,1.28,876.74,30.55
5296564,-0.03,-0.08,0.96,2.38,3.3,1.4,876.7,30.55
5296602,-0.03,-0.08,0.96,2.44,3.3,1.34,876.74,30.56
5296640,-0.03,-0.08,0.92,2.2,2.99,1.22,876.67,30.55
5296716,-0.03,-0.08,0.94,2.14,3.42,1.16,876.75,30.52
5296754,-0.02,-0.08,0.95,2.14,3.3,1.22,876.75,30.53
5296793,-0.03,-0.08,0.96,2.01,2.99,1.16,876.81,30.54
5296882,-0.02,-0.08,1.02,2.14,4.27,1.1,876.79,30.5
5296920,-0.03,-0.08,1.01,2.2,4.76,1.1,876.76,30.51
5296958,-0.05,-0.07,1.01,2.5,4.76,1.16,876.86,30.51
5296997,-0.03,-0.08,0.97,2.56,5.62,1.1,876.77,30.52
5297035,-0.03,-0.08,1.0,2.5,5.49,0.98,876.77,30.52
5297073,-0.04,-0.08,1.0,2.69,5.07,1.1,876.83,30.53
5297111,-0.03,-0.09,0.96,2.69,5.19,1.22,876.85,30.51
5297161,-0.02,-0.08,0.99,2.56,5.55,0.85,876.83,30.51
5297199,-0.02,-0.09,0.99,2.56,5.25,1.16,876.84,30.51
5297237,-0.03,-0.09,0.97,2.38,5.13,1.16,876.85,30.51
5297275,-0.03,-0.08,0.97,2.32,5.25,1.04,876.87,30.51
5297314,-0.02,-0.08,0.96,2.26,5.8,1.04,876.86,30.53
5297352,-0.03,-0.08,0.97,2.08,5.25,0.98,876.88,30.51
5297390,-0.05,-0.08,0.97,2.14,4.94,0.98,876.91,30.53
5297428,-0.02,-0.09,0.98,2.01,4.94,0.85,876.93,30.51
5297466,-0.02,-0.08,0.99,2.14,5.31,0.98,876.93,30.53
5297516,-0.02,-0.08,0.98,2.26,4.76,1.22,876.93,30.52
5297554,-0.03,-0.08,0.99,2.2,3.97,0.92,876.95,30.53
5297592,-0.03,-0.09,1.0,2.32,4.09,1.1,876.9,30.53
5297630,-0.03,-0.09,0.99,2.26,3.48,1.04,876.94,30.53
5297669,-0.03,-0.08,1.0,2.08,3.17,0.98,876.94,30.53
5297707,-0.03,-0.08,0.98,2.01,3.05,0.92,877.01,30.54
5297745,-0.03,-0.08,1.01,2.01,2.87,1.1,877.02,30.54
5297783,-0.03,-0.09,0.99,2.01,3.05,0.98,877.01,30.53
5297821,-0.04,-0.08,1.0,1.89,2.81,0.98,877.01,30.54
5297859,-0.05,-0.09,0.98,2.08,3.23,0.98,876.97,30.54
5297909,-0.04,-0.08,0.99,2.01,2.93,1.04,876.99,30.52
5297947,-0.03,-0.08,1.01,2.08,2.99,0.98,877.03,30.54
5297985,-0.04,-0.08,0.99,2.2,2.87,1.1,877.04,30.54
5298023,-0.04,-0.08,1.0,2.32,3.05,1.04,877.0,30.53
5298062,-0.03,-0.09,0.97,2.38,3.66,1.04,877.09,30.54
5298100,-0.04,-0.08,0.99,2.38,3.72,1.16,877.09,30.54
5298138,-0.04,-0.09,0.95,2.32,4.76,1.28,877.05,30.53
5298176,-0.04,-0.1,0.91,2.38,5.13,1.1,877.1,30.52
5298214,-0.04,-0.07,0.92,2.69,4.94,1.16,877.09,30.53
5298252,-0.04,-0.09,0.88,2.62,5.19,1.1,877.1,30.54
5298302,-0.03,-0.08,0.86,2.69,4.58,1.22,877.12,30.52
5298340,-0.04,-0.08,0.84,2.93,4.27,1.28,877.1,30.53
5298378,-0.03,-0.09,0.83,2.69,3.54,1.59,877.09,30.53
5298416,-0.04,-0.08,0.8,2.56,3.66,1.34,877.13,30.53
5298455,-0.04,-0.08,0.82,2.26,3.6,1.46,877.14,30.54
5298493,-0.03,-0.1,0.85,2.08,3.54,1.59,877.18,30.54
5298531,-0.02,-0.09,0.87,1.83,3.05,1.59,877.16,30.55
5298569,-0.03,-0.09,0.89,1.83,3.36,1.71,877.22,30.54
5298607,-0.03,-0.09,0.88,1.59,3.3,1.59,877.2,30.54
5298657,-0.04,-0.09,0.93,1.77,3.23,1.65,877.23,30.54
5298695,-0.03,-0.09,0.92,1.77,3.66,1.77,877.22,30.53
5298733,-0.03,-0.08,0.96,1.46,3.17,1.59,877.24,30.52
5298772,-0.03,-0.08,0.99,1.53,2.87,1.71,877.25,30.53
5298810,-0.04,-0.08,1.02,1.59,2.32,1.59,877.23,30.53
5298848,-0.04,-0.08,1.06,1.34,2.62,1.65,877.2,30.53
5298886,-0.02,-0.09,1.09,1.34,2.62,1.59,877.27,30.53
5298924,-0.03,-0.08,1.1,1.04,2.01,1.53,877.26,30.52
5298962,-0.03,-0.08,1.12,1.04,2.14,1.59,877.27,30.53
5299000,-0.03,-0.08,1.16,1.4,2.62,1.53,877.26,30.52
5299050,-0.04,-0.08,1.17,1.53,2.75,1.59,877.33,30.54
5299088,-0.03,-0.08,1.17,1.77,2.5,1.53,877.32,30.53
5299127,-0.03,-0.08,1.15,1.89,2.5,1.65,877.34,30.51
5299165,-0.03,-0.08,1.14,2.14,3.05,1.46,877.4,30.53
5299203,-0.03,-0.08,1.11,2.14,2.99,1.65,877.34,30.53
5299241,-0.04,-0.08,1.12,2.14,2.14,1.71,877.41,30.52
5299279,-0.03,-0.09,1.1,2.2,2.69,1.53,877.38,30.53
5299317,-0.03,-0.09,1.11,2.2,2.62,1.59,877.3,30.52
5299355,-0.03,-0.09,1.09,2.32,2.75,1.65,877.41,30.52
5299394,-0.02,-0.09,1.09,2.38,1.83,1.46,877.41,30.54
5299443,-0.03,-0.09,1.08,2.2,2.38,1.53,877.36,30.51
5299482,-0.02,-0.08,1.11,2.01,2.14,1.46,877.42,30.51
5299520,-0.02,-0.08,1.1,1.95,2.32,1.4,877.4,30.52
5299558,-0.04,-0.08,1.1,1.71,2.44,1.59,877.43,30.52
5299596,-0.03,-0.09,1.11,1.89,2.62,1.65,877.5,30.53
5299634,-0.03,-0.1,1.09,1.83,1.95,1.4,877.4,30.52
5299672,-0.04,-0.09,1.07,1.83,1.95,1.59,877.48,30.51
5299710,-0.03,-0.09,1.05,1.95,2.62,1.46,877.45,30.53
5299749,-0.03,-0.09,1.02,1.77,2.2,1.4,877.49,30.53
5299825,-0.04,-0.09,0.99,1.71,2.44,1.53,877.48,30.49
5299863,-0.04,-0.09,1.0,1.53,3.36,1.53,877.52,30.52
5299901,-0.02,-0.1,0.98,1.46,3.23,1.4,877.54,30.51
5299990,-0.05,-0.1,0.99,1.04,3.36,1.77,877.5,30.47
5300029,-0.03,-0.08,1.08,1.04,2.99,1.71,877.57,30.49
5300067,-0.04,-0.1,1.05,1.28,2.93,1.77,877.57,30.5
5300105,-0.03,-0.1,1.05,1.04,2.56,1.77,877.57,30.51
5300143,-0.03,-0.09,1.07,1.34,3.17,1.83,877.56,30.49
5300181,-0.03,-0.1,1.07,1.16,2.62,1.83,877.55,30.49
5300219,-0.04,-0.09,1.05,1.34,3.11,1.77,877.57,30.5
5300269,-0.04,-0.09,0.97,1.53,4.33,1.71,877.61,30.5
5300307,-0.03,-0.09,0.99,1.65,3.78,1.65,877.63,30.51
5300345,-0.03,-0.11,0.94,1.53,3.97,1.71,877.64,30.51
5300384,-0.03,-0.09,0.95,1.53,4.15,1.83,877.64,30.51
5300422,-0.02,-0.1,0.96,1.53,4.82,1.83,877.61,30.53
5300460,-0.03,-0.1,0.98,1.53,3.48,1.77,877.65,30.52
5300498,-0.02,-0.1,1.01,1.65,3.23,1.95,877.65,30.52
5300536,-0.03,-0.11,1.0,1.65,3.48,1.65,877.66,30.52
5300574,-0.03,-0.1,1.05,1.71,4.21,1.71,877.61,30.52
5300613,-0.01,-0.11,0.98,1.59,4.21,1.59,877.68,30.51
5300662,-0.03,-0.09,1.02,1.89,4.15,1.53,877.68,30.5
5300701,-0.01,-0.1,0.99,1.65,5.07,1.53,877.67,30.5
5300739,-0.01,-0.1,1.04,1.34,4.21,1.46,877.74,30.51
5300777,-0.03,-0.1,1.02,1.46,4.09,1.46,877.69,30.5
5300815,-0.02,-0.1,1.02,1.34,4.15,1.34,877.68,30.51
5300853,-0.02,-0.1,1.04,1.28,4.82,1.34,877.72,30.51
5300891,-0.02,-0.1,0.98,1.1,4.46,1.46,877.74,30.5
5300929,-0.02,-0.1,0.96,1.04,4.46,1.4,877.71,30.51
5300968,-0.04,-0.1,0.96,0.92,3.72,1.28,877.71,30.52
5301018,-0.01,-0.11,0.97,0.85,4.21,1.22,877.74,30.5
5301056,-0.03,-0.11,1.0,0.73,3.54,1.28,877.76,30.51
5301094,-0.03,-0.1,1.02,1.1,3.72,1.34,877.72,30.49
5301132,-0.01,-0.1,1.05,1.04,3.91,1.4,877.74,30.5
5301170,-0.02,-0.1,1.03,0.92,4.94,1.16,877.74,30.5
5301208,-0.03,-0.09,1.05,1.16,4.7,1.16,877.79,30.52
5301246,-0.02,-0.1,1.04,1.28,5.31,1.1,877.78,30.51
5301285,-0.02,-0.1,1.03,1.04,5.37,1.1,877.76,30.52
5301323,-0.03,-0.09,1.04,0.79,5.74,1.1,877.77,30.52
5301361,-0.01,-0.1,1.1,1.04,5.37,1.1,877.71,30.52
5301411,-0.02,-0.1,1.12,1.1,5.68,1.04,877.67,30.52
5301449,-0.03,-0.09,1.14,1.22,4.7,1.16,877.66,30.52
5301487,-0.03,-0.1,1.17,1.46,4.88,1.1,877.58,30.52
5301525,-0.02,-0.11,1.14,1.46,4.46,1.1,877.64,30.52
5301563,-0.03,-0.09,1.15,1.65,4.09,0.85,877.59,30.52
5301602,-0.04,-0.09,1.09,1.53,4.7,1.22,877.61,30.52
5301640,-0.02,-0.09,1.14,1.89,4.15,1.04,877.64,30.53
5301678,-0.05,-0.1,1.09,2.2,4.58,1.04,877.61,30.52
5301716,-0.05,-0.1,1.08,2.01,3.97,1.16,877.66,30.54
5301754,-0.03,-0.09,1.09,2.01,4.64,0.98,877.68,30.53
5301804,-0.03,-0.1,1.05,2.14,4.39,1.16,877.61,30.52
5301842,-0.01,-0.1,1.05,1.89,4.76,1.4,877.66,30.52
5301881,-0.02,-0.1,0.99,1.83,4.52,1.34,877.67,30.54
5301919,-0.04,-0.09,1.01,1.65,3.91,1.28,877.63,30.52
5301957,-0.05,-0.1,0.96,1.77,4.15,1.22,877.7,30.54
5301995,-0.03,-0.1,0.94,1.46,5.31,1.4,877.72,30.53
5302033,-0.02,-0.1,0.92,1.34,5.13,1.22,877.64,30.53
5302071,-0.04,-0.1,0.93,1.34,4.88,1.28,877.62,30.54
5302109,-0.02,-0.1,0.95,1.28,5.55,1.53,877.71,30.54
5302159,-0.03,-0.11,0.99,1.4,5.86,1.22,877.72,30.54
5302197,-0.03,-0.1,0.98,1.65,6.23,1.4,877.71,30.54
5302236,-0.04,-0.1,1.02,1.83,5.55,1.4,877.68,30.54
5302274,-0.02,-0.1,0.98,1.77,5.43,1.34,877.76,30.55
5302312,-0.0,-0.09,1.01,1.65,4.76,1.22,877.73,30.54
5302350,-0.02,-0.1,0.97,1.71,5.19,1.46,877.7,30.54
5302388,-0.02,-0.1,0.97,1.77,3.78,1.53,877.65,30.54
5302427,-0.01,-0.09,0.97,1.59,5.19,1.46,877.68,30.55
5302465,-0.02,-0.1,1.0,1.65,3.91,1.46,877.74,30.55
5302503,-0.03,-0.09,1.02,1.65,4.09,1.46,877.72,30.55
5302553,-0.02,-0.1,1.01,1.4,3.78,1.4,877.73,30.53
5302591,-0.01,-0.09,1.05,1.34,4.09,1.34,877.67,30.55
5302629,-0.04,-0.1,1.02,1.34,3.05,1.53,877.73,30.54
5302667,-0.02,-0.1,1.05,1.34,3.48,1.46,877.78,30.56
5302705,-0.03,-0.1,1.04,1.46,2.99,1.28,877.76,30.55
5302744,-0.02,-0.09,1.07,1.22,2.62,1.4,877.71,30.55
5302782,-0.02,-0.1,1.03,1.22,2.81,1.22,877.71,30.56
5302820,-0.04,-0.09,1.04,1.22,2.26,1.34,877.76,30.56
5302858,-0.03,-0.1,1.04,1.46,2.62,1.53,877.81,30.56
5302896,-0.02,-0.11,1.04,1.22,2.08,1.4,877.76,30.57
5302972,-0.02,-0.09,1.03,1.65,2.75,1.4,877.81,30.55
5303010,-0.03,-0.09,1.06,1.77,2.99,1.28,877.76,30.56
5303048,-0.03,-0.1,1.04,1.83,2.93,1.22,877.81,30.56
5303138,-0.03,-0.09,1.04,1.77,2.87,1.46,877.76,30.53
5303176,-0.01,-0.09,1.05,1.83,2.99,1.34,877.78,30.54
5303214,-0.03,-0.09,1.03,1.95,2.99,1.22,877.78,30.55
5303252,-0.03,-0.1,1.03,2.26,2.93,1.28,877.76,30.55
5303291,-0.01,-0.1,1.01,2.44,2.87,1.22,877.82,30.56
5303329,-0.02,-0.08,1.04,2.26,2.99,1.28,877.8,30.57
5303378,-0.03,-0.1,0.98,2.62,2.32,1.22,877.79,30.56
5303417,-0.02,-0.1,1.0,2.75,2.2,1.1,877.81,30.55
5303455,-0.02,-0.1,0.96,2.69,2.2,1.04,877.88,30.57
5303493,-0.01,-0.09,0.98,2.81,1.46,1.22,877.84,30.57
5303531,-0.03,-0.09,0.94,2.87,2.01,1.28,877.84,30.57
5303569,-0.03,-0.09,0.92,2.87,1.59,1.04,877.82,30.57
5303608,-0.03,-0.09,0.93,2.93,1.77,1.04,877.85,30.58
5303646,-0.02,-0.1,0.91,3.05,1.83,0.98,877.86,30.58
5303684,-0.02,-0.09,0.9,2.99,1.71,0.85,877.83,30.59
5303722,-0.02,-0.09,0.87,2.93,2.14,0.92,877.82,30.58
5303772,-0.01,-0.09,0.9,3.05,2.08,0.98,877.84,30.57
5303810,-0.03,-0.1,0.86,3.11,2.5,0.79,877.8,30.57
5303848,-0.02,-0.09,0.86,2.93,2.26,0.98,877.87,30.59
5303886,-0.01,-0.09,0.85,3.17,3.11,0.67,877.89,30.59
5303925,-0.02,-0.09,0.81,3.05,2.93,0.73,877.85,30.58
5303963,-0.03,-0.09,0.83,3.05,3.17,0.61,877.89,30.58
5304001,-0.02,-0.1,0.78,2.87,3.3,0.49,877.83,30.59
5304039,-0.02,-0.09,0.8,2.56,3.05,0.67,877.84,30.59
5304077,-0.03,-0.09,0.81,2.75,2.99,0.61,877.83,30.6
5304115,-0.02,-0.1,0.76,2.5,3.17,0.43,877.85,30.6
5304165,-0.03,-0.08,0.8,2.5,1.1,0.61,877.93,30.59
5304203,-0.02,-0.1,0.76,2.38,1.34,0.67,877.89,30.6
5304242,-0.02,-0.09,0.78,2.26,0.43,0.55,877.88,30.59
5304280,-0.02,-0.09,0.79,2.32,0.98,0.55,877.88,30.6
5304318,-0.03,-0.1,0.77,2.2,0.37,0.55,877.88,30.58
5304356,-0.01,-0.09,0.84,2.26,0.61,0.61,877.88,30.6
5304394,-0.01,-0.11,0.83,2.32,1.34,0.49,877.89,30.6
5304432,-0.02,-0.1,0.86,2.2,1.22,0.31,877.9,30.6
5304471,-0.02,-0.1,0.85,2.26,1.77,0.43,877.92,30.59
5304520,-0.04,-0.1,0.81,2.62,2.14,0.12,878.03,30.58
5304559,-0.01,-0.09,0.8,2.44,2.32,0.12,877.91,30.6
5304597,-0.01,-0.09,0.81,2.32,2.26,0.18,878.0,30.6
5304635,-0.02,-0.1,0.76,2.44,3.17,0.06,877.91,30.6
5304673,-0.03,-0.1,0.83,2.62,2.81,0.12,877.96,30.6
5304711,-0.02,-0.1,0.84,2.62,3.11,-0.06,877.98,30.61
5304749,-0.03,-0.09,0.86,2.38,3.11,0.06,877.99,30.6
5304788,-0.03,-0.09,0.86,2.01,3.72,0.12,878.05,30.62
5304826,-0.02,-0.09,0.86,2.2,3.42,0.0,877.98,30.59
5304864,-0.03,-0.09,0.87,2.08,4.03,0.06,878.05,30.6
5304914,-0.03,-0.09,0.89,2.2,3.48,0.24,878.04,30.6
5304952,-0.02,-0.09,0.9,2.08,4.27,0.37,878.05,30.61
5304990,-0.03,-0.1,0.92,1.95,4.15,0.24,878.02,30.59
5305028,-0.04,-0.09,0.93,2.01,3.97,0.24,878.02,30.59
5305066,-0.03,-0.1,0.91,2.01,3.97,0.37,878.1,30.63
5305105,-0.02,-0.09,0.93,1.77,4.21,0.24,878.04,30.59
5305143,-0.03,-0.09,0.94,1.95,4.39,0.37,878.14,30.6
5305181,-0.04,-0.1,0.96,1.83,3.97,0.55,878.15,30.62
5305219,-0.04,-0.1,0.96,1.95,4.21,0.37,878.11,30.6
5305257,-0.04,-0.09,0.97,1.95,4.39,0.49,878.15,30.61
5305307,-0.03,-0.09,0.97,2.01,4.39,0.73,878.13,30.6
5305345,-0.04,-0.09,0.99,2.01,4.33,0.79,878.13,30.61
5305383,-0.03,-0.09,1.01,2.08,4.64,0.79,878.13,30.59
5305421,-0.02,-0.09,1.01,2.2,4.7,0.79,878.18,30.6
5305460,-0.04,-0.09,0.99,2.26,4.76,0.98,878.15,30.61
5305498,-0.04,-0.09,0.97,2.5,4.64,0.98,878.18,30.6
5305536,-0.03,-0.09,0.96,2.69,5.0,0.92,878.24,30.6
5305574,-0.05,-0.09,0.94,2.5,5.13,0.85,878.23,30.61
5305612,-0.03,-0.09,0.93,2.62,4.94,1.34,878.24,30.62
5305662,-0.04,-0.1,0.93,2.75,5.0,1.16,878.23,30.6
5305700,-0.04,-0.1,0.94,2.75,4.94,1.34,878.26,30.61
5305738,-0.03,-0.1,0.95,2.5,5.0,1.59,878.3,30.62
5305777,-0.04,-0.1,0.94,2.44,5.13,1.46,878.28,30.61
5305815,-0.04,-0.09,0.96,2.38,5.19,1.53,878.34,30.61
5305853,-0.04,-0.09,0.95,2.38,5.19,1.65,878.4,30.62
5305891,-0.04,-0.1,0.95,2.44,5.0,1.83,878.27,30.62
5305929,-0.03,-0.09,0.96,2.32,5.25,1.89,878.29,30.6
5305968,-0.04,-0.09,0.97,2.26,5.19,1.83,878.34,30.61
5306006,-0.03,-0.1,0.97,2.26,5.13,2.01,878.39,30.61
5306083,-0.04,-0.09,0.97,2.32,5.43,2.08,878.36,30.58
5306121,-0.03,-0.1,0.95,2.2,5.49,2.14,878.41,30.59
5306159,-0.03,-0.09,0.95,2.26,5.19,2.2,878.46,30.6
5306249,-0.03,-0.1,0.97,2.08,5.55,2.32,878.47,30.58
5306287,-0.04,-0.09,0.99,2.2,5.25,2.32,878.43,30.58
5306325,-0.05,-0.1,0.98,2.08,5.55,2.5,878.44,30.58
5306363,-0.03,-0.09,1.0,2.01,5.68,2.44,878.42,30.59
5306401,-0.03,-0.1,0.99,2.01,5.74,2.44,878.43,30.58
5306440,-0.03,-0.1,1.0,1.95,5.37,2.56,878.44,30.57
5306478,-0.03,-0.09,1.03,2.08,5.19,2.56,878.51,30.59
5306527,-0.02,-0.1,1.0,1.89,5.62,2.44,878.53,30.57
5306566,-0.03,-0.09,1.02,1.83,5.49,2.69,878.48,30.58
5306604,-0.02,-0.1,1.02,1.71,5.68,2.5,878.49,30.58
5306642,-0.01,-0.1,1.01,1.95,5.74,2.38,878.53,30.6
5306680,-0.03,-0.1,1.0,2.01,5.98,2.32,878.56,30.59
5306718,-0.01,-0.1,1.0,2.14,5.62,2.32,878.49,30.59
5306756,-0.02,-0.09,1.0,2.01,6.23,2.32,878.57,30.6
5306795,-0.02,-0.1,1.01,1.95,6.29,2.2,878.61,30.6
5306833,-0.02,-0.1,1.03,2.08,5.37,2.38,878.52,30.61
5306883,-0.01,-0.1,1.02,2.08,5.55,2.32,878.58,30.59
5306921,-0.0,-0.09,1.04,2.01,5.55,2.14,878.57,30.6
5306959,-0.02,-0.11,1.01,2.01,5.31,1.95,878.61,30.6
5306997,-0.02,-0.1,1.0,2.08,4.76,1.95,878.65,30.6
5307035,-0.01,-0.09,1.0,2.14,4.82,2.08,878.62,30.59
5307074,-0.01,-0.1,1.01,2.14,5.0,1.83,878.66,30.6
5307112,-0.0,-0.1,1.01,2.2,4.76,1.77,878.68,30.6
5307150,-0.02,-0.09,1.04,2.38,4.15,1.65,878.71,30.61
5307188,-0.01,-0.1,1.01,2.38,4.39,1.89,878.67,30.6
5307226,-0.01,-0.09,1.01,2.2,4.33,1.59,878.71,30.61
5307276,-0.01,-0.09,0.99,2.2,4.03,1.53,878.64,30.58
5307314,-0.0,-0.1,0.95,2.01,3.72,1.59,878.72,30.59
5307352,-0.01,-0.1,0.96,1.95,3.72,1.34,878.76,30.6
5307391,-0.0,-0.1,0.93,1.95,3.97,1.28,878.71,30.6
5307429,-0.01,-0.1,0.95,1.71,3.48,1.28,878.77,30.6
5307467,-0.01,-0.1,0.94,1.59,3.91,1.16,878.7,30.6
5307505,-0.01,-0.1,0.98,1.59,3.6,0.98,878.75,30.6
5307543,-0.01,-0.1,0.99,1.65,3.72,1.04,878.85,30.61
5307582,-0.01,-0.1,1.0,1.71,3.42,0.92,878.76,30.6
5307620,-0.0,-0.1,1.02,1.65,3.36,0.85,878.83,30.6
5307670,-0.0,-0.1,1.06,1.46,2.44,0.73,878.87,30.6
5307708,0.0,-0.1,1.09,1.65,2.56,0.61,878.81,30.6
5307746,-0.01,-0.09,1.08,1.34,1.65,0.67,878.91,30.62
5307784,0.0,-0.1,1.09,1.53,1.59,0.55,878.9,30.62
5307822,-0.0,-0.1,1.08,1.53,1.46,0.37,878.88,30.61
5307860,-0.01,-0.1,1.07,1.59,1.46,0.37,878.93,30.61
5307899,-0.02,-0.1,1.03,1.71,1.16,0.24,878.92,30.61
5307937,-0.02,-0.09,1.02,1.83,1.22,0.37,878.88,30.62
5307975,-0.01,-0.1,1.01,1.83,0.79,0.31,878.93,30.61
5308025,-0.01,-0.1,1.0,1.89,0.79,0.18,878.94,30.59
5308063,-0.0,-0.1,0.97,2.32,1.4,0.06,879.02,30.62
5308101,-0.01,-0.1,0.97,2.44,1.71,0.12,878.92,30.6
5308139,-0.03,-0.1,0.95,2.44,1.77,0.0,878.93,30.6
5308177,-0.01,-0.1,0.94,2.5,2.08,-0.12,878.94,30.6
5308216,-0.02,-0.1,0.94,2.38,2.62,0.0,878.99,30.61
5308254,-0.02,-0.09,0.96,2.5,2.62,0.0,878.96,30.61
5308292,-0.01,-0.1,0.94,2.44,2.62,0.0,879.0,30.62
5308330,-0.02,-0.1,0.95,2.5,2.62,0.12,879.02,30.62
5308368,-0.02,-0.09,0.96,2.56,2.93,0.06,879.05,30.61
5308418,-0.02,-0.09,0.95,2.81,3.23,0.0,879.06,30.59
5308456,-0.02,-0.1,0.95,2.87,3.11,0.06,879.08,30.6
5308494,-0.03,-0.1,0.92,3.05,2.99,0.12,879.06,30.6
5308532,-0.01,-0.09,0.92,2.93,3.11,-0.06,879.08,30.6
5308571,-0.02,-0.1,0.89,2.81,3.72,-0.06,879.08,30.61
5308609,-0.01,-0.1,0.9,2.69,3.54,0.06,879.09,30.62
5308647,-0.01,-0.1,0.89,2.93,3.72,0.0,879.1,30.62
5308685,-0.03,-0.1,0.85,2.75,4.33,0.0,879.1,30.6
5308723,-0.02,-0.1,0.84,2.87,4.58,-0.06,879.06,30.6
5308762,-0.03,-0.09,0.84,2.75,4.88,0.0,879.18,30.62
5308811,-0.03,-0.1,0.84,2.5,5.13,0.06,879.16,30.6
5308850,-0.03,-0.1,0.84,2.26,5.43,0.0,879.12,30.6
5308888,-0.02,-0.1,0.86,2.2,5.86,0.06,879.11,30.61
5308926,-0.02,-0.1,0.88,1.95,5.31,0.06,879.19,30.61
5308964,-0.03,-0.09,0.88,2.2,4.82,0.0,879.17,30.61
5309002,-0.02,-0.12,0.92,2.2,4.64,0.12,879.19,30.61
5309040,-0.01,-0.11,0.89,2.08,4.52,0.12,879.25,30.61
5309079,-0.02,-0.09,0.9,1.89,3.3,0.31,879.21,30.62
5309117,-0.03,-0.1,0.88,1.71,3.6,0.43,879.21,30.61
5309193,-0.04,-0.09,0.91,1.16,3.54,0.31,879.2,30.58
5309231,-0.02,-0.1,0.91,0.73,3.48,0.43,879.29,30.59
5309269,-0.03,-0.1,0.94,0.61,3.78,0.49,879.3,30.59
5309359,-0.02,-0.09,1.01,0.24,3.36,0.43,879.27,30.56
5309397,-0.02,-0.1,0.98,0.43,3.85,0.49,879.27,30.59
5309435,-0.02,-0.1,1.07,0.43,3.91,0.24,879.33,30.6
5309473,-0.02,-0.11,1.05,0.43,4.88,0.37,879.32,30.59
5309511,-0.03,-0.1,1.11,0.67,4.76,0.43,879.37,30.6
5309549,-0.04,-0.09,1.13,0.61,5.37,0.24,879.39,30.6
5309588,-0.03,-0.1,1.13,0.49,4.94,0.18,879.36,30.6
5309638,-0.01,-0.1,1.19,0.43,4.64,0.18,879.37,30.59
5309676,-0.01,-0.1,1.16,0.37,4.64,0.06,879.37,30.6
5309714,-0.01,-0.11,1.18,0.67,5.13,0.0,879.4,30.61
5309752,-0.01,-0.09,1.17,0.79,4.64,-0.12,879.42,30.6
5309790,-0.03,-0.09,1.15,0.73,5.43,0.0,879.48,30.61
5309828,-0.04,-0.1,1.15,0.98,4.58,0.06,879.46,30.62
5309866,-0.04,-0.1,1.16,0.85,4.39,-0.18,879.51,30.62
5309905,-0.02,-0.1,1.14,1.16,3.72,-0.06,879.48,30.62
5309943,-0.01,-0.09,1.15,1.04,3.97,-0.18,879.47,30.61
5309993,-0.02,-0.1,1.15,1.04,3.48,-0.06,879.57,30.61
5310031,-0.04,-0.1,1.16,1.22,3.17,-0.06,879.54,30.62
5310069,-0.04,-0.11,1.12,1.34,3.17,-0.12,879.53,30.62
5310107,-0.03,-0.1,1.15,1.34,2.56,-0.24,879.52,30.62
5310145,-0.04,-0.1,1.13,1.34,3.05,-0.18,879.55,30.61
5310183,-0.04,-0.1,1.11,1.4,3.11,-0.12,879.56,30.62
5310222,-0.05,-0.1,1.08,1.4,2.62,-0.24,879.55,30.63
5310260,-0.04,-0.09,1.09,1.28,2.01,-0.18,879.52,30.62
5310298,-0.04,-0.09,1.08,0.98,2.14,-0.06,879.63,30.64
5310336,-0.05,-0.1,1.1,1.1,2.32,-0.06,879.51,30.62
5310386,-0.04,-0.1,1.09,0.85,2.5,-0.06,879.56,30.61
5310424,-0.03,-0.1,1.12,1.16,2.62,0.0,879.59,30.61
5310462,-0.04,-0.1,1.1,0.92,2.75,0.06,879.62,30.62
5310500,-0.04,-0.1,1.08,0.67,2.99,0.06,879.62,30.62
5310538,-0.04,-0.09,1.1,0.67,2.81,0.18,879.61,30.63
5310577,-0.05,-0.1,1.1,0.61,2.93,0.12,879.61,30.62
5310615,-0.05,-0.1,1.07,0.79,3.36,0.06,879.65,30.62
5310653,-0.06,-0.1,1.1,0.79,3.42,0.24,879.61,30.63
5310691,-0.04,-0.11,1.07,0.73,4.94,0.06,879.66,30.64
5310729,-0.06,-0.09,1.1,0.49,3.72,0.18,879.67,30.63
5310779,-0.05,-0.1,1.07,0.85,5.25,0.24,879.72,30.63
5310817,-0.03,-0.1,1.11,0.92,4.03,0.43,879.76,30.62
5310855,-0.04,-0.09,1.11,1.34,5.07,0.31,879.69,30.63
5310893,-0.04,-0.1,1.08,1.53,3.91,0.37,879.76,30.63
5310932,-0.03,-0.09,1.13,1.59,3.91,0.37,879.76,30.63
5310970,-0.04,-0.1,1.09,2.14,3.97,0.37,879.75,30.63
5311008,-0.04,-0.09,1.08,2.26,3.6,0.55,879.75,30.62
5311046,-0.04,-0.1,1.05,2.44,3.23,0.49,879.7,30.62
5311084,-0.05,-0.1,1.02,2.56,2.99,0.67,879.76,30.63
5311134,-0.04,-0.1,1.0,2.08,3.11,0.55,879.77,30.62
5311172,-0.04,-0.09,1.02,2.32,2.56,0.55,879.75,30.63
5311211,-0.04,-0.1,0.99,2.2,2.87,0.55,879.74,30.62
5311249,-0.06,-0.1,0.96,2.14,2.69,0.55,879.77,30.64
5311287,-0.04,-0.09,0.98,2.14,3.11,0.55,879.76,30.62
5311325,-0.03,-0.11,0.97,2.26,3.42,0.67,879.74,30.63
5311363,-0.04,-0.09,0.97,2.08,2.81,0.67,879.79,30.63
5311402,-0.04,-0.1,0.97,2.01,3.05,0.67,879.77,30.63
5311440,-0.05,-0.1,0.96,2.01,2.87,0.85,879.78,30.63
5311478,-0.04,-0.09,0.97,1.95,2.99,0.73,879.79,30.63
5311528,-0.04,-0.11,0.94,1.89,2.62,0.79,879.83,30.62
5311566,-0.06,-0.1,0.91,2.01,2.75,0.85,879.85,30.63
5311604,-0.04,-0.1,0.9,1.89,2.5,0.92,879.79,30.62
5311642,-0.04,-0.1,0.92,1.89,2.81,0.92,879.86,30.63
5311681,-0.04,-0.1,0.94,1.71,2.62,0.98,879.81,30.63
5311719,-0.05,-0.1,0.95,1.59,2.56,0.85,879.85,30.63
5311757,-0.05,-0.1,1.0,1.65,3.17,0.92,879.89,30.64
5311795,-0.04,-0.1,1.0,1.46,2.81,0.92,879.87,30.63
5311833,-0.05,-0.09,1.03,1.83,3.17,1.04,879.91,30.64
5311871,-0.05,-0.11,0.99,2.14,3.97,1.1,879.91,30.63
5311921,-0.04,-0.1,1.0,2.32,3.97,0.92,879.86,30.62
5311960,-0.04,-0.09,0.97,2.62,3.66,1.1,879.89,30.64
5311998,-0.03,-0.1,0.94,2.69,3.97,1.28,879.9,30.64
5312036,-0.04,-0.09,0.94,2.81,3.85,1.16,879.9,30.64
5312074,-0.03,-0.09,0.96,2.69,4.33,1.28,879.88,30.63
5312112,-0.03,-0.1,0.95,2.99,3.72,1.22,879.88,30.64
5312150,-0.02,-0.1,0.94,2.99,3.54,1.1,879.92,30.65
5312189,-0.04,-0.1,0.93,2.75,3.17,1.28,879.94,30.64
5312227,-0.03,-0.1,0.94,2.56,3.42,1.4,879.96,30.64
5312303,-0.04,-0.1,0.91,2.14,2.62,1.34,879.96,30.6
5312341,-0.04,-0.1,0.89,2.32,3.97,1.4,879.98,30.63
5312379,-0.03,-0.1,0.86,2.14,3.42,1.46,879.98,30.63
5312468,-0.03,-0.1,0.78,2.32,3.91,1.34,880.01,30.59
5312507,-0.01,-0.1,0.78,2.14,5.07,1.34,879.98,30.6
5312545,-0.01,-0.11,0.76,2.14,4.58,1.22,879.95,30.6
5312583,-0.02,-0.1,0.78,2.01,4.27,1.28,879.97,30.61
5312621,-0.0,-0.1,0.8,1.89,3.42,1.16,880.03,30.62
5312659,-0.01,-0.1,0.82,1.53,3.72,1.16,880.0,30.62
5312698,-0.02,-0.11,0.79,1.46,3.3,0.92,880.06,30.62
5312747,-0.02,-0.09,0.84,1.34,2.87,1.1,880.12,30.62
5312785,-0.01,-0.1,0.83,1.22,2.62,0.73,880.02,30.62
5312824,-0.02,-0.12,0.87,1.46,2.56,0.85,880.07,30.62
5312862,-0.02,-0.1,0.87,1.53,2.69,0.79,880.03,30.62
5312900,-0.02,-0.1,0.88,1.59,2.14,0.61,880.08,30.63
5312938,-0.02,-0.1,0.92,1.53,1.77,0.55,880.04,30.62
5312976,-0.02,-0.1,0.95,1.59,2.01,0.73,880.05,30.63
5313014,-0.03,-0.1,0.93,1.71,2.08,0.67,880.11,30.62
5313052,-0.03,-0.09,0.98,1.71,1.59,0.37,880.19,30.63
5313090,-0.02,-0.1,0.98,1.89,2.32,0.55,880.12,30.63
5313140,-0.02,-0.1,0.98,1.59,2.38,0.31,880.12,30.61
5313178,-0.03,-0.1,1.04,1.77,2.93,0.18,880.17,30.63
5313216,-0.03,-0.11,1.02,1.65,2.93,0.12,880.19,30.63
5313255,-0.03,-0.09,1.07,1.53,2.81,0.37,880.15,30.62
5313293,-0.02,-0.1,1.07,1.77,3.48,0.18,880.2,30.63
5313331,-0.03,-0.1,1.07,1.59,3.17,0.06,880.26,30.63
5313369,-0.04,-0.1,1.07,1.83,3.3,0.18,880.24,30.63
5313407,-0.04,-0.1,1.04,2.01,3.36,0.24,880.3,30.64
5313445,-0.04,-0.1,1.02,2.08,3.3,0.06,880.21,30.62
5313495,-0.03,-0.1,1.0,2.2,3.23,0.37,880.26,30.62
5313533,-0.02,-0.11,0.98,2.32,2.87,0.37,880.24,30.63
5313571,-0.03,-0.09,0.98,2.32,2.81,0.18,880.29,30.63
5313610,-0.04,-0.1,0.94,2.5,3.05,0.37,880.22,30.63
5313648,-0.03,-0.08,0.94,2.32,1.89,0.31,880.34,30.63
5313686,-0.06,-0.1,0.94,2.62,3.11,0.43,880.3,30.63
5313724,-0.04,-0.12,0.89,2.32,2.01,0.37,880.31,30.63
5313762,-0.04,-0.1,0.87,1.95,1.59,0.61,880.31,30.63
5313801,-0.03,-0.1,0.8,2.01,1.59,0.92,880.32,30.63
5313839,-0.05,-0.1,0.78,1.77,1.1,0.73,880.29,30.63
5313889,-0.05,-0.1,0.77,1.53,0.92,1.04,880.29,30.62
5313927,-0.06,-0.11,0.78,1.46,0.12,1.16,880.28,30.62
5313965,-0.04,-0.1,0.83,0.92,0.73,1.04,880.34,30.63
5314003,-0.04,-0.11,0.83,0.73,1.71,1.04,880.37,30.63
5314041,-0.04,-0.1,0.96,0.43,1.71,0.98,880.28,30.63
5314079,-0.05,-0.11,0.95,0.43,2.56,1.1,880.36,30.63
5314117,-0.06,-0.1,1.05,0.18,1.95,1.1,880.41,30.63
5314156,-0.05,-0.1,1.07,0.24,3.05,1.04,880.44,30.64
5314194,-0.02,-0.09,1.14,0.24,2.69,1.16,880.45,30.62
5314232,-0.04,-0.1,1.15,0.49,2.69,1.16,880.43,30.63
5314282,-0.06,-0.1,1.15,0.79,2.26,1.28,880.42,30.61
5314320,-0.04,-0.1,1.15,0.85,2.69,1.34,880.39,30.62
5314358,-0.05,-0.1,1.13,1.04,2.38,1.28,880.48,30.62
5314397,-0.03,-0.1,1.11,1.1,2.26,1.22,880.51,30.64
5314435,-0.05,-0.1,1.06,1.28,2.93,1.28,880.54,30.64
5314473,-0.03,-0.11,1.08,1.4,3.36,1.22,880.51,30.63
5314511,-0.03,-0.1,1.07,1.46,3.05,1.4,880.51,30.63
5314549,-0.04,-0.09,1.07,1.4,3.11,1.4,880.59,30.65
5314587,-0.05,-0.1,1.04,1.34,3.42,1.34,880.54,30.64
5314637,-0.04,-0.09,1.07,1.53,3.85,1.46,880.52,30.64
5314675,-0.04,-0.11,0.99,1.04,3.72,1.4,880.57,30.63
5314714,-0.05,-0.09,1.04,1.22,3.48,1.34,880.59,30.63
5314752,-0.04,-0.11,1.03,1.22,4.15,1.28,880.66,30.64
5314790,-0.04,-0.1,1.04,1.1,4.21,1.34,880.57,30.64
5314828,-0.04,-0.1,1.05,1.04,4.15,1.4,880.64,30.64
5314866,-0.04,-0.1,1.08,1.1,4.82,1.34,880.66,30.64
5314904,-0.03,-0.1,1.06,1.04,5.07,1.4,880.66,30.65
5314943,-0.04,-0.1,1.03,1.1,5.31,1.22,880.69,30.65
5314981,-0.04,-0.1,1.04,1.22,5.31,1.1,880.68,30.64
5315031,-0.03,-0.1,1.07,1.59,5.13,1.34,880.72,30.64
5315069,-0.04,-0.1,1.07,1.46,5.07,1.4,880.66,30.63
5315107,-0.04,-0.1,1.06,1.59,5.43,1.28,880.65,30.64
5315145,-0.03,-0.1,1.07,1.77,5.19,1.28,880.74,30.65
5315183,-0.04,-0.1,1.03,1.95,5.19,1.28,880.7,30.65
5315222,-0.05,-0.09,1.07,2.08,4.7,1.16,880.7,30.64
5315260,-0.03,-0.1,1.03,2.14,5.74,1.28,880.75,30.65
5315298,-0.04,-0.1,1.07,1.95,4.7,1.34,880.78,30.65
5315336,-0.04,-0.1,1.09,2.08,4.94,1.28,880.74,30.65
5315374,-0.03,-0.11,1.07,2.08,5.37,1.22,880.79,30.66
5315450,-0.04,-0.1,1.06,2.56,4.64,1.34,880.77,30.63
5315488,-0.04,-0.1,1.04,2.5,4.33,1.4,880.74,30.62
5315526,-0.04,-0.11,1.02,2.56,4.33,1.46,880.8,30.63
5315616,-0.02,-0.1,1.01,2.14,3.97,1.53,880.76,30.6
5315654,-0.02,-0.1,1.04,2.5,3.66,1.22,880.83,30.62
5315692,-0.03,-0.12,0.99,2.26,3.36,1.4,880.79,30.62
5315730,-0.03,-0.1,1.05,2.08,2.26,1.4,880.82,30.63
5315769,-0.03,-0.11,1.0,1.71,3.17,1.4,880.82,30.62
5315807,-0.02,-0.1,1.0,1.53,2.99,1.22,880.85,30.64
5315857,-0.02,-0.09,1.02,1.59,3.23,1.4,880.8,30.62
5315895,-0.04,-0.11,0.98,1.89,3.85,1.22,880.83,30.64
5315933,-0.04,-0.1,1.01,1.59,4.03,1.16,880.83,30.63
5315971,-0.04,-0.1,1.02,1.59,4.58,1.22,880.81,30.64
5316009,-0.03,-0.1,1.03,1.28,3.85,1.22,880.88,30.63
5316048,-0.03,-0.1,1.04,1.53,4.94,1.16,880.87,30.64
5316086,-0.01,-0.11,1.01,1.83,5.19,1.16,880.89,30.65
5316124,-0.02,-0.1,1.06,1.89,4.21,1.1,880.86,30.64
5316162,-0.03,-0.11,1.0,2.01,4.52,1.04,880.9,30.64
5316200,-0.04,-0.1,1.03,2.14,3.97,1.16,880.94,30.64
5316250,-0.02,-0.1,0.99,2.38,4.7,1.04,880.94,30.64
5316288,-0.01,-0.09,1.02,2.38,3.72,0.98,880.91,30.65
5316326,-0.03,-0.11,0.95,2.87,5.0,1.04,880.92,30.64
5316364,-0.04,-0.09,0.98,2.32,3.42,1.16,880.94,30.64
5316403,-0.04,-0.11,0.97,2.44,4.52,1.16,880.86,30.64
5316441,-0.03,-0.11,0.98,2.32,3.6,0.85,880.91,30.64
5316479,-0.03,-0.1,1.0,2.01,3.66,0.98,880.92,30.65
5316517,-0.01,-0.11,0.99,2.01,3.05,0.79,880.94,30.64
5316555,-0.04,-0.1,1.0,1.89,3.3,0.85,880.93,30.64
5316605,-0.05,-0.1,0.99,1.53,2.75,0.92,881.03,30.65
5316643,-0.03,-0.1,0.99,1.28,2.69,0.67,880.91,30.63
5316682,-0.04,-0.09,0.97,1.1,2.26,0.92,880.97,30.65
5316720,-0.03,-0.09,0.98,1.04,2.62,0.85,881.01,30.65
5316758,-0.04,-0.11,0.96,1.16,2.38,0.85,880.99,30.65
5316796,-0.03,-0.09,0.96,1.04,3.05,0.92,880.94,30.64
5316834,-0.04,-0.1,0.94,1.04,3.54,0.98,880.99,30.64
5316872,-0.04,-0.11,0.95,0.85,2.5,0.92,881.01,30.65
5316910,-0.01,-0.11,0.96,0.67,3.05,0.79,881.06,30.66
5316949,-0.03,-0.1,1.01,0.43,1.89,0.98,880.99,30.65
5316998,-0.03,-0.1,1.01,0.31,0.73,1.1,881.03,30.64
5317037,-0.04,-0.1,1.04,0.37,-0.06,0.98,881.02,30.65
5317075,-0.03,-0.1,1.1,0.67,-0.18,0.98,881.05,30.65
5317113,0.0,-0.1,1.12,0.61,0.0,0.79,881.1,30.64
5317151,-0.05,-0.09,1.13,0.67,-0.43,0.73,881.04,30.67
5317189,-0.05,-0.1,1.12,0.85,0.67,0.79,881.06,30.64
5317227,-0.02,-0.11,1.14,0.98,0.18,0.55,881.04,30.67
5317265,-0.05,-0.1,1.07,0.98,0.06,0.49,881.06,30.65
5317304,-0.05,-0.11,1.03,1.1,0.0,0.79,881.05,30.65
5317342,-0.03,-0.11,0.97,1.22,-0.12,0.61,881.07,30.65
5317392,-0.05,-0.08,1.0,1.1,-0.55,0.79,881.03,30.64
5317430,-0.04,-0.1,0.95,1.04,-0.79,0.98,881.1,30.65
5317468,-0.04,-0.1,0.97,0.98,-1.46,0.92,881.05,30.65
5317506,-0.04,-0.11,0.96,1.16,-0.98,0.98,881.11,30.67
5317544,-0.04,-0.1,0.93,0.67,-1.28,1.22,881.14,30.65
5317582,-0.03,-0.1,0.96,0.55,-1.83,1.04,881.11,30.67
5317621,-0.01,-0.11,0.92,0.55,-2.32,0.92,881.11,30.65
5317659,-0.04,-0.1,0.89,0.18,-1.04,1.04,881.12,30.66
5317697,-0.03,-0.11,0.91,0.06,-0.49,1.22,881.13,30.66
5317747,-0.06,-0.09,0.9,0.37,0.12,0.92,881.2,30.65
5317785,-0.04,-0.1,0.95,0.18,-0.12,0.92,881.13,30.66
5317823,-0.02,-0.11,0.99,0.31,1.28,0.85,881.19,30.67
5317861,-0.03,-0.1,1.0,0.12,1.22,0.85,881.16,30.67
5317899,-0.02,-0.1,1.03,0.73,1.65,0.92,881.22,30.66
5317938,-0.03,-0.1,1.0,1.1,2.14,0.85,881.21,30.67
5317976,-0.05,-0.1,1.02,1.59,3.23,0.92,881.22,30.68
5318014,-0.04,-0.11,1.02,1.89,2.93,0.79,881.24,30.68
5318052,-0.05,-0.09,1.0,1.89,3.05,1.04,881.18,30.66
5318090,-0.03,-0.09,1.04,1.83,3.78,0.92,881.22,30.67
5318140,-0.02,-0.1,1.11,1.77,3.72,1.16,881.12,30.65
5318178,-0.02,-0.11,1.15,1.95,3.91,1.04,881.24,30.67
5318216,-0.05,-0.11,1.07,1.89,3.42,1.04,881.22,30.67
5318255,-0.04,-0.09,1.11,1.77,2.56,1.1,881.29,30.67
5318293,-0.02,-0.11,1.06,1.77,2.5,1.04,881.3,30.68
5318331,-0.04,-0.11,1.0,1.71,1.71,1.16,881.23,30.68
5318369,-0.05,-0.08,0.99,1.77,1.4,1.16,881.25,30.69
5318407,-0.04,-0.1,0.9,1.71,2.5,1.22,881.28,30.68
5318445,-0.05,-0.09,0.87,1.22,2.32,1.22,881.26,30.68
5318483,-0.06,-0.09,0.88,1.28,2.08,1.4,881.24,30.68
5318559,-0.05,-0.1,0.91,1.04,3.23,1.4,881.25,30.65
5318597,-0.05,-0.1,0.93,0.85,2.5,1.71,881.28,30.67
5318636,-0.07,-0.09,0.96,0.43,2.99,1.65,881.27,30.67
5318725,-0.06,-0.09,1.04,0.49,3.66,2.01,881.33,30.64
5318763,-0.07,-0.09,1.05,0.67,3.48,2.14,881.29,30.65
5318801,-0.06,-0.1,1.05,0.79,4.03,2.2,881.3,30.65
5318840,-0.04,-0.1,1.08,0.92,3.66,2.08,881.37,30.67
5318878,-0.05,-0.1,1.08,1.22,3.72,2.32,881.39,30.67
5318916,-0.05,-0.1,1.04,1.28,3.72,2.32,881.35,30.68
5318966,-0.05,-0.1,1.04,1.34,4.39,2.32,881.32,30.66
5319004,-0.05,-0.1,1.03,1.53,3.48,2.44,881.37,30.67
5319042,-0.04,-0.1,1.04,1.59,3.6,2.38,881.44,30.67
5319080,-0.05,-0.1,1.0,1.65,3.54,2.38,881.34,30.66
5319118,-0.05,-0.09,1.02,1.77,3.91,2.44,881.4,30.67
5319157,-0.06,-0.11,1.01,1.77,3.91,2.5,881.4,30.67
5319195,-0.04,-0.1,1.02,1.89,4.27,2.5,881.39,30.67
5319233,-0.06,-0.09,1.03,2.01,4.27,2.5,881.41,30.67
5319271,-0.05,-0.09,1.04,1.83,4.21,2.5,881.39,30.67
5319309,-0.04,-0.1,1.02,1.77,4.64,2.44,881.38,30.68
5319359,-0.04,-0.09,1.06,1.83,5.37,2.56,881.44,30.65
5319397,-0.03,-0.11,1.06,1.59,5.0,2.56,881.35,30.68
5319436,-0.04,-0.1,1.1,1.89,4.46,2.81,881.4,30.67
5319474,-0.05,-0.09,1.08,1.95,4.03,2.56,881.44,30.68
5319512,-0.05,-0.09,1.11,1.83,3.78,2.69,881.5,30.67
5319550,-0.04,-0.09,1.12,2.08,3.91,2.62,881.47,30.68
5319588,-0.04,-0.1,1.03,2.01,3.91,2.75,881.47,30.67
5319627,-0.03,-0.09,1.05,2.2,4.33,2.56,881.42,30.68
5319665,-0.03,-0.1,1.0,1.89,3.78,2.62,881.52,30.68
5319703,-0.03,-0.09,1.06,1.77,3.48,2.69,881.5,30.69
5319753,-0.04,-0.12,1.01,1.83,4.39,2.69,881.47,30.67
5319791,-0.02,-0.1,1.03,1.59,3.78,2.5,881.49,30.68
5319829,-0.02,-0.1,1.01,1.71,3.54,2.26,881.46,30.68
5319867,-0.04,-0.1,0.97,1.53,3.11,2.5,881.46,30.68
5319905,-0.02,-0.1,1.0,1.65,3.05,2.38,881.48,30.69
5319944,-0.03,-0.11,0.95,1.46,3.3,2.26,881.49,30.68
5319982,-0.03,-0.1,1.0,1.34,2.32,2.26,881.44,30.68
5320020,-0.04,-0.1,0.96,1.04,2.44,2.44,881.44,30.68
5320058,-0.03,-0.1,1.02,0.98,2.32,2.38,881.48,30.69
5320108,-0.02,-0.1,0.99,0.92,2.32,2.14,881.53,30.67
5320146,-0.03,-0.1,0.97,0.79,2.44,2.08,881.47,30.68
5320184,-0.04,-0.1,0.97,0.98,2.2,2.08,881.48,30.68
5320222,-0.03,-0.1,0.99,1.22,2.44,1.89,881.51,30.67
5320261,-0.03,-0.1,1.01,1.28,2.62,1.83,881.53,30.68
5320299,-0.03,-0.1,1.03,1.28,2.5,1.95,881.46,30.67
5320337,-0.03,-0.1,1.04,1.28,2.44,1.83,881.5,30.69
5320375,-0.01,-0.1,1.06,1.22,2.75,1.65,881.52,30.69
5320413,-0.03,-0.1,1.05,1.28,2.69,1.71,881.44,30.68
5320452,-0.05,-0.1,1.01,1.28,2.62,1.77,881.55,30.69
5320502,-0.03,-0.1,1.03,1.46,2.5,1.71,881.55,30.68
5320540,-0.03,-0.11,1.01,1.65,2.62,1.53,881.49,30.68
5320578,-0.03,-0.1,1.05,1.59,2.75,1.53,881.5,30.68
5320616,-0.04,-0.1,1.02,1.77,2.99,1.65,881.57,30.69
5320654,-0.04,-0.1,1.04,1.53,2.99,1.65,881.52,30.69
5320692,-0.04,-0.1,1.07,1.77,3.66,1.4,881.51,30.68
5320731,-0.05,-0.1,1.08,2.08,3.72,1.53,881.59,30.69
5320769,-0.04,-0.1,1.09,2.08,4.33,1.46,881.58,30.69
5320807,-0.03,-0.1,1.1,1.95,4.7,1.53,881.52,30.69
5320845,-0.04,-0.09,1.07,2.08,5.0,1.53,881.57,30.68
5320895,-0.04,-0.1,1.05,2.26,4.64,1.65,881.56,30.67
5320933,-0.05,-0.1,1.02,2.01,4.76,1.77,881.62,30.69
5320971,-0.04,-0.1,1.0,2.08,4.15,1.71,881.58,30.69
5321009,-0.04,-0.09,1.0,2.2,3.97,1.77,881.51,30.67
5321048,-0.04,-0.09,0.99,2.01,4.09,1.89,881.54,30.67
5321086,-0.03,-0.1,1.0,1.77,3.6,1.89,881.58,30.69
5321124,-0.05,-0.1,0.98,1.65,3.97,1.95,881.54,30.68
5321162,-0.05,-0.1,0.99,1.53,4.09,1.89,881.56,30.69
5321200,-0.03,-0.09,1.0,1.59,3.48,1.89,881.49,30.69
5321250,-0.05,-0.1,0.99,1.4,3.3,2.08,881.59,30.67
5321288,-0.03,-0.09,0.99,1.4,2.99,1.89,881.51,30.67
5321326,-0.03,-0.09,0.97,1.22,3.23,2.01,881.57,30.68
5321365,-0.05,-0.07,0.97,1.16,3.05,1.95,881.57,30.67
5321403,-0.04,-0.09,0.96,1.22,3.23,1.83,881.56,30.68
5321441,-0.04,-0.1,0.94,1.22,3.3,1.95,881.62,30.68
5321479,-0.04,-0.09,0.97,1.28,3.05,2.08,881.52,30.69
5321517,-0.04,-0.1,0.95,1.1,3.23,2.01,881.57,30.68
5321556,-0.03,-0.1,0.95,0.98,3.42,2.14,881.6,30.68
5321594,-0.03,-0.09,0.98,1.04,3.11,2.08,881.62,30.68
5321669,-0.04,-0.09,0.98,0.85,3.42,2.08,881.65,30.66
5321708,-0.04,-0.09,1.0,0.92,3.54,2.14,881.64,30.67
5321746,-0.03,-0.09,1.0,0.85,2.87,2.01,881.62,30.68
5321835,-0.03,-0.09,1.02,0.98,3.17,2.08,881.67,30.63
5321874,-0.04,-0.09,1.01,0.92,3.78,2.01,881.63,30.65
5321912,-0.04,-0.09,1.01,1.22,3.91,2.14,881.63,30.65
5321950,-0.04,-0.1,1.0,1.34,4.15,2.26,881.62,30.65
5321988,-0.05,-0.1,0.98,1.59,4.7,2.14,881.66,30.66
5322026,-0.04,-0.09,0.98,1.53,5.49,2.2,881.63,30.67
5322076,-0.03,-0.09,1.03,1.71,5.8,2.32,881.6,30.65
5322114,-0.05,-0.1,1.0,2.08,5.68,2.5,881.6,30.65
5322152,-0.05,-0.09,1.06,2.01,5.55,2.5,881.62,30.66
5322190,-0.04,-0.09,1.05,2.08,6.04,2.62,881.65,30.66
5322229,-0.04,-0.09,1.05,1.95,6.04,2.32,881.6,30.67
5322267,-0.03,-0.09,1.07,2.26,5.55,2.75,881.69,30.66
5322305,-0.03,-0.09,1.06,2.14,5.25,2.69,881.67,30.66
5322343,-0.04,-0.09,1.07,2.14,5.0,2.81,881.65,30.67
5322381,-0.04,-0.09,1.06,2.14,4.82,2.93,881.6,30.67
5322419,-0.04,-0.09,1.07,2.08,4.27,2.93,881.68,30.68
5322469,-0.04,-0.09,1.06,2.08,4.15,3.11,881.66,30.67
5322507,-0.04,-0.09,1.06,1.95,3.97,2.93,881.68,30.67
5322545,-0.03,-0.09,1.05,1.95,4.7,2.93,881.68,30.68
5322584,-0.04,-0.09,1.05,2.08,4.88,2.93,881.63,30.67
5322622,-0.02,-0.09,1.06,1.95,4.64,2.93,881.67,30.67
5322660,-0.04,-0.09,1.03,1.77,4.88,2.87,881.63,30.68
5322698,-0.03,-0.1,1.03,2.01,5.07,2.81,881.67,30.67
5322736,-0.03,-0.09,1.03,1.89,4.58,2.69,881.68,30.67
5322775,-0.03,-0.1,1.02,1.83,4.46,2.93,881.7,30.67
5322813,-0.03,-0.09,1.0,1.53,4.76,2.87,881.73,30.67
5322863,-0.03,-0.09,1.01,1.71,4.39,2.75,881.65,30.66
5322901,-0.02,-0.09,1.0,1.4,4.46,2.75,881.64,30.67
5322939,-0.03,-0.09,1.01,1.4,3.97,2.56,881.65,30.68
5322977,-0.03,-0.09,1.01,1.4,4.15,2.69,881.63,30.66
5323015,-0.02,-0.09,1.01,1.16,4.09,2.5,881.65,30.68
5323054,-0.03,-0.09,1.01,1.4,4.52,2.44,881.67,30.68
5323092,-0.02,-0.09,1.01,1.22,4.33,2.5,881.67,30.68
5323130,-0.03,-0.09,1.04,1.28,4.21,2.26,881.65,30.68
5323168,-0.02,-0.09,1.02,1.34,4.58,2.32,881.68,30.68
5323218,-0.03,-0.09,1.03,1.4,4.76,2.08,881.7,30.67
5323256,-0.02,-0.09,1.0,1.4,4.76,2.2,881.71,30.68
5323294,-0.02,-0.09,1.04,1.34,4.46,2.2,881.69,30.67
5323333,-0.02,-0.1,1.01,1.22,5.07,2.01,881.64,30.67
5323371,-0.02,-0.08,1.05,1.34,5.19,1.95,881.66,30.68
5323409,-0.02,-0.09,1.04,1.34,5.19,1.83,881.71,30.68
5323447,-0.02,-0.09,1.06,1.4,5.07,1.89,881.7,30.68
5323485,-0.03,-0.08,1.06,1.46,5.55,1.77,881.68,30.67
5323523,-0.03,-0.09,1.04,1.53,5.31,1.65,881.71,30.68
5323561,-0.02,-0.09,1.06,1.53,5.49,1.59,881.67,30.68
5323611,-0.02,-0.09,1.06,1.4,5.31,1.53,881.7,30.67
5323650,-0.02,-0.09,1.06,1.53,5.25,1.4,881.66,30.67
5323688,-0.02,-0.1,1.06,1.4,4.94,1.53,881.67,30.67
5323726,-0.03,-0.08,1.07,1.28,4.64,1.34,881.72,30.69
5323764,-0.01,-0.09,1.06,1.4,4.21,1.34,881.71,30.68
5323802,-0.01,-0.09,1.07,1.34,3.54,1.22,881.7,30.68
5323840,-0.02,-0.08,1.06,1.46,3.23,1.22,881.7,30.68
5323878,-0.02,-0.09,1.04,1.4,2.81,0.98,881.66,30.69
5323917,-0.01,-0.09,1.04,1.53,2.44,1.1,881.71,30.69
5323955,-0.03,-0.09,1.04,1.65,2.5,1.1,881.66,30.68
5324005,-0.02,-0.09,1.03,1.71,2.44,0.79,881.61,30.67
5324043,-0.02,-0.09,1.03,1.83,2.08,0.55,881.66,30.69
5324081,-0.03,-0.09,1.0,1.83,1.95,0.67,881.67,30.67
5324119,-0.02,-0.08,1.0,1.77,1.89,0.55,881.69,30.68
5324157,-0.03,-0.09,0.96,1.71,2.2,0.31,881.68,30.68
5324195,-0.04,-0.09,0.94,1.83,2.32,0.37,881.67,30.68
5324234,-0.03,-0.08,0.95,1.89,2.2,0.18,881.64,30.69
5324272,-0.02,-0.08,0.96,1.59,2.26,0.12,881.64,30.67
5324310,-0.04,-0.08,0.97,1.53,2.08,0.06,881.62,30.68
5324360,-0.03,-0.08,0.98,1.53,2.93,0.0,881.65,30.68
5324398,-0.03,-0.09,0.99,1.46,2.81,0.06,881.66,30.67
5324436,-0.03,-0.08,1.0,1.53,2.75,-0.06,881.66,30.68
5324474,-0.04,-0.08,0.99,1.65,3.05,-0.06,881.68,30.68
5324513,-0.03,-0.08,0.99,2.14,3.23,-0.12,881.64,30.68
5324551,-0.03,-0.08,1.0,2.5,2.93,-0.18,881.7,30.69
5324589,-0.03,-0.08,0.98,2.99,3.36,-0.18,881.67,30.69
5324627,-0.03,-0.08,0.98,3.17,3.48,-0.12,881.63,30.68
5324665,-0.03,-0.08,0.95,3.42,3.72,-0.18,881.67,30.68
5324703,-0.04,-0.08,0.94,3.48,3.54,-0.18,881.64,30.68
5324779,-0.02,-0.08,0.92,3.72,3.42,-0.24,881.64,30.65
5324817,-0.04,-0.08,0.9,3.85,3.23,-0.12,881.68,30.67
5324855,-0.03,-0.09,0.89,3.78,3.17,-0.31,881.64,30.67
5324946,-0.05,-0.08,0.84,3.3,3.23,-0.12,881.63,30.64
5324984,-0.04,-0.08,0.85,2.81,2.93,-0.24,881.57,30.66
5325023,-0.05,-0.08,0.87,2.56,2.75,-0.18,881.58,30.65
5325061,-0.04,-0.08,0.86,2.26,3.11,-0.06,881.63,30.67
5325099,-0.03,-0.08,0.89,2.2,3.11,-0.06,881.63,30.67
5325137,-0.05,-0.08,0.88,2.08,3.48,-0.06,881.6,30.66
5325187,-0.04,-0.08,0.88,1.77,3.72,-0.12,881.66,30.66
5325225,-0.03,-0.08,0.89,2.08,3.85,-0.18,881.64,30.66
5325263,-0.04,-0.08,0.88,1.95,4.39,-0.24,881.66,30.67
5325302,-0.05,-0.08,0.89,2.08,4.88,-0.06,881.7,30.68
5325340,-0.05,-0.08,0.89,2.44,4.94,-0.06,881.62,30.67
5325378,-0.05,-0.08,0.9,2.5,5.37,-0.12,881.61,30.68
5325416,-0.04,-0.08,0.89,2.5,5.13,0.0,881.66,30.68
5325454,-0.06,-0.08,0.91,2.56,4.88,0.12,881.66,30.68
5325492,-0.04,-0.09,0.91,2.75,5.07,0.18,881.7,30.68
5325531,-0.05,-0.08,0.91,2.56,4.7,0.24,881.66,30.68
5325581,-0.04,-0.08,0.91,2.81,4.88,0.37,881.67,30.67
5325619,-0.05,-0.08,0.9,2.75,4.33,0.37,881.6,30.68
5325657,-0.05,-0.08,0.91,2.75,3.97,0.37,881.64,30.68
5325695,-0.04,-0.08,0.9,2.56,4.03,0.49,881.61,30.69
5325733,-0.05,-0.08,0.91,2.5,3.48,0.49,881.66,30.67
5325771,-0.05,-0.08,0.93,2.56,3.66,0.43,881.66,30.68
5325809,-0.04,-0.08,0.93,2.56,3.6,0.55,881.74,30.68
5325848,-0.06,-0.08,0.93,2.62,3.78,0.61,881.7,30.69
5325886,-0.05,-0.08,0.94,2.5,4.27,0.67,881.67,30.68
5325924,-0.04,-0.08,0.95,2.32,3.97,0.67,881.62,30.7
5325974,-0.04,-0.08,0.94,2.44,4.33,0.79,881.62,30.67
5326012,-0.04,-0.07,0.95,2.5,4.09,0.73,881.64,30.68
5326050,-0.04,-0.08,0.96,2.56,4.21,0.73,881.67,30.69
5326088,-0.04,-0.08,0.94,2.44,4.03,0.73,881.61,30.68
5326127,-0.05,-0.07,0.97,2.56,4.03,0.79,881.69,30.68
5326165,-0.04,-0.08,0.95,2.5,4.09,0.85,881.69,30.69
5326203,-0.06,-0.07,0.96,2.62,3.6,0.92,881.66,30.68
5326241,-0.04,-0.08,0.95,2.56,4.88,0.85,881.66,30.68
5326279,-0.04,-0.08,0.95,2.44,4.52,0.98,881.67,30.67
5326329,-0.05,-0.08,0.94,2.62,5.13,0.85,881.69,30.67
5326367,-0.06,-0.08,0.95,2.62,4.76,1.04,881.7,30.68
5326406,-0.05,-0.08,0.97,2.69,5.55,0.92,881.62,30.67
5326444,-0.05,-0.08,0.94,2.62,5.68,0.98,881.7,30.68
5326482,-0.05,-0.07,0.97,2.93,5.31,1.1,881.69,30.68
5326520,-0.04,-0.08,0.96,2.81,5.62,1.28,881.65,30.67
5326558,-0.03,-0.08,0.98,2.81,5.37,1.1,881.74,30.69
5326597,-0.04,-0.08,0.97,2.75,5.25,1.22,881.74,30.68
5326635,-0.05,-0.08,0.96,2.87,5.13,1.34,881.66,30.68
5326673,-0.03,-0.07,0.99,2.75,5.0,1.22,881.68,30.68
5326723,-0.04,-0.07,0.99,3.11,4.88,1.28,881.74,30.68
5326761,-0.05,-0.08,0.98,2.87,5.25,1.28,881.71,30.68
5326799,-0.04,-0.07,1.02,3.11,5.37,1.28,881.78,30.69
5326837,-0.04,-0.08,1.01,2.93,5.25,1.22,881.71,30.68
5326876,-0.05,-0.08,1.0,2.93,4.94,1.28,881.7,30.68
5326914,-0.04,-0.08,1.01,2.93,5.07,1.28,881.73,30.68
5326952,-0.04,-0.07,0.97,2.93,4.88,1.34,881.71,30.69
5326990,-0.04,-0.07,0.98,2.62,4.46,1.4,881.71,30.68
5327028,-0.04,-0.08,0.97,2.81,4.03,1.4,881.71,30.69
5327066,-0.04,-0.08,0.94,2.81,3.97,1.16,881.78,30.69
5327116,-0.05,-0.08,0.93,2.62,3.85,1.34,881.74,30.68
5327154,-0.05,-0.08,0.92,2.5,4.03,1.4,881.78,30.7
5327193,-0.05,-0.08,0.95,2.5,4.46,1.28,881.73,30.68
5327231,-0.06,-0.08,0.93,2.62,4.27,1.34,881.77,30.68
5327269,-0.04,-0.08,0.93,2.44,4.21,1.28,881.74,30.7
5327307,-0.05,-0.08,0.9,2.26,4.52,1.28,881.77,30.69
5327345,-0.04,-0.07,0.91,2.38,4.03,1.4,881.76,30.69
5327383,-0.05,-0.08,0.86,2.38,4.58,1.4,881.7,30.69
5327422,-0.05,-0.08,0.9,2.2,3.72,1.4,881.77,30.69
5327472,-0.05,-0.07,0.9,2.01,4.09,1.53,881.79,30.68
5327510,-0.04,-0.07,0.95,2.14,4.27,1.59,881.8,30.69
5327548,-0.04,-0.08,0.94,2.01,4.15,1.59,881.79,30.69
5327586,-0.04,-0.07,1.0,1.95,3.72,1.71,881.8,30.68
5327624,-0.02,-0.08,0.96,2.01,4.09,1.65,881.82,30.69
5327662,-0.02,-0.07,0.98,1.77,3.85,1.46,881.83,30.7
5327701,-0.04,-0.07,0.99,1.89,3.78,1.4,881.79,30.7
5327739,-0.04,-0.08,0.98,1.89,2.99,1.59,881.8,30.69
5327777,-0.03,-0.08,0.99,1.95,3.6,1.46,881.75,30.7
5327815,-0.03,-0.08,0.97,2.2,3.3,1.22,881.86,30.69
5327891,-0.04,-0.08,0.94,2.01,2.44,1.4,881.82,30.66
5327929,-0.03,-0.08,0.92,2.26,2.26,1.22,881.81,30.69
5327967,-0.04,-0.07,0.91,2.38,2.14,1.28,881.8,30.68
5328057,-0.03,-0.08,0.86,2.26,1.77,1.16,881.91,30.65
5328095,-0.03,-0.07,0.87,2.2,2.32,1.16,881.84,30.67
5328134,-0.03,-0.08,0.88,2.26,2.2,1.16,881.85,30.67
5328172,-0.02,-0.08,0.88,2.38,2.32,1.1,881.89,30.68
5328210,-0.04,-0.07,0.89,2.32,2.26,0.85,881.93,30.67
5328248,-0.04,-0.08,0.86,2.38,2.14,1.04,881.88,30.67
5328286,-0.05,-0.08,0.87,2.69,1.65,0.92,881.92,30.68
5328336,-0.02,-0.08,0.86,2.75,2.32,0.79,881.87,30.67
5328374,-0.0,-0.08,0.88,2.38,2.08,0.79,881.91,30.67
5328412,-0.03,-0.08,0.93,2.75,2.75,0.67,881.97,30.68
5328451,-0.03,-0.09,0.9,2.56,2.69,0.67,881.95,30.68
5328489,-0.03,-0.07,0.93,2.5,2.44,0.55,881.91,30.67
5328527,-0.04,-0.08,0.91,2.62,3.48,0.24,881.93,30.68
5328565,-0.03,-0.08,0.91,2.5,3.23,0.31,881.97,30.69
5328603,-0.02,-0.08,0.94,2.38,3.36,0.18,881.94,30.7
5328642,-0.03,-0.08,0.93,2.44,3.85,0.12,881.91,30.68
5328692,-0.03,-0.07,0.97,2.2,3.66,0.24,881.96,30.68
5328730,-0.04,-0.08,0.97,2.26,4.03,0.06,881.98,30.68
5328768,-0.06,-0.07,0.98,2.26,3.17,0.18,882.04,30.68
5328806,-0.04,-0.08,0.97,2.32,3.54,0.06,882.0,30.69
5328844,-0.03,-0.07,0.97,2.62,3.11,0.12,882.01,30.7
5328882,-0.04,-0.07,0.94,2.69,3.48,0.12,882.0,30.7
5328921,-0.04,-0.07,0.95,2.56,3.11,0.06,882.02,30.69
5328959,-0.05,-0.07,0.95,2.5,4.27,0.06,881.99,30.7
5328997,-0.06,-0.08,0.94,2.44,3.72,0.12,882.03,30.69
5329035,-0.06,-0.07,0.95,2.5,3.78,0.31,882.01,30.7
5329085,-0.03,-0.08,0.9,2.38,4.21,0.0,882.07,30.68
5329123,-0.04,-0.07,0.91,2.38,4.27,0.06,882.06,30.69
5329161,-0.04,-0.08,0.9,2.38,4.7,0.24,882.05,30.69
5329200,-0.04,-0.08,0.88,2.32,3.85,0.12,882.06,30.7
5329238,-0.04,-0.07,0.93,2.14,4.46,0.31,882.04,30.69
5329276,-0.05,-0.08,0.93,1.95,3.85,0.43,882.08,30.69
5329314,-0.05,-0.07,0.95,1.89,3.3,0.31,882.08,30.7
5329352,-0.04,-0.08,0.95,1.77,2.87,0.31,882.11,30.69
5329391,-0.04,-0.08,1.0,1.71,2.93,0.43,882.05,30.69
5329429,-0.04,-0.07,1.0,1.83,3.05,0.55,882.13,30.68
5329479,-0.04,-0.07,1.02,1.71,2.75,0.49,882.18,30.68
5329517,-0.03,-0.08,1.04,1.83,2.87,0.43,882.12,30.68
5329555,-0.03,-0.08,1.0,1.89,3.11,0.43,882.15,30.69
5329593,-0.03,-0.07,1.0,1.71,2.93,0.24,882.11,30.68
5329632,-0.05,-0.08,0.97,1.77,3.3,0.31,882.18,30.7
5329670,-0.03,-0.07,1.01,1.77,2.87,0.43,882.14,30.68
5329708,-0.04,-0.08,1.0,1.65,3.66,0.37,882.2,30.7
5329746,-0.03,-0.08,1.0,1.77,3.17,0.06,882.2,30.7
5329784,-0.04,-0.07,0.99,1.65,3.36,0.06,882.2,30.69
5329834,-0.02,-0.07,0.98,2.2,2.81,0.06,882.24,30.69
5329872,-0.03,-0.07,0.96,2.08,2.87,0.18,882.25,30.69
5329911,-0.04,-0.08,0.94,2.14,2.62,0.12,882.3,30.7
5329949,-0.04,-0.08,0.97,2.2,2.44,0.18,882.25,30.69
5329987,-0.04,-0.08,0.94,2.08,2.56,0.06,882.22,30.69
5330025,-0.03,-0.07,0.99,2.08,2.44,0.0,882.31,30.69
5330063,-0.04,-0.08,0.93,2.14,2.99,-0.06,882.29,30.68
5330101,-0.03,-0.08,0.94,2.01,2.44,0.0,882.27,30.68
5330139,-0.04,-0.08,0.94,2.08,2.62,-0.06,882.27,30.7
5330178,-0.05,-0.08,0.93,1.83,2.69,0.0,882.26,30.68
5330227,-0.04,-0.07,0.92,2.08,2.38,0.0,882.3,30.68
5330266,-0.05,-0.07,0.93,2.2,2.14,0.0,882.35,30.69
5330304,-0.05,-0.08,0.87,2.08,2.56,0.06,882.3,30.68
5330342,-0.03,-0.08,0.85,2.26,3.05,-0.06,882.35,30.69
5330380,-0.06,-0.07,0.78,2.44,2.87,-0.18,882.36,30.69
5330418,-0.06,-0.08,0.75,2.87,3.3,-0.06,882.37,30.7
5330457,-0.05,-0.07,0.77,2.69,3.66,-0.06,882.35,30.69
5330495,-0.04,-0.08,0.78,2.75,3.05,-0.06,882.39,30.7
5330533,-0.04,-0.08,0.85,2.75,2.93,0.0,882.33,30.69
5330583,-0.05,-0.08,0.88,2.62,3.3,0.12,882.36,30.68
5330621,-0.05,-0.07,1.0,2.56,2.56,0.18,882.41,30.68
5330659,-0.07,-0.07,1.01,2.5,2.87,0.18,882.38,30.69
5330697,-0.06,-0.07,1.06,2.56,2.69,0.24,882.37,30.69
5330735,-0.07,-0.07,1.05,2.62,3.23,0.37,882.39,30.69
5330773,-0.07,-0.07,1.01,2.87,2.75,0.49,882.48,30.69
5330812,-0.04,-0.07,0.99,2.99,2.87,0.61,882.43,30.7
5330850,-0.06,-0.07,0.97,3.05,3.42,0.61,882.4,30.69
5330888,-0.05,-0.07,0.96,3.11,3.36,0.61,882.46,30.69
5330926,-0.06,-0.08,0.94,2.93,2.99,0.79,882.49,30.69
5331002,-0.06,-0.08,0.92,2.93,3.05,0.92,882.5,30.67
5331040,-0.06,-0.08,0.92,2.87,2.69,0.98,882.53,30.67
5331078,-0.06,-0.07,0.93,2.75,2.26,1.16,882.5,30.67
5331168,-0.06,-0.08,0.88,2.44,2.2,1.34,882.5,30.65
5331206,-0.07,-0.08,0.87,2.5,2.14,1.28,882.54,30.67
5331244,-0.06,-0.07,0.92,2.38,2.14,1.34,882.57,30.67
5331282,-0.06,-0.08,0.91,2.01,2.2,1.46,882.53,30.67
5331320,-0.06,-0.07,0.98,2.08,2.32,1.46,882.57,30.66
5331359,-0.07,-0.08,1.01,2.08,2.93,1.65,882.62,30.68
5331397,-0.05,-0.08,1.04,2.08,2.62,1.83,882.58,30.67
5331447,-0.05,-0.08,1.03,2.14,2.87,1.71,882.63,30.67
5331485,-0.06,-0.07,1.05,2.2,3.11,1.89,882.67,30.67
5331523,-0.06,-0.07,1.02,2.32,3.48,2.01,882.65,30.67
5331561,-0.07,-0.07,1.04,2.08,3.3,2.08,882.71,30.68
5331599,-0.07,-0.08,1.02,2.56,3.17,2.01,882.69,30.68
5331637,-0.06,-0.08,0.98,2.56,3.78,2.08,882.71,30.68
5331676,-0.04,-0.07,0.98,2.69,4.33,2.14,882.71,30.68
5331714,-0.05,-0.08,0.95,2.69,5.13,2.2,882.7,30.69
5331752,-0.06,-0.07,0.96,2.81,4.58,2.2,882.7,30.68
5331802,-0.05,-0.07,0.98,2.62,4.7,2.2,882.74,30.68
5331840,-0.05,-0.08,1.0,2.62,4.39,2.08,882.74,30.7
5331878,-0.05,-0.07,1.0,2.81,4.03,2.2,882.77,30.69
5331916,-0.05,-0.07,1.03,2.93,3.66,2.14,882.79,30.68
5331955,-0.04,-0.08,1.02,2.99,4.03,2.32,882.81,30.69
5331993,-0.05,-0.08,1.01,2.93,3.85,2.32,882.85,30.69
5332031,-0.05,-0.07,1.0,2.93,4.09,2.38,882.88,30.7
5332069,-0.05,-0.08,1.0,2.75,3.66,2.38,882.82,30.7
5332107,-0.04,-0.08,1.0,2.38,3.23,2.44,882.87,30.69
5332145,-0.04,-0.07,1.02,2.44,2.69,2.32,882.83,30.69
5332195,-0.04,-0.07,1.02,2.38,3.17,2.32,882.84,30.67
5332233,-0.05,-0.07,1.08,2.2,2.87,2.26,882.88,30.68
5332272,-0.05,-0.07,1.1,2.26,2.87,2.32,882.83,30.69
5332310,-0.06,-0.08,1.1,2.08,3.11,2.26,882.92,30.68
5332348,-0.05,-0.08,1.12,2.38,4.03,2.26,882.91,30.7
5332386,-0.04,-0.07,1.09,2.14,3.66,2.08,882.97,30.71
5332424,-0.04,-0.07,1.12,2.08,3.54,2.14,882.93,30.7
5332462,-0.05,-0.08,1.08,2.2,3.66,2.26,883.02,30.7
5332501,-0.06,-0.08,1.04,2.32,4.82,2.26,882.99,30.7
5332539,-0.06,-0.08,1.05,2.5,4.7,2.08,883.02,30.69
5332589,-0.04,-0.07,1.03,2.44,5.07,2.08,882.95,30.69
5332627,-0.03,-0.08,1.02,2.38,4.39,2.14,882.96,30.7
5332665,-0.05,-0.08,1.0,2.32,4.21,2.14,882.96,30.69
5332703,-0.05,-0.08,1.03,2.01,3.36,2.32,882.95,30.69
5332741,-0.03,-0.08,1.04,2.01,3.05,2.2,882.99,30.7
5332779,-0.05,-0.09,1.05,1.59,3.17,2.32,883.03,30.69
5332818,-0.05,-0.07,1.04,1.34,3.23,2.26,883.07,30.7
5332856,-0.05,-0.07,1.08,1.1,2.99,2.26,883.0,30.7
5332894,-0.04,-0.07,1.06,0.92,3.3,2.2,883.09,30.69
5332944,-0.05,-0.07,1.1,1.16,3.17,2.26,883.08,30.7
5332982,-0.04,-0.08,1.07,1.28,3.6,2.32,883.1,30.69
5333020,-0.05,-0.07,1.06,1.22,3.72,2.5,883.08,30.69
5333058,-0.04,-0.08,1.05,1.95,4.21,2.26,883.1,30.69
5333096,-0.04,-0.08,1.01,2.14,4.39,2.26,883.16,30.69
5333134,-0.03,-0.08,0.95,2.2,5.37,2.32,883.16,30.69
5333173,-0.04,-0.08,0.94,2.14,5.49,2.01,883.18,30.7
5333211,-0.03,-0.08,0.93,2.08,5.8,1.77,883.18,30.68
5333249,-0.03,-0.08,0.94,2.01,5.74,1.83,883.09,30.69
5333287,-0.04,-0.09,0.94,2.08,7.08,1.77,883.19,30.7
5333337,-0.02,-0.07,0.98,1.95,6.84,1.46,883.14,30.68
5333375,-0.05,-0.08,0.96,1.89,6.71,1.59,883.19,30.7
5333413,-0.05,-0.09,0.96,1.77,7.26,1.71,883.12,30.69
5333452,-0.03,-0.09,0.99,1.65,7.87,1.53,883.21,30.69
5333490,-0.04,-0.08,0.98,1.65,6.29,1.46,883.22,30.69
5333528,-0.04,-0.08,1.01,1.71,6.1,1.53,883.22,30.7
5333566,-0.03,-0.09,0.99,1.95,6.77,1.34,883.25,30.7
5333604,-0.02,-0.08,0.97,1.53,5.55,1.34,883.23,30.69
5333642,-0.03,-0.08,0.97,1.22,4.09,1.59,883.29,30.7
5333681,-0.03,-0.08,1.0,0.98,4.27,1.4,883.21,30.7
5333730,-0.04,-0.07,1.04,0.92,3.54,1.4,883.28,30.68
5333769,-0.02,-0.07,1.05,0.98,3.23,1.34,883.22,30.69
5333807,-0.05,-0.08,1.03,0.85,3.05,1.4,883.33,30.69
5333845,-0.04,-0.07,1.04,0.92,3.11,1.46,883.31,30.7
5333883,-0.04,-0.07,1.05,0.98,2.93,1.28,883.33,30.7
5333921,-0.03,-0.08,1.02,1.04,2.38,1.34,883.28,30.7
5333960,-0.04,-0.07,1.04,1.1,1.77,1.16,883.35,30.69
5333998,-0.05,-0.08,1.07,1.16,1.95,1.34,883.33,30.7
5334036,-0.04,-0.07,1.08,1.22,1.4,1.46,883.34,30.72
5334112,-0.04,-0.08,1.08,1.28,1.28,1.22,883.39,30.67
5334150,-0.02,-0.08,1.1,1.22,1.4,1.28,883.39,30.68
5334188,-0.04,-0.07,1.09,1.4,1.46,1.16,883.45,30.69
5334278,-0.05,-0.08,1.08,1.53,2.14,1.1,883.43,30.65
5334316,-0.04,-0.08,1.06,1.71,2.38,1.22,883.44,30.68
5334354,-0.03,-0.07,1.08,1.83,2.56,1.16,883.43,30.67
5334392,-0.03,-0.08,1.01,2.26,3.36,1.1,883.45,30.68
5334430,-0.04,-0.08,0.97,2.44,3.11,1.16,883.48,30.68
5334468,-0.05,-0.08,0.9,2.87,3.72,1.04,883.44,30.68
5334507,-0.05,-0.08,0.84,2.99,3.23,0.92,883.41,30.67
5334557,-0.05,-0.08,0.81,2.93,4.09,0.98,883.48,30.67
5334595,-0.03,-0.08,0.78,3.05,3.66,0.98,883.5,30.68
5334633,-0.04,-0.09,0.77,2.69,3.72,0.98,883.46,30.68
5334671,-0.04,-0.08,0.75,2.62,2.99,1.1,883.46,30.68
5334709,-0.04,-0.08,0.78,2.5,3.6,1.16,883.5,30.69
5334747,-0.03,-0.09,0.71,2.32,3.17,1.1,883.49,30.68
5334785,-0.05,-0.07,0.75,1.65,2.5,1.28,883.51,30.7
5334824,-0.04,-0.08,0.74,1.65,2.81,1.16,883.52,30.7
5334862,-0.05,-0.08,0.75,1.28,2.2,1.16,883.49,30.68
5334900,-0.03,-0.08,0.8,0.85,2.81,1.16,883.55,30.7
5334950,-0.03,-0.09,0.82,0.79,2.99,1.28,883.53,30.69
5334988,-0.03,-0.08,0.86,0.73,3.17,1.22,883.48,30.68
5335026,-0.05,-0.08,0.86,0.73,2.62,1.53,883.58,30.7
5335064,-0.05,-0.09,0.86,0.79,2.5,1.53,883.61,30.69
5335102,-0.03,-0.08,0.87,0.79,2.75,1.34,883.66,30.7
5335141,-0.03,-0.08,0.88,0.92,2.69,1.34,883.65,30.7
5335179,-0.04,-0.08,0.91,0.92,2.5,1.34,883.66,30.71
5335217,-0.03,-0.08,0.93,1.04,3.23,1.4,883.65,30.69
5335255,-0.04,-0.08,0.95,1.4,3.42,1.16,883.63,30.69
5335305,-0.04,-0.08,0.94,1.22,3.78,1.34,883.69,30.68
5335343,-0.03,-0.08,0.93,1.4,4.15,1.34,883.69,30.7
5335382,-0.04,-0.08,0.95,1.1,4.27,1.04,883.69,30.69
5335420,-0.04,-0.08,0.95,1.4,4.7,1.04,883.72,30.68
5335458,-0.03,-0.08,0.99,1.22,4.64,0.92,883.74,30.7
5335496,-0.04,-0.08,0.99,1.1,4.82,0.85,883.77,30.7
5335534,-0.03,-0.08,0.98,1.22,4.88,0.92,883.78,30.7
5335573,-0.03,-0.07,1.0,1.65,5.07,1.04,883.81,30.69
5335611,-0.03,-0.08,0.96,1.95,5.25,0.85,883.76,30.7
5335649,-0.04,-0.07,0.96,1.89,5.07,0.98,883.82,30.68
5335699,-0.03,-0.08,0.96,1.95,5.25,0.92,883.82,30.7
5335737,-0.03,-0.07,1.0,2.14,5.0,0.79,883.9,30.7
5335775,-0.03,-0.08,1.0,1.95,5.43,0.73,883.87,30.7
5335813,-0.03,-0.08,1.0,1.95,4.76,0.67,883.77,30.69
5335851,-0.03,-0.08,1.02,2.08,5.0,0.79,883.87,30.68
5335889,-0.03,-0.08,0.98,2.08,4.46,0.67,883.9,30.7
5335928,-0.03,-0.07,1.0,2.26,4.33,0.55,883.91,30.7
5335966,-0.03,-0.08,1.0,2.01,4.15,0.73,883.91,30.71
5336004,-0.02,-0.08,1.01,2.14,3.85,0.79,883.94,30.7
5336042,-0.02,-0.08,1.01,2.26,3.97,0.37,883.92,30.69
5336092,-0.04,-0.07,1.02,2.14,3.6,0.43,883.95,30.68
5336130,-0.03,-0.07,1.05,2.2,3.54,0.37,883.97,30.7
5336168,-0.02,-0.08,1.06,2.14,3.6,0.24,883.99,30.69
5336207,-0.03,-0.07,1.09,2.26,3.6,0.37,884.01,30.7
5336245,-0.03,-0.07,1.08,2.2,3.42,0.18,883.94,30.69
5336283,-0.02,-0.07,1.11,2.01,3.72,0.12,884.04,30.7
5336321,-0.03,-0.07,1.12,2.5,3.54,0.06,884.06,30.69
5336359,-0.03,-0.07,1.11,2.62,3.66,-0.06,884.07,30.69
5336397,-0.03,-0.07,1.08,2.69,3.97,-0.18,884.05,30.7
5336447,-0.03,-0.07,1.09,2.81,4.09,-0.24,884.07,30.68
5336486,-0.03,-0.07,1.1,2.99,4.33,-0.24,884.04,30.7
5336524,-0.03,-0.07,1.07,2.75,4.09,-0.18,884.01,30.69
5336562,-0.05,-0.07,1.06,2.75,4.15,-0.18,884.08,30.69
5336600,-0.04,-0.07,1.08,2.69,3.36,-0.31,884.06,30.69
5336638,-0.04,-0.07,1.03,2.56,3.72,-0.18,884.11,30.7
5336677,-0.04,-0.07,1.04,2.38,3.6,-0.18,884.07,30.68
5336715,-0.04,-0.08,1.03,2.44,3.72,-0.18,884.09,30.69
5336753,-0.04,-0.07,1.04,2.38,3.42,-0.18,884.16,30.71
5336791,-0.05,-0.07,1.01,2.5,3.54,-0.18,884.16,30.7
5336841,-0.04,-0.07,1.0,2.44,3.48,-0.12,884.13,30.69
5336879,-0.04,-0.07,1.01,2.5,3.42,-0.18,884.17,30.7
5336917,-0.04,-0.08,1.0,2.38,3.23,-0.18,884.17,30.7
5336956,-0.04,-0.08,0.99,2.38,2.75,-0.12,884.14,30.69
5336994,-0.04,-0.08,0.98,2.2,2.81,-0.12,884.15,30.69
5337032,-0.04,-0.08,0.98,2.2,2.75,0.0,884.22,30.7
5337070,-0.06,-0.08,0.98,2.2,2.32,-0.12,884.15,30.68
5337108,-0.05,-0.07,0.99,2.08,1.95,0.0,884.2,30.7
5337147,-0.05,-0.08,1.01,2.01,1.77,-0.06,884.23,30.7
5337222,-0.04,-0.07,1.02,2.2,1.89,0.0,884.26,30.67
5337261,-0.05,-0.08,0.99,2.14,2.26,0.12,884.23,30.68
5337299,-0.05,-0.08,0.97,1.71,2.26,0.18,884.27,30.7
5337388,-0.04,-0.08,0.93,1.46,1.65,0.18,884.25,30.67
5337427,-0.05,-0.08,0.92,1.16,1.16,0.24,884.26,30.68
5337465,-0.05,-0.08,0.92,1.04,0.73,0.43,884.28,30.67
5337503,-0.06,-0.08,0.93,0.92,0.92,0.31,884.26,30.68
5337541,-0.05,-0.07,0.97,0.98,0.67,0.31,884.29,30.68
5337579,-0.06,-0.08,0.97,0.92,0.49,0.49,884.31,30.68
5337617,-0.05,-0.08,1.0,0.85,0.79,0.37,884.33,30.68
5337667,-0.05,-0.08,1.01,1.1,0.79,0.43,884.37,30.68
5337705,-0.05,-0.07,1.04,0.98,0.43,0.55,884.4,30.68
5337744,-0.07,-0.07,1.03,1.22,0.85,0.49,884.33,30.68
5337782,-0.06,-0.07,1.07,1.34,1.16,0.61,884.41,30.68
5337820,-0.05,-0.07,1.09,1.34,1.46,0.73,884.38,30.68
5337858,-0.04,-0.07,1.08,1.34,1.65,0.61,884.43,30.69
5337896,-0.07,-0.07,1.1,1.46,2.01,0.98,884.45,30.69
5337935,-0.07,-0.07,1.09,1.59,2.5,0.92,884.44,30.7
5337973,-0.06,-0.07,1.1,1.95,2.32,0.98,884.44,30.7
5338011,-0.07,-0.07,1.04,2.32,2.62,0.98,884.52,30.68
5338061,-0.06,-0.06,1.01,2.32,2.81,1.04,884.5,30.68
5338099,-0.05,-0.08,0.98,2.62,2.69,1.28,884.49,30.67
5338137,-0.04,-0.07,1.01,2.5,2.5,1.22,884.45,30.68
5338175,-0.04,-0.07,1.0,2.2,2.75,1.34,884.48,30.69
5338214,-0.06,-0.07,0.99,1.95,2.87,1.28,884.49,30.7
5338252,-0.06,-0.07,1.05,1.77,2.44,1.4,884.49,30.7
5338290,-0.06,-0.08,1.08,1.65,2.62,1.65,884.57,30.72
5338328,-0.05,-0.07,1.11,1.46,2.62,1.53,884.49,30.7
5338366,-0.04,-0.07,1.1,1.71,2.87,1.4,884.52,30.69
5338416,-0.05,-0.07,1.05,1.46,3.6,1.4,884.57,30.7
5338455,-0.06,-0.07,1.07,1.46,3.6,1.46,884.61,30.7
5338493,-0.05,-0.07,1.03,1.83,3.78,1.34,884.59,30.7
5338531,-0.06,-0.07,1.0,1.65,3.78,1.4,884.65,30.71
5338569,-0.03,-0.08,1.0,1.59,3.54,1.71,884.66,30.71
5338607,-0.03,-0.08,1.0,1.71,2.93,1.53,884.6,30.7
5338645,-0.03,-0.08,0.98,1.46,3.05,1.65,884.63,30.71
5338684,-0.05,-0.07,0.99,1.53,2.38,1.77,884.61,30.7
5338722,-0.04,-0.08,0.98,1.59,2.62,1.46,884.67,30.7
5338760,-0.04,-0.07,0.95,1.53,2.5,1.4,884.63,30.69
5338810,-0.04,-0.07,0.94,1.4,2.93,1.46,884.67,30.69
5338848,-0.04,-0.09,0.93,1.65,2.62,1.28,884.66,30.68
5338886,-0.04,-0.08,0.96,1.28,3.05,1.34,884.76,30.7
5338925,-0.04,-0.08,0.92,1.1,3.23,1.34,884.72,30.7
5338963,-0.05,-0.08,0.91,1.22,3.23,1.28,884.74,30.71
5339001,-0.05,-0.09,0.9,1.34,3.66,1.1,884.71,30.71
5339039,-0.03,-0.08,0.89,1.28,3.05,1.04,884.71,30.71
5339077,-0.04,-0.07,0.89,1.34,2.81,1.1,884.72,30.69
5339115,-0.04,-0.08,0.91,1.34,2.93,1.1,884.76,30.71
5339154,-0.04,-0.08,0.93,1.28,2.93,1.04,884.73,30.7
5339203,-0.04,-0.07,0.96,1.4,3.05,1.16,884.79,30.7
5339241,-0.05,-0.07,0.97,1.46,2.38,1.34,884.82,30.7
5339280,-0.05,-0.08,0.96,1.59,2.26,1.22,884.78,30.7
5339318,-0.03,-0.08,0.97,1.71,2.62,1.22,884.76,30.7
5339356,-0.04,-0.08,0.95,1.59,2.26,1.34,884.82,30.7
5339394,-0.05,-0.08,0.94,1.89,2.62,1.1,884.82,30.71
5339432,-0.05,-0.08,0.95,1.95,2.87,1.04,884.78,30.71
5339470,-0.05,-0.08,0.97,2.01,2.69,1.22,884.84,30.71
5339509,-0.06,-0.08,0.93,2.32,3.36,1.1,884.87,30.71
5339558,-0.04,-0.08,0.95,2.38,3.11,1.1,884.85,30.69
5339597,-0.03,-0.08,0.94,2.62,3.23,1.28,884.86,30.7
5339635,-0.05,-0.07,0.92,2.69,2.81,1.16,884.84,30.7
5339673,-0.04,-0.07,0.89,2.81,3.11,1.28,884.94,30.71
5339711,-0.05,-0.08,0.88,2.69,3.48,1.16,884.87,30.7
5339749,-0.05,-0.07,0.88,2.75,2.93,1.16,884.88,30.71
5339788,-0.05,-0.08,0.88,2.62,3.17,1.16,884.91,30.71
5339826,-0.05,-0.07,0.88,2.62,3.3,1.34,884.92,30.71
5339864,-0.04,-0.08,0.9,2.32,3.91,1.16,884.94,30.7
5339902,-0.05,-0.08,0.88,2.2,3.78,1.28,884.96,30.71
5339952,-0.05,-0.07,0.91,2.08,4.09,1.34,884.92,30.7
5339990,-0.05,-0.08,0.88,2.08,3.85,1.28,884.97,30.7
5340028,-0.05,-0.08,0.9,1.77,3.36,1.46,884.99,30.71
5340066,-0.05,-0.08,0.92,2.08,3.48,1.46,885.05,30.7
5340105,-0.04,-0.08,0.92,1.77,3.48,1.53,884.98,30.7
5340143,-0.04,-0.07,0.98,1.77,3.11,1.53,884.96,30.69
5340181,-0.06,-0.08,0.99,1.89,2.93,1.65,884.98,30.7
5340219,-0.05,-0.07,1.05,1.77,2.81,1.59,885.03,30.7
5340257,-0.05,-0.08,1.1,1.89,3.11,1.65,885.05,30.71
5340295,-0.06,-0.07,1.09,1.89,2.14,1.59,885.06,30.7
5340371,-0.03,-0.09,1.07,1.95,3.48,1.59,885.06,30.69
5340409,-0.05,-0.07,1.12,2.2,2.38,1.71,885.06,30.68
5340447,-0.06,-0.07,1.06,2.44,3.3,1.83,885.06,30.68
5340537,-0.03,-0.07,1.1,2.56,2.5,1.53,885.14,30.67
5340575,-0.04,-0.07,1.09,2.26,2.56,1.71,885.15,30.68
5340613,-0.05,-0.07,1.09,2.38,2.75,1.71,885.16,30.68
5340651,-0.05,-0.07,1.08,2.38,2.32,1.71,885.2,30.69
5340689,-0.04,-0.07,1.05,2.44,2.14,1.89,885.23,30.69
5340728,-0.05,-0.07,1.03,2.2,2.01,1.71,885.19,30.7
5340778,-0.04,-0.07,1.02,2.26,2.32,1.65,885.21,30.69
5340816,-0.05,-0.07,1.03,2.01,1.65,1.59,885.25,30.69
5340854,-0.04,-0.07,1.06,2.2,1.71,1.83,885.21,30.68
5340892,-0.04,-0.07,1.04,2.14,2.14,1.71,885.21,30.7
5340930,-0.05,-0.07,1.05,2.08,2.44,1.71,885.21,30.71
5340968,-0.04,-0.07,1.06,2.32,2.01,1.65,885.27,30.71
5341007,-0.05,-0.08,1.02,1.83,2.2,1.71,885.21,30.7
5341045,-0.05,-0.06,1.04,1.83,2.5,1.71,885.25,30.69
5341083,-0.05,-0.07,1.03,2.14,2.93,1.71,885.3,30.7
5341121,-0.04,-0.07,1.05,1.89,2.75,1.71,885.29,30.7
5341171,-0.05,-0.07,1.03,2.08,3.05,1.77,885.32,30.69
5341209,-0.05,-0.07,1.05,2.14,3.11,1.89,885.35,30.71
5341247,-0.06,-0.07,1.07,2.08,3.17,1.77,885.31,30.71
5341286,-0.05,-0.08,1.03,2.32,3.6,1.95,885.38,30.72
5341324,-0.04,-0.07,1.03,2.44,3.36,1.95,885.37,30.71
5341362,-0.04,-0.08,1.0,2.38,3.54,1.83,885.37,30.7
5341400,-0.04,-0.08,1.0,2.08,3.3,1.89,885.37,30.7
5341438,-0.04,-0.08,1.03,2.14,3.23,2.08,885.33,30.71
5341476,-0.04,-0.08,1.0,2.26,3.3,2.01,885.37,30.71
5341515,-0.04,-0.08,1.02,2.14,3.3,2.01,885.41,30.72
5341565,-0.05,-0.07,0.99,2.14,3.54,2.14,885.42,30.71
5341603,-0.05,-0.07,1.0,2.14,3.72,1.89,885.36,30.69
5341641,-0.04,-0.08,0.98,2.01,3.78,1.83,885.39,30.71
5341679,-0.04,-0.08,0.98,1.95,3.78,1.89,885.44,30.71
5341717,-0.05,-0.08,0.95,1.89,4.64,1.83,885.4,30.71
5341755,-0.04,-0.08,0.94,1.83,4.64,1.77,885.4,30.71
5341793,-0.03,-0.08,0.95,1.77,6.04,1.77,885.45,30.71
5341832,-0.04,-0.08,0.93,1.71,6.29,1.65,885.43,30.72
5341870,-0.05,-0.07,0.97,1.71,6.16,1.65,885.43,30.71
5341920,-0.03,-0.08,0.91,2.01,7.57,1.65,885.51,30.71
5341958,-0.04,-0.07,0.98,1.89,7.63,1.71,885.47,30.71
5341996,-0.04,-0.08,0.93,1.65,7.87,1.53,885.51,30.72
5342034,-0.05,-0.07,0.99,1.53,7.87,1.65,885.54,30.72
5342072,-0.03,-0.07,1.0,1.53,8.54,1.53,885.56,30.72
5342110,-0.04,-0.08,1.0,1.34,7.69,1.59,885.57,30.72
5342149,-0.05,-0.07,1.03,1.46,7.45,1.46,885.58,30.73
5342187,-0.04,-0.08,1.0,1.4,8.12,1.46,885.49,30.72
5342225,-0.04,-0.06,1.06,1.46,6.96,1.77,885.56,30.74
5342263,-0.04,-0.06,1.06,1.34,6.77,1.59,885.52,30.72
5342313,-0.04,-0.07,1.13,1.59,5.8,1.77,885.57,30.7
5342351,-0.03,-0.07,1.11,1.65,5.31,1.71,885.61,30.71
5342389,-0.03,-0.07,1.09,1.53,4.64,1.95,885.6,30.7
5342427,-0.05,-0.07,1.05,1.59,4.88,2.01,885.6,30.72
5342466,-0.04,-0.07,1.04,1.77,4.76,2.01,885.57,30.72
5342504,-0.04,-0.07,1.03,1.89,4.21,1.89,885.58,30.72
5342542,-0.04,-0.08,1.01,1.89,4.21,1.77,885.56,30.72
5342580,-0.05,-0.07,1.04,1.46,3.66,1.77,885.67,30.72
5342618,-0.03,-0.07,1.06,1.34,4.33,1.95,885.63,30.73
5342656,-0.03,-0.08,1.05,1.04,4.58,1.71,885.58,30.72
5342706,-0.04,-0.07,1.1,1.04,4.46,1.77,885.63,30.73
5342744,-0.05,-0.07,1.1,1.22,4.27,1.89,885.64,30.72
5342783,-0.05,-0.07,1.08,1.22,3.97,1.77,885.59,30.71
5342821,-0.04,-0.06,1.08,0.98,4.09,1.53,885.66,30.71
5342859,-0.05,-0.07,1.07,1.04,4.52,1.77,885.69,30.72
5342897,-0.05,-0.07,1.06,0.85,4.27,1.65,885.65,30.72
5342935,-0.05,-0.06,1.08,1.28,4.03,1.59,885.66,30.72
5342974,-0.03,-0.07,1.09,1.34,4.03,1.59,885.65,30.73
5343012,-0.03,-0.07,1.1,1.22,3.48,1.59,885.67,30.73
5343062,-0.04,-0.07,1.07,1.46,3.72,1.4,885.71,30.71
5343100,-0.03,-0.07,1.1,1.22,2.99,1.65,885.75,30.71
5343138,-0.03,-0.07,1.08,1.65,3.3,1.65,885.71,30.71
5343176,-0.04,-0.08,1.05,1.59,2.81,1.53,885.81,30.73
5343215,-0.04,-0.07,1.04,1.65,2.69,1.59,885.72,30.72
5343253,-0.02,-0.07,1.05,1.71,2.26,1.53,885.76,30.71
5343291,-0.03,-0.07,1.06,1.65,1.71,1.34,885.72,30.71
5343329,-0.04,-0.07,1.05,1.65,2.26,1.34,885.76,30.72
5343367,-0.04,-0.07,1.08,1.89,2.08,1.34,885.7,30.71
5343405,-0.02,-0.07,1.1,1.83,1.71,1.1,885.75,30.73
5343481,-0.03,-0.08,1.09,1.95,1.77,1.28,885.78,30.7
5343520,-0.03,-0.07,1.09,1.95,1.46,1.16,885.8,30.71
5343558,-0.04,-0.07,1.08,2.01,1.34,0.98,885.79,30.72
5343648,-0.04,-0.07,1.07,2.01,2.08,0.73,885.8,30.68
5343686,-0.04,-0.08,1.06,2.08,2.44,0.85,885.79,30.69
5343724,-0.05,-0.07,1.05,2.26,2.2,0.85,885.8,30.69
5343762,-0.05,-0.07,1.02,2.26,3.3,0.79,885.8,30.69
5343800,-0.03,-0.08,1.04,2.26,3.3,0.73,885.82,30.7
5343838,-0.05,-0.07,1.01,2.26,3.36,0.67,885.8,30.72
5343877,-0.05,-0.07,1.04,2.2,2.93,0.73,885.78,30.71
5343927,-0.04,-0.08,1.0,1.89,3.54,0.67,885.76,30.69
5343965,-0.04,-0.06,1.06,1.77,2.69,0.79,885.78,30.69
5344003,-0.05,-0.08,1.04,1.83,3.17,0.79,885.91,30.72
5344041,-0.04,-0.07,1.05,1.59,2.93,0.73,885.86,30.7
5344079,-0.05,-0.06,1.07,1.77,3.05,0.73,885.84,30.72
5344117,-0.04,-0.07,1.03,1.77,2.87,0.79,885.86,30.71
5344156,-0.05,-0.07,1.07,1.71,2.62,0.73,885.88,30.72
5344194,-0.04,-0.07,1.04,1.65,2.87,0.85,885.86,30.71
5344232,-0.05,-0.08,1.05,1.59,2.38,0.92,885.9,30.72
5344282,-0.04,-0.07,1.04,1.71,2.14,1.04,885.83,30.7
5344320,-0.05,-0.07,1.07,1.89,2.26,1.1,885.85,30.72
5344358,-0.04,-0.08,1.04,1.77,2.62,1.1,885.84,30.72
5344396,-0.05,-0.07,1.05,1.83,2.38,0.98,885.88,30.71
5344435,-0.06,-0.07,1.02,2.14,3.05,1.28,885.83,30.74
5344473,-0.05,-0.08,1.04,1.89,2.38,1.1,885.89,30.72
5344511,-0.05,-0.08,1.02,1.95,2.99,1.1,885.85,30.71
5344549,-0.04,-0.07,1.01,1.71,3.17,1.16,885.85,30.72
5344588,-0.06,-0.07,1.03,1.95,3.54,1.22,885.84,30.72
5344626,-0.05,-0.07,1.0,1.83,3.72,1.4,885.82,30.71
5344676,-0.06,-0.07,1.03,1.89,3.54,1.28,885.83,30.7
5344714,-0.06,-0.07,1.03,1.83,4.21,1.28,885.94,30.73
5344752,-0.05,-0.07,1.04,1.83,4.09,1.4,885.83,30.71
5344790,-0.06,-0.06,1.04,1.83,4.58,1.53,885.84,30.7
5344829,-0.06,-0.07,1.02,1.65,4.52,1.46,885.86,30.72
5344867,-0.05,-0.08,1.03,1.65,3.97,1.59,885.87,30.7
5344905,-0.05,-0.07,1.0,1.46,4.15,1.77,885.92,30.71
5344943,-0.06,-0.07,1.0,1.4,3.85,1.83,885.9,30.71
5344981,-0.05,-0.07,1.02,1.59,3.66,1.77,885.91,30.72
5345020,-0.05,-0.08,1.0,1.65,3.3,1.83,885.91,30.73
5345070,-0.05,-0.08,1.01,1.77,2.75,2.26,885.92,30.71
5345108,-0.04,-0.08,0.98,1.77,2.14,2.26,885.89,30.7
5345146,-0.05,-0.07,0.98,1.83,1.83,2.2,885.89,30.71
5345184,-0.06,-0.08,0.92,1.95,0.79,2.5,885.88,30.72
5345222,-0.05,-0.08,0.94,1.89,0.67,2.44,885.88,30.72
5345260,-0.04,-0.08,0.96,1.65,1.59,2.2,885.85,30.71
5345299,-0.06,-0.08,0.98,1.83,1.83,2.56,885.84,30.73
5345337,-0.04,-0.08,0.97,1.89,1.53,2.38,885.9,30.72
5345375,-0.06,-0.08,0.95,1.71,2.2,2.5,885.88,30.71
5345425,-0.04,-0.07,0.97,1.59,2.26,2.44,885.9,30.72
5345463,-0.05,-0.08,0.96,1.59,2.75,2.38,885.92,30.72
5345501,-0.05,-0.08,0.96,1.71,2.93,2.5,885.89,30.71
5345540,-0.05,-0.08,0.98,1.77,3.48,2.62,885.97,30.73
5345578,-0.03,-0.09,1.0,1.95,4.21,2.62,885.93,30.72
5345616,-0.04,-0.08,0.98,1.89,4.39,2.5,885.93,30.71
5345654,-0.05,-0.07,1.0,1.95,4.15,2.56,885.94,30.72
5345692,-0.03,-0.08,0.99,2.08,4.03,2.69,885.92,30.72
5345730,-0.02,-0.08,1.01,1.95,3.85,2.5,885.99,30.72
5345769,-0.04,-0.09,0.97,1.89,3.6,2.62,885.95,30.72
5345819,-0.04,-0.08,0.99,1.59,3.72,2.56,885.97,30.7
5345857,-0.04,-0.08,0.98,1.53,3.48,2.32,885.95,30.72
5345895,-0.04,-0.08,1.0,1.65,3.54,2.38,885.87,30.71
5345933,-0.03,-0.08,0.99,1.65,3.36,2.32,885.91,30.72
5345971,-0.03,-0.08,0.97,1.53,3.66,2.2,886.0,30.71
5346009,-0.03,-0.08,0.99,1.71,4.09,2.14,885.97,30.73
5346048,-0.05,-0.08,1.0,1.59,4.09,2.14,885.97,30.73
5346086,-0.05,-0.08,1.01,1.71,4.76,2.01,886.0,30.72
5346124,-0.04,-0.08,1.0,1.83,5.19,1.83,885.99,30.72
5346162,-0.03,-0.08,1.02,1.89,5.0,1.89,885.98,30.72
5346212,-0.03,-0.08,1.0,1.83,5.31,1.89,885.92,30.71
5346250,-0.03,-0.08,0.98,1.83,5.19,1.89,885.96,30.71
5346288,-0.04,-0.08,0.99,2.01,5.19,1.89,885.96,30.7
5346326,-0.05,-0.08,0.95,1.95,4.94,1.95,885.94,30.71
5346365,-0.05,-0.08,0.95,1.83,4.82,1.95,885.98,30.71
5346403,-0.03,-0.08,0.95,1.89,4.94,1.83,885.98,30.71
5346441,-0.03,-0.08,0.93,1.65,5.43,1.71,885.99,30.71
5346479,-0.04,-0.08,0.94,1.65,5.37,1.71,885.93,30.71
5346517,-0.03,-0.08,0.96,1.28,5.98,1.71,886.0,30.71
5346595,-0.04,-0.07,0.99,1.4,6.04,1.59,886.03,30.7
5346633,-0.03,-0.08,1.01,1.34,5.74,1.46,885.98,30.7
5346671,-0.03,-0.07,1.02,1.4,5.07,1.4,885.99,30.7
5346761,-0.04,-0.08,1.02,1.16,5.31,1.28,886.01,30.68
5346799,-0.04,-0.08,1.04,1.59,4.82,1.4,885.99,30.68
5346837,-0.03,-0.09,1.01,1.4,4.7,1.4,885.97,30.7
5346875,-0.03,-0.07,1.04,1.4,3.91,1.46,886.0,30.7
5346913,-0.04,-0.08,0.99,1.4,4.09,1.4,886.02,30.69
5346951,-0.03,-0.08,1.01,1.4,3.66,1.22,885.98,30.7
5346990,-0.03,-0.07,1.05,1.59,3.78,1.53,886.04,30.7
5347040,-0.04,-0.08,1.01,1.46,4.15,1.22,885.97,30.7
5347078,-0.04,-0.07,1.03,1.4,3.66,1.22,886.05,30.7
5347116,-0.05,-0.08,1.02,1.34,3.66,1.28,885.98,30.71
5347154,-0.04,-0.08,1.03,1.28,3.48,1.1,885.98,30.7
5347192,-0.04,-0.07,1.03,1.16,3.78,1.04,885.98,30.71
5347230,-0.05,-0.07,1.03,1.4,3.42,1.16,886.0,30.7
5347268,-0.04,-0.08,1.03,1.53,3.6,1.04,886.06,30.72
5347307,-0.05,-0.07,1.02,1.46,3.72,0.85,885.98,30.72
5347345,-0.04,-0.07,1.01,1.46,4.33,1.16,886.03,30.72
5347395,-0.04,-0.07,1.0,1.71,4.52,1.04,886.01,30.7
5347433,-0.03,-0.07,1.0,1.71,4.39,0.73,886.03,30.71
5347471,-0.05,-0.08,0.98,1.95,4.33,0.85,886.03,30.71
5347509,-0.04,-0.08,0.98,1.89,4.09,0.92,886.04,30.71
5347547,-0.04,-0.07,0.96,2.08,3.78,0.92,886.02,30.73
5347585,-0.04,-0.06,0.96,1.95,3.85,0.98,886.08,30.72
5347623,-0.03,-0.08,0.96,2.2,3.36,0.85,886.09,30.71
5347662,-0.03,-0.08,0.97,2.2,2.44,0.85,886.04,30.73
5347700,-0.03,-0.08,0.94,2.26,2.75,0.85,886.05,30.71
5347738,-0.03,-0.08,0.96,2.08,2.08,0.98,886.1,30.72
5347788,-0.03,-0.08,0.99,1.77,2.14,0.67,886.06,30.72
5347826,-0.04,-0.09,0.99,1.65,2.56,0.98,886.02,30.72
5347864,-0.03,-0.08,1.05,1.65,2.81,0.92,886.05,30.7
5347902,-0.02,-0.08,1.05,1.65,2.87,0.79,886.05,30.72
5347940,-0.04,-0.07,1.08,1.71,2.69,0.67,886.14,30.73
5347979,-0.04,-0.08,1.09,2.14,3.17,0.49,886.07,30.72
5348017,-0.03,-0.08,1.06,2.26,3.54,0.37,886.12,30.73
5348055,-0.03,-0.08,1.05,2.2,3.6,0.31,886.06,30.72
5348093,-0.04,-0.07,1.04,2.2,3.66,0.24,886.09,30.72
5348131,-0.02,-0.07,1.0,2.32,4.33,0.06,886.11,30.72
5348181,-0.01,-0.07,1.0,2.5,4.03,-0.06,886.04,30.71
5348219,-0.02,-0.08,0.99,2.56,3.85,0.12,886.04,30.71
5348257,-0.03,-0.08,1.0,2.5,3.23,-0.18,886.12,30.73
5348296,-0.04,-0.08,0.99,2.32,3.42,-0.06,886.08,30.72
5348334,-0.04,-0.08,1.01,2.14,3.17,-0.12,886.06,30.72
5348372,-0.02,-0.08,0.99,2.08,3.17,-0.31,886.07,30.72
5348410,-0.03,-0.07,1.02,1.53,2.44,-0.31,886.06,30.72
5348448,-0.04,-0.08,1.01,1.83,2.93,-0.18,886.08,30.72
5348487,-0.03,-0.08,1.01,1.53,2.2,-0.31,886.08,30.72
5348536,-0.04,-0.07,1.03,1.83,2.26,-0.31,886.05,30.72
5348575,-0.03,-0.07,1.01,1.71,1.53,-0.37,886.04,30.72
5348613,-0.05,-0.07,1.04,1.77,1.89,-0.31,886.05,30.72
5348651,-0.04,-0.08,1.02,1.77,1.77,-0.43,886.03,30.73
5348689,-0.04,-0.07,1.03,1.83,1.22,-0.43,886.03,30.73
5348727,-0.04,-0.07,1.01,1.77,1.4,-0.43,886.04,30.72
5348766,-0.05,-0.07,1.04,1.71,0.85,-0.43,886.1,30.73
5348804,-0.05,-0.07,1.04,1.53,1.22,-0.43,886.0,30.73
5348842,-0.05,-0.07,1.04,1.71,0.98,-0.37,886.01,30.73
5348880,-0.05,-0.07,1.04,1.77,1.16,-0.43,886.0,30.73
5348930,-0.06,-0.07,1.04,1.77,1.28,-0.31,886.04,30.71
5348968,-0.07,-0.07,1.03,1.95,1.89,-0.43,886.05,30.72
5349006,-0.07,-0.07,1.02,2.14,2.2,-0.31,885.98,30.72
5349044,-0.07,-0.07,1.03,2.32,2.69,-0.12,886.02,30.73
5349082,-0.06,-0.07,1.02,2.5,2.5,-0.18,886.11,30.74
5349121,-0.06,-0.07,1.02,2.38,2.81,-0.24,885.96,30.72
5349159,-0.06,-0.07,1.02,2.56,3.3,-0.06,886.03,30.72
5349197,-0.06,-0.07,1.04,2.5,3.05,0.06,886.03,30.74
5349235,-0.07,-0.07,1.03,2.69,2.75,0.06,886.05,30.73
5349285,-0.06,-0.06,1.04,2.62,2.62,0.31,886.04,30.72
5349323,-0.05,-0.07,1.01,2.69,3.11,0.37,886.05,30.73
5349361,-0.06,-0.06,1.0,2.93,2.69,0.61,886.06,30.73
5349399,-0.07,-0.07,1.0,2.93,2.81,0.49,886.0,30.73
5349438,-0.06,-0.07,0.99,2.93,2.81,0.67,885.99,30.72
5349476,-0.05,-0.07,0.97,2.87,2.99,0.79,886.02,30.73
5349514,-0.06,-0.07,0.94,2.99,2.5,0.73,885.96,30.73
5349552,-0.07,-0.07,0.92,2.69,2.08,0.98,886.01,30.72
5349590,-0.07,-0.07,0.88,2.69,2.26,0.92,886.06,30.73
5349628,-0.06,-0.07,0.88,2.56,1.89,1.16,886.04,30.72
5349704,-0.07,-0.07,0.85,2.38,1.53,1.28,886.05,30.7
5349742,-0.06,-0.07,0.89,2.14,1.53,1.59,886.05,30.72
5349780,-0.06,-0.08,0.86,2.08,1.34,1.59,885.91,30.71
5349870,-0.07,-0.07,0.85,1.95,1.1,2.01,886.03,30.68
5349908,-0.06,-0.07,0.89,2.01,0.24,2.08,886.05,30.7
5349946,-0.05,-0.07,0.87,1.95,0.61,2.26,885.98,30.68
5349984,-0.07,-0.08,0.87,1.77,0.73,2.32,886.02,30.71
5350023,-0.07,-0.08,0.89,1.71,1.65,2.44,886.01,30.71
5350061,-0.06,-0.07,0.88,1.59,1.46,2.32,886.06,30.71
5350099,-0.07,-0.07,0.89,1.34,2.26,2.5,885.99,30.72
5350149,-0.06,-0.07,0.91,1.46,3.23,2.5,886.04,30.71
5350187,-0.05,-0.07,0.96,1.46,3.36,2.62,886.05,30.71
5350225,-0.06,-0.07,0.97,1.4,3.6,2.87,886.07,30.73
5350263,-0.04,-0.07,1.0,1.65,4.76,2.75,886.05,30.72
5350301,-0.06,-0.07,1.0,1.77,5.19,2.93,886.09,30.71
5350340,-0.05,-0.07,1.0,1.59,4.64,2.93,886.06,30.72
5350378,-0.05,-0.06,1.01,1.83,4.46,3.05,886.09,30.73
5350416,-0.06,-0.06,1.0,1.89,4.64,3.3,886.1,30.72
5350454,-0.05,-0.07,1.0,2.08,4.33,3.42,886.07,30.73
5350504,-0.06,-0.06,1.02,1.95,3.85,3.42,886.08,30.71
5350542,-0.06,-0.06,1.02,2.01,4.39,3.36,886.08,30.72
5350580,-0.06,-0.07,1.01,2.38,4.88,3.54,886.03,30.72
5350618,-0.05,-0.06,1.0,2.32,4.82,3.72,886.14,30.72
5350656,-0.05,-0.07,1.0,2.26,4.76,3.66,886.13,30.72
5350695,-0.06,-0.06,0.99,2.5,5.8,3.72,886.07,30.72
5350733,-0.04,-0.07,0.96,2.44,5.37,3.91,886.11,30.72
5350771,-0.04,-0.07,0.98,2.5,4.39,3.85,886.11,30.73
5350809,-0.05,-0.08,0.94,2.75,4.52,3.91,886.09,30.72
5350847,-0.05,-0.07,0.94,2.62,4.7,4.03,886.15,30.74
5350897,-0.05,-0.07,0.96,2.81,4.46,4.03,886.1,30.72
5350935,-0.05,-0.07,0.98,2.75,3.3,4.15,886.13,30.74
5350973,-0.05,-0.07,0.99,2.5,3.42,4.15,886.09,30.73
5351011,-0.03,-0.08,0.99,2.38,3.6,4.27,886.13,30.72
5351049,-0.04,-0.08,0.97,2.2,2.56,4.09,886.08,30.72
5351088,-0.03,-0.07,1.01,2.5,2.26,4.09,886.07,30.72
5351126,-0.03,-0.09,0.95,1.89,3.36,4.09,886.07,30.72
5351164,-0.04,-0.06,1.02,2.01,2.38,3.78,886.13,30.74
5351202,-0.06,-0.08,1.01,2.2,3.54,3.85,886.12,30.73
5351240,-0.03,-0.07,1.03,1.83,3.72,3.85,886.1,30.73
5351290,-0.04,-0.06,1.12,2.01,3.6,3.66,886.15,30.72
5351328,-0.04,-0.06,1.11,1.83,3.42,3.72,886.05,30.73
5351367,-0.02,-0.05,1.15,1.71,3.66,3.78,886.09,30.73
5351405,-0.05,-0.06,1.13,2.01,3.78,3.91,886.09,30.72
5351443,-0.04,-0.07,1.09,1.89,4.03,3.85,886.11,30.73
5351481,-0.07,-0.07,1.09,2.2,4.39,3.85,886.11,30.74
5351519,-0.03,-0.07,1.08,2.38,5.07,3.72,886.08,30.73
5351557,-0.03,-0.07,1.06,2.32,6.59,3.66,886.15,30.73
5351595,-0.04,-0.07,1.06,2.44,6.84,3.72,886.11,30.72
5351645,-0.04,-0.08,1.04,2.69,8.54,3.6,886.11,30.72
5351683,-0.04,-0.07,1.07,2.69,7.32,3.78,886.12,30.73
5351722,-0.03,-0.07,1.06,2.56,7.81,3.97,886.12,30.74
5351760,-0.03,-0.08,1.01,2.56,7.81,3.66,886.1,30.74
5351798,-0.02,-0.07,1.06,2.5,6.96,3.78,886.13,30.73
5351836,-0.03,-0.08,1.0,2.62,7.2,4.09,886.11,30.73
5351874,-0.03,-0.07,1.05,2.62,7.02,3.91,886.17,30.75
5351912,-0.03,-0.08,1.01,2.62,7.26,3.97,886.1,30.73
5351950,-0.03,-0.07,1.01,2.56,5.74,3.91,886.15,30.73
5351989,-0.01,-0.08,1.01,2.5,5.74,3.91,886.17,30.72
5352039,-0.02,-0.08,1.0,2.32,4.76,3.91,886.18,30.73
5352077,-0.03,-0.08,0.94,2.38,4.46,3.85,886.11,30.72
5352115,-0.01,-0.08,0.93,2.14,4.21,3.78,886.11,30.73
5352153,-0.02,-0.08,0.9,2.14,4.46,3.6,886.12,30.73
5352191,-0.03,-0.08,0.9,2.01,3.72,3.66,886.13,30.74
5352229,-0.02,-0.08,0.91,1.83,3.72,3.6,886.11,30.73
5352268,-0.02,-0.09,0.88,1.89,3.91,3.3,886.12,30.74
5352306,-0.02,-0.08,0.93,1.89,3.48,3.3,886.11,30.74
5352344,-0.01,-0.09,0.88,1.46,4.33,3.11,886.14,30.74
5352382,-0.01,-0.08,0.93,1.16,2.99,3.11,886.12,30.73
5352432,-0.02,-0.09,0.91,1.65,3.66,2.99,886.13,30.73
5352470,-0.02,-0.08,0.94,1.28,2.81,3.05,886.1,30.73
5352508,-0.01,-0.07,0.98,1.28,2.93,2.87,886.14,30.74
5352546,-0.01,-0.08,0.95,1.34,2.62,2.87,886.14,30.72
5352584,-0.02,-0.08,1.0,1.16,2.62,2.56,886.13,30.74
5352623,-0.0,-0.09,0.95,1.34,2.69,2.56,886.15,30.74
5352661,-0.01,-0.07,0.98,1.16,2.62,2.56,886.12,30.74
5352699,-0.03,-0.08,0.93,1.28,3.6,2.44,886.13,30.74
5352737,-0.02,-0.08,0.96,1.34,2.75,2.26,886.13,30.73
5352813,-0.01,-0.08,0.99,1.34,3.3,2.08,886.14,30.71
5352851,-0.01,-0.07,1.01,1.59,3.97,1.89,886.1,30.72
5352889,-0.01,-0.08,0.98,1.77,4.03,1.83,886.08,30.72
5352979,-0.03,-0.08,1.02,1.83,4.03,1.59,886.13,30.68
5353017,-0.02,-0.08,1.02,2.01,5.0,1.53,886.15,30.7
5353055,-0.02,-0.08,0.99,2.14,5.0,1.53,886.2,30.71
5353094,-0.06,-0.08,0.98,2.26,4.88,1.22,886.19,30.72
5353132,-0.02,-0.08,0.96,2.44,5.55,1.22,886.16,30.72
5353170,-0.01,-0.08,0.96,2.26,5.86,1.16,886.11,30.71
5353208,-0.02,-0.08,0.95,2.14,5.92,1.04,886.14,30.72
5353258,-0.02,-0.08,0.92,2.14,6.04,0.98,886.19,30.71
5353296,-0.02,-0.08,0.94,2.2,6.16,0.85,886.16,30.72
5353334,-0.01,-0.08,0.92,2.01,6.04,0.85,886.16,30.72
5353372,-0.02,-0.08,0.96,2.01,5.49,0.79,886.1,30.72
5353410,-0.01,-0.09,0.92,1.95,6.1,0.73,886.15,30.73
5353449,-0.03,-0.07,0.96,1.65,5.19,0.67,886.18,30.73
5353487,-0.02,-0.08,0.96,1.59,5.92,0.55,886.18,30.72
5353525,-0.03,-0.08,0.97,1.65,5.68,0.31,886.17,30.72
5353563,-0.03,-0.07,1.01,1.65,5.68,0.37,886.13,30.73
5353601,-0.02,-0.08,1.0,1.53,5.68,0.24,886.17,30.72
5353651,-0.03,-0.07,1.01,1.34,5.31,0.24,886.21,30.72
5353689,-0.03,-0.08,1.0,1.1,5.07,0.37,886.18,30.73
5353728,-0.04,-0.08,0.99,1.4,4.94,0.31,886.24,30.73
5353766,-0.03,-0.08,0.99,1.4,4.21,0.31,886.16,30.74
5353804,-0.04,-0.07,0.99,1.59,4.03,0.24,886.19,30.74
5353842,-0.04,-0.08,0.99,1.71,3.91,0.31,886.15,30.73
5353880,-0.04,-0.07,1.01,1.77,3.48,0.37,886.19,30.73
5353919,-0.04,-0.08,1.01,1.71,3.42,0.31,886.11,30.72
5353957,-0.03,-0.07,1.0,1.65,3.11,0.24,886.2,30.74
5354007,-0.03,-0.07,1.01,1.89,2.93,0.24,886.22,30.73
5354045,-0.03,-0.07,1.0,1.71,2.38,0.24,886.2,30.73
5354083,-0.03,-0.07,1.03,1.95,1.83,0.18,886.13,30.73
5354121,-0.03,-0.07,1.01,1.83,1.89,0.31,886.19,30.72
5354159,-0.04,-0.07,1.03,1.89,1.83,0.24,886.16,30.72
5354197,-0.04,-0.07,1.03,1.77,2.08,0.24,886.19,30.73
5354235,-0.04,-0.08,1.05,1.71,1.89,0.18,886.14,30.73
5354274,-0.03,-0.07,1.06,1.83,2.62,0.12,886.2,30.74
5354312,-0.04,-0.08,1.02,2.08,3.3,0.12,886.21,30.73
5354350,-0.04,-0.08,1.01,2.38,2.93,0.06,886.25,30.74
5354400,-0.05,-0.07,0.95,2.38,3.78,0.0,886.21,30.73
5354438,-0.04,-0.07,0.94,2.01,3.54,-0.18,886.23,30.73
5354476,-0.03,-0.07,0.95,1.89,3.78,-0.12,886.14,30.72
5354514,-0.03,-0.08,0.99,1.83,3.72,-0.06,886.18,30.74
5354553,-0.04,-0.08,1.02,1.95,3.11,0.12,886.19,30.73
5354591,-0.05,-0.08,1.02,2.08,2.44,0.12,886.18,30.74
5354629,-0.04,-0.08,1.02,1.95,2.44,0.0,886.16,30.73
5354667,-0.05,-0.08,0.96,2.01,2.26,0.18,886.23,30.74
5354705,-0.06,-0.07,0.99,2.14,2.62,0.12,886.15,30.74
5354743,-0.07,-0.08,0.95,2.26,2.81,0.12,886.19,30.73
5354793,-0.06,-0.08,1.01,2.2,2.99,0.31,886.18,30.72
5354831,-0.05,-0.08,0.99,1.89,4.03,0.18,886.09,30.73
5354870,-0.06,-0.06,1.07,1.46,3.91,0.18,886.14,30.74
5354908,-0.08,-0.07,1.09,1.28,4.64,0.79,886.16,30.74
5354946,-0.05,-0.07,1.07,1.4,5.0,0.67,886.17,30.74
5354984,-0.06,-0.07,1.09,1.65,5.25,0.79,886.17,30.74
5355022,-0.05,-0.07,1.04,2.14,4.39,0.98,886.18,30.73
5355061,-0.06,-0.07,1.07,2.32,4.15,0.85,886.17,30.73
5355099,-0.04,-0.07,1.03,2.38,4.52,1.16,886.17,30.73
5355148,-0.06,-0.07,1.01,2.32,4.09,1.16,886.18,30.71
5355187,-0.06,-0.07,0.99,2.38,4.33,1.4,886.21,30.74
5355225,-0.04,-0.08,0.97,2.14,3.48,1.46,886.16,30.75
5355263,-0.05,-0.06,0.98,2.01,3.48,1.46,886.16,30.72
5355301,-0.05,-0.08,0.93,1.65,3.97,1.65,886.15,30.73
5355339,-0.06,-0.07,0.88,1.71,3.23,1.65,886.18,30.73
5355377,-0.05,-0.07,0.88,1.65,3.05,1.83,886.09,30.73
5355416,-0.07,-0.07,0.89,1.59,3.3,1.65,886.11,30.73
5355454,-0.06,-0.07,1.02,1.71,4.15,1.89,886.09,30.74
5355492,-0.03,-0.07,1.06,1.46,3.97,1.71,886.12,30.73
5355542,-0.05,-0.06,1.12,0.55,5.25,1.95,886.11,30.72
5355580,-0.02,-0.06,1.27,0.61,4.58,2.01,886.1,30.73
5355618,-0.06,-0.06,1.25,1.04,4.21,2.08,886.16,30.73
5355656,-0.07,-0.07,1.2,1.65,3.05,2.26,886.13,30.73
5355694,-0.05,-0.07,1.14,1.65,3.42,1.95,886.21,30.73
5355732,-0.04,-0.04,1.13,1.77,2.5,2.08,886.18,30.74
5355771,-0.03,-0.07,1.08,1.77,2.14,2.38,886.11,30.73
5355809,-0.04,-0.07,1.07,1.4,1.04,2.38,886.11,30.73
5355847,-0.06,-0.07,1.1,1.16,0.37,2.2,886.13,30.74
5355923,-0.04,-0.08,1.03,0.61,-0.43,2.2,886.14,30.72
5355961,-0.04,-0.07,0.99,0.43,-0.37,2.26,886.14,30.73
5355999,-0.05,-0.07,0.99,0.79,-0.61,2.26,886.16,30.72
5356089,-0.06,-0.07,0.99,0.61,-1.4,2.26,886.17,30.7
5356127,-0.05,-0.08,0.96,0.49,-1.4,2.32,886.1,30.71
5356165,-0.05,-0.06,1.05,0.43,-1.77,2.14,886.07,30.71
5356203,-0.05,-0.08,1.02,0.24,0.0,1.89,886.17,30.72
5356241,-0.03,-0.07,1.07,0.37,-0.92,2.08,886.12,30.72
5356280,-0.06,-0.07,1.05,0.67,0.12,2.14,886.21,30.72
5356318,-0.06,-0.07,0.99,0.79,0.0,2.2,886.19,30.72
5356368,-0.04,-0.07,1.01,1.16,0.67,1.95,886.12,30.7
5356406,-0.05,-0.08,0.89,1.16,1.4,2.32,886.13,30.71
5356444,-0.04,-0.07,0.9,0.98,0.79,2.14,886.14,30.72
5356482,-0.05,-0.08,0.9,1.1,1.77,2.32,886.19,30.72
5356520,-0.07,-0.08,0.88,1.22,0.24,2.38,886.16,30.73
5356558,-0.08,-0.08,0.86,1.28,1.89,2.38,886.13,30.72
5356597,-0.04,-0.08,0.88,1.1,1.53,2.38,886.13,30.72
5356635,-0.04,-0.07,0.9,1.04,2.93,2.26,886.16,30.72
5356673,-0.05,-0.08,0.88,1.4,3.72,2.44,886.17,30.72
5356711,-0.05,-0.08,0.91,1.34,4.76,2.44,886.13,30.73
5356761,-0.05,-0.07,0.92,1.65,6.23,2.26,886.12,30.71
5356799,-0.03,-0.07,0.98,1.71,6.9,2.2,886.07,30.72
5356837,-0.06,-0.08,1.04,2.01,6.41,2.44,886.12,30.72
5356875,-0.03,-0.08,1.04,2.14,7.02,2.32,886.17,30.73
5356914,-0.04,-0.07,1.11,2.38,6.71,2.32,886.14,30.71
5356952,-0.02,-0.07,1.1,2.56,6.77,2.56,886.14,30.73
5356990,-0.02,-0.07,1.12,2.69,5.92,2.44,886.11,30.74
5357028,-0.06,-0.07,1.08,2.75,5.49,2.44,886.1,30.74
5357066,-0.04,-0.08,1.05,2.62,4.7,2.62,886.1,30.72
5357116,-0.02,-0.07,1.05,2.69,4.33,2.5,886.14,30.72
5357154,-0.05,-0.08,1.02,2.56,3.72,2.5,886.12,30.73
5357193,-0.04,-0.08,1.01,2.38,3.23,2.62,886.15,30.74
5357231,-0.04,-0.08,0.99,2.38,3.42,2.56,886.16,30.72
5357269,-0.03,-0.08,1.0,2.26,3.17,2.5,886.08,30.74
5357307,-0.05,-0.08,1.01,2.2,2.99,2.44,886.09,30.73
5357345,-0.04,-0.08,0.99,1.95,2.87,2.44,886.11,30.75
5357384,-0.04,-0.08,1.0,1.83,2.93,2.14,886.09,30.73
5357422,-0.03,-0.08,1.0,1.89,2.81,2.26,886.07,30.73
5357460,-0.06,-0.09,1.01,1.89,2.93,2.32,886.13,30.75
5357510,-0.04,-0.08,1.0,1.46,2.69,2.26,886.15,30.74
5357548,-0.05,-0.08,1.0,1.71,3.48,2.2,886.12,30.74
5357586,-0.03,-0.08,1.0,1.4,2.75,2.01,886.12,30.74
5357624,-0.03,-0.07,1.01,1.4,3.05,1.89,886.1,30.73
5357663,-0.04,-0.08,0.97,1.22,2.56,2.14,886.07,30.74
5357701,-0.04,-0.06,1.08,1.28,1.16,2.32,886.12,30.76
5357739,-0.04,-0.09,1.04,1.34,1.89,2.38,886.06,30.74
5357777,-0.04,-0.08,1.1,1.34,1.71,2.14,886.14,30.75
5357815,-0.03,-0.07,1.1,1.4,3.17,2.2,886.13,30.76
5357854,-0.02,-0.08,1.09,1.04,2.87,2.26,886.11,30.74
5357904,-0.02,-0.08,1.07,1.16,4.09,2.08,886.11,30.74
5357942,-0.04,-0.07,1.06,1.28,4.33,1.89,886.09,30.74
5357980,-0.03,-0.07,1.07,1.34,4.03,1.59,886.12,30.74
5358018,-0.03,-0.07,1.06,1.65,3.91,1.46,886.03,30.72
5358056,-0.02,-0.08,1.07,1.59,3.66,1.46,886.09,30.74
5358094,-0.03,-0.09,1.08,2.08,4.7,1.65,886.07,30.75
5358133,-0.02,-0.09,1.04,2.01,4.39,1.28,886.09,30.75
5358171,-0.03,-0.07,1.02,1.71,3.97,1.28,886.06,30.76
