timestamp,acc_x,acc_y,acc_z,rot_x,rot_y,rot_z,qfe,temp,Unnamed: 10
3887510,-0.01,-0.0,1.15,0.18,3.3,2.01,891.29,23.91,
3887548,-0.02,-0.02,1.18,0.12,3.23,2.26,891.31,23.91,
3887586,-0.03,-0.01,1.23,0.43,2.14,2.26,891.28,23.91,
3887624,-0.02,-0.01,1.25,0.37,2.14,2.75,891.29,23.91,
3887674,-0.02,-0.01,1.23,0.92,-0.49,2.99,891.22,23.9,
3887713,-0.02,-0.02,1.18,0.98,-0.12,3.05,891.26,23.9,
3887751,-0.02,-0.02,1.13,1.16,-1.71,3.17,891.23,23.89,
3887789,-0.01,-0.03,1.1,1.34,-2.81,3.54,891.18,23.9,
3887827,-0.0,-0.02,1.06,1.53,-4.46,3.72,891.24,23.91,
3887866,-0.03,-0.03,1.0,1.77,-5.25,3.6,891.2,23.91,
3887904,-0.02,-0.02,0.96,1.83,-6.53,3.78,891.21,23.91,
3887942,-0.01,-0.03,1.0,2.5,-7.63,4.03,891.17,23.91,
3887980,-0.01,-0.05,0.92,2.01,-7.81,4.03,891.19,23.9,
3888030,-0.02,-0.03,0.96,2.87,-8.24,4.03,891.13,23.88,
3888069,-0.02,-0.05,0.86,2.32,-8.12,4.27,891.18,23.91,
3888107,-0.04,-0.03,0.88,3.17,-8.91,4.21,891.18,23.91,
3888145,-0.03,-0.05,0.83,2.93,-7.26,4.27,891.19,23.9,
3888183,-0.02,-0.05,0.82,3.23,-7.63,4.21,891.12,23.89,
3888222,-0.03,-0.05,0.8,3.42,-7.02,4.27,891.16,23.91,
3888260,-0.02,-0.06,0.71,3.23,-6.53,4.58,891.15,23.91,
3888298,-0.01,-0.05,0.71,3.36,-5.98,4.33,891.06,23.9,
3888336,-0.02,-0.06,0.66,3.42,-5.13,4.46,891.1,23.9,
3888375,-0.03,-0.05,0.65,3.66,-4.88,4.52,891.15,23.92,
3888425,-0.01,-0.06,0.62,3.11,-4.03,4.27,891.07,23.9,
3888463,-0.01,-0.06,0.64,2.99,-2.75,4.27,891.13,23.91,
3888501,-0.01,-0.06,0.64,2.81,-2.08,4.46,891.0,23.9,
3888539,-0.02,-0.05,0.7,2.62,-1.95,4.27,891.03,23.92,
3888578,-0.03,-0.06,0.7,2.14,-0.43,4.33,891.01,23.91,
3888616,-0.01,-0.05,0.74,1.53,0.55,4.27,891.0,23.91,
3888654,-0.01,-0.04,0.75,1.4,1.22,4.27,891.0,23.91,
3888692,-0.01,-0.04,0.79,1.04,1.16,4.15,891.02,23.91,
3888731,-0.01,-0.04,0.82,0.85,2.56,4.15,891.01,23.91,
3888781,-0.01,-0.03,0.87,0.67,2.81,4.46,891.08,23.9,
3888819,-0.01,-0.04,0.88,0.98,3.3,4.27,890.99,23.9,
3888857,-0.02,-0.03,0.86,1.04,3.72,4.27,891.03,23.91,
3888895,-0.01,-0.03,0.87,1.46,4.21,4.27,891.02,23.91,
3888934,-0.01,-0.03,0.87,1.28,4.33,4.33,891.03,23.91,
3888972,-0.01,-0.03,0.85,1.83,4.52,4.52,890.99,23.91,
3889010,-0.01,-0.03,0.87,1.77,5.07,4.21,890.99,23.9,
3889048,-0.0,-0.02,0.91,2.08,5.49,4.21,891.0,23.92,
3889087,-0.01,-0.03,0.92,2.08,6.16,4.39,891.01,23.91,
3889125,-0.01,-0.04,0.89,2.26,6.41,4.09,890.93,23.91,
3889175,-0.01,-0.02,0.92,2.38,7.26,3.91,890.97,23.9,
3889213,0.01,-0.04,0.9,2.5,7.87,3.85,890.98,23.91,
3889251,-0.01,-0.03,0.9,2.62,8.12,3.72,890.96,23.91,
3889290,-0.02,-0.02,0.95,3.05,8.85,3.78,890.95,23.91,
3889328,-0.02,-0.03,0.93,3.11,9.4,4.03,890.98,23.9,
3889366,-0.01,-0.02,0.96,3.66,8.73,3.97,890.97,23.91,
3889404,-0.02,-0.02,0.94,3.91,9.58,3.91,891.02,23.91,
3889443,-0.01,-0.03,0.93,4.21,8.91,4.27,890.95,23.91,
3889481,0.01,-0.02,0.95,4.09,8.79,4.33,891.03,23.92,
3889519,-0.01,-0.02,0.92,4.09,8.61,4.39,890.97,23.91,
3889595,-0.01,-0.03,0.96,3.91,8.06,4.52,891.0,23.88,
3889633,0.01,-0.02,0.96,3.78,7.39,4.27,890.94,23.9,
3889672,-0.0,-0.02,0.99,3.36,6.53,4.27,890.89,23.89,
3889762,0.0,-0.02,0.96,2.75,6.29,4.15,891.0,23.87,
3889800,-0.0,-0.02,0.97,2.56,5.8,4.21,890.98,23.87,
3889838,-0.02,-0.04,0.9,2.08,6.16,4.21,890.96,23.88,
3889876,0.0,-0.03,0.91,1.89,5.74,4.09,890.98,23.89,
3889914,0.01,-0.03,0.88,1.65,6.04,3.85,890.94,23.88,
3889953,0.0,-0.03,0.86,1.77,5.07,3.78,890.92,23.89,
3890003,-0.0,-0.04,0.86,1.71,5.92,3.91,890.97,23.87,
3890041,0.0,-0.03,0.9,1.71,5.31,3.78,890.98,23.88,
3890079,-0.0,-0.03,0.93,1.53,5.62,3.85,890.99,23.89,
3890117,-0.0,-0.03,0.94,1.28,5.31,3.72,890.93,23.89,
3890156,-0.01,-0.01,1.01,1.34,4.33,3.48,890.96,23.89,
3890194,0.0,-0.02,1.02,0.73,4.94,3.78,890.96,23.89,
3890232,0.02,-0.02,1.03,0.67,3.97,3.66,890.96,23.9,
3890270,-0.01,-0.01,1.03,0.37,3.85,3.66,890.93,23.89,
3890309,0.01,-0.01,1.07,0.24,3.48,3.6,890.93,23.9,
3890347,0.01,-0.01,1.05,0.0,3.97,3.3,890.92,23.88,
3890397,0.01,-0.01,1.07,0.18,3.78,3.17,890.94,23.89,
3890435,0.02,-0.01,1.11,0.31,4.09,2.93,890.89,23.9,
3890473,0.0,-0.01,1.1,0.06,4.15,2.87,890.9,23.89,
3890511,0.0,0.01,1.14,0.18,3.48,2.87,890.87,23.91,
3890550,0.02,0.0,1.15,0.12,3.48,2.56,890.92,23.89,
3890588,0.01,-0.0,1.12,0.18,2.81,2.62,891.01,23.9,
3890626,0.0,0.01,1.16,0.49,1.4,2.62,890.92,23.91,
3890664,0.01,0.0,1.08,0.24,1.34,2.56,890.98,23.91,
3890703,0.02,0.01,1.1,0.73,0.37,2.44,890.96,23.91,
3890741,0.01,-0.01,1.04,0.55,0.79,2.44,890.92,23.9,
3890791,0.01,-0.01,1.04,1.1,0.43,1.95,890.87,23.89,
3890829,0.01,-0.01,1.0,1.34,1.71,1.59,890.89,23.9,
3890867,0.01,-0.01,1.0,1.59,1.71,1.46,890.94,23.89,
3890905,0.01,-0.02,0.97,1.77,2.81,1.16,890.85,23.89,
3890944,-0.0,-0.02,0.96,2.26,3.48,0.98,890.9,23.91,
3890982,0.0,-0.02,0.93,2.26,4.15,0.98,890.97,23.91,
3891020,-0.01,-0.02,0.92,2.32,4.03,0.79,891.0,23.91,
3891058,-0.01,-0.02,0.9,2.5,4.33,0.67,890.98,23.9,
3891097,0.0,-0.03,0.89,2.32,4.52,0.55,890.92,23.91,
3891135,-0.0,-0.04,0.86,2.38,5.19,0.67,890.88,23.91,
3891185,0.0,-0.03,0.86,2.44,5.68,0.43,890.98,23.9,
3891223,-0.01,-0.03,0.85,2.38,6.23,0.37,890.93,23.89,
3891261,-0.01,-0.04,0.85,2.32,6.1,0.31,890.96,23.9,
3891299,0.0,-0.03,0.86,2.32,6.65,0.0,890.9,23.91,
3891338,-0.0,-0.03,0.86,2.32,7.02,0.0,890.99,23.92,
3891376,0.0,-0.03,0.85,2.08,6.65,0.0,890.96,23.91,
3891414,0.0,-0.03,0.87,2.38,5.86,0.06,890.96,23.9,
3891452,-0.01,-0.04,0.85,1.83,5.62,0.06,890.93,23.9,
3891490,-0.0,-0.03,0.92,1.95,4.46,0.06,890.93,23.91,
3891529,0.0,-0.03,0.91,1.77,4.39,-0.06,890.89,23.91,
3891579,-0.01,-0.01,0.95,1.46,3.11,-0.06,890.91,23.89,
3891617,-0.0,-0.03,0.97,1.28,3.72,-0.12,890.9,23.91,
3891655,0.0,-0.02,0.98,1.16,3.17,-0.12,890.93,23.9,
3891693,-0.02,-0.01,1.01,1.16,2.62,-0.24,890.89,23.9,
3891732,-0.02,-0.02,0.99,1.4,2.26,-0.06,890.95,23.91,
3891770,-0.01,-0.02,1.0,1.65,2.14,-0.37,890.96,23.91,
3891808,-0.02,-0.02,0.97,1.46,2.26,-0.49,890.93,23.91,
3891846,-0.01,-0.02,0.97,1.89,2.14,-0.61,890.93,23.91,
3891885,0.0,-0.02,0.96,1.71,3.23,-0.79,890.89,23.9,
3891934,-0.0,-0.02,0.95,1.83,3.6,-0.98,890.92,23.89,
3891973,-0.01,-0.02,0.96,2.01,3.23,-1.1,890.96,23.89,
3892011,-0.01,-0.02,0.95,2.2,3.11,-1.28,890.91,23.91,
3892049,-0.01,-0.02,0.93,1.89,3.17,-1.28,890.92,23.9,
3892087,-0.01,-0.03,0.95,2.44,2.93,-1.22,890.93,23.91,
3892126,-0.0,-0.03,0.93,2.44,2.56,-1.16,890.93,23.91,
3892164,-0.02,-0.03,0.9,2.62,2.81,-1.46,890.92,23.91,
3892202,-0.02,-0.03,0.9,2.69,3.48,-1.59,890.92,23.91,
3892240,-0.0,-0.03,0.89,2.56,3.42,-1.65,890.93,23.92,
3892279,-0.01,-0.03,0.88,2.44,3.36,-1.71,890.9,23.91,
3892329,-0.02,-0.03,0.88,2.14,3.91,-1.77,890.94,23.89,
3892367,-0.01,-0.03,0.91,2.14,3.85,-1.77,890.92,23.9,
3892405,-0.01,-0.03,0.91,1.71,3.3,-1.89,890.96,23.92,
3892443,-0.02,-0.02,0.94,1.71,2.99,-1.89,890.93,23.91,
3892482,-0.01,-0.01,0.99,1.53,3.78,-1.89,890.9,23.91,
3892520,-0.01,-0.02,1.02,1.34,3.85,-1.77,890.89,23.9,
3892558,-0.01,-0.01,1.05,1.16,3.66,-1.89,890.95,23.92,
3892596,-0.02,-0.0,1.08,0.92,3.66,-1.89,890.9,23.9,
3892635,-0.02,0.0,1.1,0.55,4.09,-1.77,890.92,23.91,
3892711,-0.01,0.01,1.19,0.55,2.69,-1.83,890.91,23.89,
3892749,-0.02,0.0,1.19,0.37,2.5,-1.77,890.91,23.9,
3892787,-0.02,0.01,1.21,0.61,2.38,-1.95,890.91,23.89,
3892877,-0.02,0.01,1.15,1.16,1.71,-1.71,890.87,23.86,
3892915,-0.03,0.0,1.13,1.28,1.89,-1.77,890.95,23.88,
3892953,-0.02,-0.01,1.1,1.22,2.14,-1.77,890.9,23.89,
3892991,-0.02,-0.0,1.1,1.46,1.95,-1.65,890.92,23.89,
3893030,-0.02,-0.01,1.07,1.65,1.46,-1.77,890.96,23.89,
3893068,-0.02,-0.01,1.05,1.71,1.34,-1.71,890.94,23.89,
3893106,-0.03,-0.01,1.03,1.77,1.04,-1.83,890.93,23.89,
3893156,-0.02,-0.02,1.01,1.83,1.53,-1.83,890.96,23.88,
3893194,-0.02,-0.01,0.99,1.59,1.53,-2.01,890.95,23.89,
3893233,-0.02,-0.01,1.02,1.59,1.95,-2.2,890.92,23.89,
3893271,-0.02,-0.01,1.0,1.46,2.08,-2.08,890.94,23.89,
3893309,-0.03,-0.0,1.05,1.46,1.59,-2.08,890.95,23.91,
3893347,-0.02,-0.01,1.03,1.04,1.83,-2.08,890.92,23.89,
3893386,-0.03,0.01,1.08,1.34,1.1,-2.08,890.9,23.89,
3893424,-0.02,-0.01,1.06,0.79,1.77,-2.08,890.89,23.88,
3893462,-0.03,-0.01,1.07,0.92,0.92,-2.01,890.91,23.89,
3893512,-0.03,-0.01,1.05,1.16,1.4,-1.89,890.92,23.89,
3893550,-0.03,-0.01,1.02,1.71,0.73,-1.83,890.96,23.9,
3893589,-0.03,-0.01,1.0,2.01,0.43,-1.95,890.95,23.9,
3893627,-0.03,-0.03,0.94,2.5,0.12,-1.77,890.92,23.89,
3893665,-0.04,-0.04,0.88,2.44,-0.49,-1.53,890.96,23.9,
3893703,-0.04,-0.04,0.85,2.62,-1.4,-1.46,890.9,23.91,
3893742,-0.04,-0.04,0.81,2.69,-1.46,-1.53,890.94,23.9,
3893780,-0.05,-0.04,0.77,2.56,-1.28,-1.34,890.92,23.91,
3893818,-0.03,-0.04,0.75,2.32,-1.16,-1.53,890.91,23.9,
3893856,-0.03,-0.04,0.78,2.5,-0.79,-1.53,890.88,23.91,
3893906,-0.05,-0.04,0.79,1.77,0.49,-1.53,890.89,23.9,
3893945,-0.04,-0.04,0.84,1.83,1.71,-1.4,890.89,23.89,
3893983,-0.05,-0.03,0.85,1.34,2.56,-1.4,890.83,23.89,
3894021,-0.06,-0.03,0.89,1.59,3.05,-1.16,890.88,23.9,
3894059,-0.05,-0.04,0.89,1.28,4.15,-1.16,890.89,23.89,
3894098,-0.04,-0.02,0.95,1.53,4.76,-1.04,890.89,23.89,
3894136,-0.06,-0.03,0.92,1.65,5.49,-0.67,890.94,23.9,
3894174,-0.04,-0.03,0.96,2.2,5.07,-0.73,890.85,23.91,
3894212,-0.05,-0.03,0.92,1.71,6.1,-0.55,890.86,23.9,
3894262,-0.04,-0.02,0.98,1.95,5.55,-0.18,890.85,23.89,
3894301,-0.03,-0.02,0.96,1.53,5.74,-0.12,890.85,23.91,
3894339,-0.05,-0.01,1.03,1.71,4.58,0.12,890.84,23.9,
3894377,-0.04,-0.03,1.04,1.46,5.13,0.31,890.78,23.9,
3894415,-0.05,-0.02,1.06,1.46,4.09,0.43,890.81,23.9,
3894454,-0.06,-0.01,1.06,1.16,3.85,0.67,890.81,23.89,
3894492,-0.06,-0.0,1.06,1.16,3.23,0.79,890.78,23.9,
3894530,-0.04,-0.02,1.03,1.16,2.99,0.85,890.8,23.89,
3894568,-0.04,-0.03,1.02,1.04,2.44,0.98,890.85,23.91,
3894607,-0.05,-0.03,0.98,1.34,3.42,1.22,890.84,23.91,
3894657,-0.03,-0.01,0.98,1.59,3.3,1.22,890.87,23.9,
3894695,-0.05,-0.02,0.95,1.71,3.23,1.65,890.8,23.88,
3894733,-0.06,-0.05,0.94,1.95,2.69,1.71,890.86,23.89,
3894771,-0.05,-0.05,0.92,2.14,2.69,1.89,890.84,23.89,
3894810,-0.03,-0.02,0.92,2.32,1.83,1.95,890.82,23.89,
3894848,-0.05,-0.03,0.87,2.2,1.83,2.14,890.87,23.9,
3894886,-0.06,-0.04,0.83,2.14,1.65,2.26,890.88,23.9,
3894924,-0.05,-0.05,0.84,1.83,1.71,2.38,890.83,23.91,
3894963,-0.06,-0.04,0.83,1.4,1.77,2.56,890.86,23.9,
3895013,-0.05,-0.04,0.84,1.1,2.26,2.56,890.85,23.88,
3895051,-0.05,-0.03,0.9,0.92,2.99,2.5,890.91,23.89,
3895089,-0.04,-0.04,0.9,0.79,4.15,2.56,890.91,23.91,
3895127,-0.05,-0.04,0.91,0.31,4.46,2.5,890.9,23.91,
3895166,-0.05,-0.02,0.93,0.18,4.94,2.56,890.85,23.9,
3895204,-0.05,-0.01,0.91,0.06,6.23,2.62,890.89,23.9,
3895242,-0.05,-0.02,0.94,0.06,6.23,2.62,890.85,23.89,
3895280,-0.05,-0.03,0.97,-0.12,5.8,2.75,890.84,23.9,
3895319,-0.04,-0.02,1.0,0.0,5.37,3.05,890.89,23.9,
3895357,-0.04,-0.0,1.05,0.0,5.98,3.11,890.95,23.91,
3895407,-0.02,-0.0,1.07,0.12,5.31,3.17,890.91,23.88,
3895445,-0.04,-0.0,1.09,0.55,4.76,3.23,890.87,23.9,
3895483,-0.03,-0.01,1.03,0.24,5.19,3.17,890.91,23.9,
3895521,-0.01,0.01,1.11,0.61,4.27,3.05,890.93,23.89,
3895560,-0.02,0.0,1.1,0.31,4.52,3.23,890.89,23.89,
3895598,-0.03,-0.0,1.09,0.85,3.78,3.36,890.91,23.91,
3895636,-0.03,0.0,1.11,0.92,4.52,3.23,890.95,23.9,
3895674,-0.03,0.01,1.13,1.16,3.78,3.23,890.94,23.9,
3895713,-0.03,0.02,1.14,1.46,3.23,3.3,890.88,23.91,
3895751,-0.02,0.01,1.15,1.89,2.62,3.3,890.88,23.91,
3895828,-0.02,0.01,1.12,1.71,1.71,3.48,890.94,23.87,
3895866,-0.02,0.01,1.1,1.71,1.53,3.3,891.02,23.9,
3895905,-0.02,0.01,1.1,1.95,0.73,3.17,890.94,23.88,
3895994,-0.02,-0.0,1.07,2.38,0.31,3.17,890.9,23.85,
3896033,-0.02,0.0,1.09,2.56,0.31,3.36,890.99,23.87,
3896071,-0.02,0.0,1.07,2.56,0.73,3.17,890.95,23.88,
3896109,-0.02,-0.0,1.07,2.81,0.49,2.99,891.01,23.87,
3896147,-0.02,-0.0,1.07,2.87,0.31,2.81,890.96,23.89,
3896186,-0.02,-0.0,1.05,2.81,0.61,2.99,890.95,23.88,
3896236,-0.01,0.0,1.06,2.69,0.98,2.69,890.94,23.88,
3896274,-0.02,0.0,1.07,2.81,0.73,2.56,890.93,23.88,
3896312,-0.02,-0.0,1.08,2.75,0.79,2.69,890.92,23.89,
3896350,-0.02,-0.01,1.06,2.87,0.49,2.69,890.91,23.88,
3896389,-0.02,0.0,1.07,2.81,0.55,2.62,890.94,23.9,
3896427,-0.02,-0.01,1.03,2.75,0.55,2.5,890.96,23.89,
3896465,-0.02,-0.0,1.08,2.87,0.12,2.32,891.02,23.9,
3896503,-0.01,-0.01,1.03,2.69,0.79,2.2,891.0,23.88,
3896542,-0.02,0.0,1.04,3.05,0.37,2.08,890.94,23.89,
3896580,-0.02,-0.01,1.05,2.99,0.61,2.01,890.96,23.9,
3896630,-0.02,-0.01,1.03,3.05,0.79,1.83,891.0,23.88,
3896668,-0.02,-0.01,1.05,2.87,1.4,1.83,890.94,23.89,
3896706,-0.02,-0.01,1.02,2.81,2.26,1.71,890.95,23.89,
3896745,-0.01,-0.01,1.03,2.81,2.38,1.46,890.98,23.89,
3896783,-0.02,-0.02,1.01,2.69,2.75,1.46,890.99,23.89,
3896821,-0.02,-0.02,1.0,2.81,2.62,1.46,890.95,23.88,
3896859,-0.02,-0.01,1.02,2.62,2.69,1.4,890.93,23.9,
3896898,-0.01,-0.02,0.99,2.62,2.99,1.16,890.96,23.88,
3896936,-0.03,-0.02,1.02,2.44,3.17,1.16,890.9,23.88,
3896974,-0.01,-0.02,1.01,2.44,4.27,1.22,890.94,23.89,
3897024,-0.02,-0.01,1.05,2.26,4.39,1.22,890.97,23.89,
3897062,-0.03,-0.02,1.02,2.14,4.64,1.22,890.94,23.9,
3897101,-0.01,-0.02,1.04,2.2,5.0,1.34,890.91,23.89,
3897139,-0.01,-0.02,1.02,2.2,5.13,1.34,890.97,23.9,
3897177,-0.03,-0.01,1.02,2.44,4.76,1.34,890.88,23.88,
3897215,-0.02,-0.02,1.0,2.2,5.19,1.34,890.92,23.9,
3897254,-0.01,-0.02,1.05,2.26,4.82,1.16,890.9,23.89,
3897292,-0.01,-0.02,1.02,1.89,5.25,1.22,890.89,23.89,
3897330,-0.01,-0.02,1.06,1.71,4.39,1.22,890.93,23.91,
3897380,-0.0,-0.02,1.05,1.77,4.58,0.98,890.9,23.88,
3897418,-0.01,-0.03,1.05,1.71,4.15,1.04,890.91,23.88,
3897457,-0.02,-0.02,1.03,1.59,4.15,1.04,890.88,23.9,
3897495,-0.01,-0.02,1.02,1.65,3.78,0.92,890.93,23.9,
3897533,-0.0,-0.02,1.03,1.59,3.48,1.04,890.9,23.9,
3897571,-0.01,-0.03,1.02,1.83,2.44,1.04,890.92,23.9,
3897610,-0.02,-0.03,1.02,1.77,2.69,1.04,890.92,23.9,
3897648,-0.02,-0.03,1.02,1.83,2.56,0.92,890.94,23.9,
3897686,-0.01,-0.03,1.02,1.83,2.38,1.1,890.95,23.9,
3897724,-0.01,-0.03,0.98,1.65,2.01,0.92,890.91,23.9,
3897774,-0.02,-0.03,0.98,1.71,2.26,0.92,890.93,23.89,
3897812,-0.01,-0.03,0.97,1.65,2.26,0.79,890.9,23.89,
3897851,-0.01,-0.03,0.97,1.4,2.26,0.61,890.89,23.9,
3897889,-0.02,-0.03,0.97,1.22,2.81,0.55,890.89,23.89,
3897927,-0.01,-0.03,0.99,1.04,3.17,0.49,890.9,23.89,
3897965,-0.01,-0.03,1.01,1.1,3.05,0.55,890.91,23.9,
3898004,-0.01,-0.03,1.01,1.1,2.99,0.49,890.87,23.89,
3898042,-0.02,-0.03,0.99,1.04,3.36,0.49,890.91,23.89,
3898080,-0.02,-0.03,0.99,0.98,3.42,0.24,890.89,23.9,
3898118,-0.02,-0.03,0.99,1.1,3.3,0.37,890.93,23.9,
3898168,-0.01,-0.03,0.98,0.92,3.48,0.37,890.89,23.89,
3898207,-0.01,-0.03,1.01,1.04,3.54,0.31,890.87,23.89,
3898245,-0.01,-0.03,0.95,0.55,3.78,0.31,890.87,23.9,
3898283,-0.02,-0.02,1.03,1.1,3.54,0.37,890.93,23.9,
3898321,-0.01,-0.04,0.97,0.67,4.03,0.37,890.9,23.9,
3898360,-0.01,-0.02,0.99,0.92,3.36,0.31,890.83,23.88,
3898398,-0.02,-0.03,0.98,0.67,4.15,0.24,890.88,23.9,
3898436,-0.01,-0.03,0.99,0.67,4.03,0.12,890.9,23.9,
3898474,-0.01,-0.03,1.0,0.61,4.27,0.18,890.9,23.89,
3898524,-0.01,-0.02,1.0,0.79,4.39,0.12,890.88,23.88,
3898563,-0.01,-0.03,1.0,0.67,4.7,0.0,890.86,23.89,
3898601,-0.01,-0.02,1.0,0.79,4.64,0.06,890.9,23.9,
3898639,-0.01,-0.02,1.03,0.85,4.82,-0.12,890.78,23.9,
3898677,-0.01,-0.02,1.02,1.04,5.07,-0.12,890.84,23.89,
3898715,-0.02,-0.02,1.04,1.16,4.88,-0.12,890.87,23.9,
3898753,-0.01,-0.02,1.03,1.28,5.74,-0.18,890.88,23.91,
3898792,0.0,-0.02,1.04,1.34,5.74,-0.31,890.79,23.89,
3898830,-0.01,-0.01,1.06,1.46,5.62,-0.31,890.82,23.9,
3898868,-0.02,-0.03,1.02,1.71,6.23,-0.31,890.79,23.89,
3898944,-0.0,-0.02,1.03,1.71,6.35,-0.37,890.86,23.87,
3898982,-0.01,-0.02,1.01,1.53,6.35,-0.49,890.8,23.88,
3899020,-0.01,-0.02,1.02,1.65,6.71,-0.37,890.86,23.9,
3899110,-0.01,-0.02,1.03,1.71,6.77,-0.37,890.78,23.84,
3899148,-0.01,-0.02,1.04,1.46,6.65,-0.61,890.75,23.86,
3899187,-0.0,-0.02,1.04,1.4,6.9,-0.79,890.74,23.88,
3899225,-0.01,-0.01,1.05,1.65,6.59,-0.67,890.76,23.89,
3899263,-0.02,-0.02,1.04,1.53,6.23,-0.67,890.76,23.88,
3899301,-0.01,-0.01,1.07,1.65,6.1,-0.67,890.75,23.88,
3899340,-0.01,-0.01,1.07,1.95,5.8,-0.55,890.74,23.88,
3899390,-0.01,-0.01,1.08,2.14,4.94,-0.73,890.72,23.86,
3899428,-0.01,-0.01,1.06,2.01,4.94,-0.67,890.77,23.87,
3899466,-0.01,-0.01,1.05,2.14,4.09,-0.73,890.77,23.88,
3899504,-0.01,-0.01,1.05,2.26,3.97,-0.73,890.79,23.88,
3899542,-0.02,-0.01,1.04,2.26,3.23,-0.61,890.78,23.89,
3899581,-0.02,-0.01,1.05,2.26,3.3,-0.55,890.77,23.88,
3899619,-0.01,-0.02,1.03,2.44,2.87,-0.61,890.71,23.9,
3899657,-0.01,-0.01,1.06,2.75,2.14,-0.55,890.73,23.89,
3899695,-0.02,-0.02,1.03,2.81,2.32,-0.79,890.75,23.89,
3899745,-0.02,-0.02,1.02,2.81,2.32,-0.79,890.79,23.88,
3899784,-0.01,-0.03,0.99,2.99,2.26,-0.67,890.76,23.89,
3899822,-0.02,-0.03,0.95,2.93,1.59,-0.92,890.7,23.89,
3899860,-0.02,-0.03,0.94,2.99,1.34,-0.85,890.73,23.88,
3899898,-0.01,-0.04,0.87,2.69,1.83,-0.92,890.68,23.88,
3899936,-0.01,-0.04,0.89,2.99,1.04,-1.04,890.7,23.89,
3899975,-0.02,-0.04,0.83,2.5,2.01,-1.1,890.75,23.89,
3900013,-0.02,-0.04,0.86,2.69,1.89,-1.4,890.69,23.89,
3900051,-0.02,-0.05,0.85,2.32,3.11,-1.4,890.73,23.9,
3900101,-0.01,-0.05,0.85,2.08,3.05,-1.46,890.66,23.87,
3900139,-0.02,-0.05,0.81,1.89,3.23,-1.53,890.67,23.88,
3900177,-0.03,-0.04,0.8,1.71,3.48,-1.46,890.67,23.88,
3900216,-0.01,-0.04,0.79,1.46,3.66,-1.4,890.69,23.89,
3900254,-0.01,-0.04,0.8,1.28,2.99,-1.59,890.69,23.88,
3900292,-0.02,-0.04,0.82,1.34,2.44,-1.4,890.67,23.88,
3900330,-0.02,-0.05,0.85,1.4,3.3,-1.46,890.65,23.87,
3900369,-0.01,-0.04,0.91,1.4,3.91,-1.59,890.66,23.88,
3900407,-0.02,-0.04,0.92,1.46,4.03,-1.71,890.66,23.88,
3900445,-0.03,-0.04,0.93,1.46,4.52,-1.59,890.62,23.89,
3900495,-0.02,-0.03,0.92,1.53,5.43,-1.83,890.62,23.88,
3900533,-0.03,-0.03,0.91,1.28,5.55,-1.83,890.68,23.89,
3900571,-0.03,-0.04,0.9,1.1,6.29,-1.71,890.61,23.89,
3900610,-0.03,-0.03,0.92,1.28,6.47,-1.95,890.71,23.89,
3900648,-0.02,-0.03,0.93,1.16,6.77,-1.89,890.69,23.89,
3900686,-0.03,-0.02,0.95,1.4,6.53,-1.89,890.67,23.89,
3900724,-0.03,-0.03,0.95,1.28,7.08,-1.77,890.67,23.88,
3900763,-0.02,-0.02,0.96,1.34,6.53,-1.77,890.64,23.89,
3900801,-0.03,-0.03,0.96,1.46,6.53,-1.65,890.68,23.89,
3900851,-0.02,-0.03,0.95,1.59,5.86,-1.53,890.6,23.88,
3900889,-0.03,-0.02,0.96,1.89,5.55,-1.46,890.65,23.89,
3900927,-0.03,-0.02,0.95,1.83,5.19,-1.34,890.62,23.89,
3900966,-0.02,-0.02,0.99,1.71,4.39,-1.34,890.64,23.89,
3901004,-0.02,-0.03,0.97,1.83,4.33,-1.16,890.63,23.89,
3901042,-0.02,-0.02,0.98,1.77,3.91,-1.34,890.6,23.91,
3901080,-0.02,-0.02,0.99,1.83,3.72,-1.16,890.67,23.9,
3901119,-0.02,-0.03,0.97,1.83,3.66,-1.16,890.59,23.91,
3901157,-0.02,-0.02,0.96,1.53,2.99,-1.16,890.59,23.89,
3901195,-0.03,-0.03,0.95,1.65,3.05,-1.1,890.62,23.91,
3901245,-0.02,-0.02,0.97,1.53,2.75,-1.22,890.58,23.89,
3901283,-0.02,-0.02,0.99,1.65,2.81,-1.16,890.63,23.89,
3901322,-0.03,-0.02,1.0,1.95,2.99,-1.28,890.66,23.89,
3901360,-0.02,-0.03,0.98,2.01,3.54,-1.28,890.58,23.89,
3901398,-0.02,-0.02,0.99,2.14,3.11,-1.34,890.64,23.89,
3901436,-0.03,-0.02,0.96,2.14,3.11,-1.28,890.58,23.89,
3901474,-0.02,-0.02,0.95,2.08,3.3,-1.4,890.65,23.9,
3901513,-0.02,-0.02,0.97,2.2,3.23,-1.4,890.61,23.89,
3901551,-0.03,-0.02,0.97,2.2,2.93,-1.53,890.66,23.89,
3901601,-0.03,-0.02,0.99,2.38,3.36,-1.34,890.6,23.89,
3901639,-0.02,-0.02,1.01,2.32,3.3,-1.59,890.68,23.89,
3901677,-0.02,-0.02,1.01,2.32,3.11,-1.53,890.67,23.88,
3901716,-0.03,-0.02,1.0,2.44,2.93,-1.46,890.63,23.89,
3901754,-0.02,-0.02,1.01,2.38,2.87,-1.53,890.59,23.9,
3901792,-0.02,-0.02,1.0,2.5,2.81,-1.71,890.64,23.89,
3901830,-0.03,-0.02,1.0,2.62,2.2,-1.59,890.62,23.89,
3901869,-0.03,-0.02,0.98,2.62,2.44,-1.59,890.57,23.89,
3901907,-0.02,-0.01,0.99,2.75,2.38,-1.59,890.61,23.9,
3901945,-0.02,-0.02,0.98,2.69,2.38,-1.65,890.64,23.89,
3902021,-0.01,-0.02,0.99,2.38,2.56,-1.83,890.65,23.86,
3902059,-0.01,-0.02,0.98,2.5,2.5,-1.83,890.62,23.88,
3902098,-0.02,-0.02,0.99,2.69,2.56,-1.95,890.63,23.88,
3902187,-0.02,-0.02,0.96,2.69,3.3,-2.01,890.63,23.85,
3902226,-0.03,-0.03,0.96,2.81,3.11,-2.2,890.65,23.86,
3902264,-0.03,-0.03,0.96,2.69,3.11,-2.32,890.67,23.88,
3902302,-0.03,-0.03,0.95,2.44,3.3,-2.26,890.64,23.86,
3902340,-0.02,-0.02,0.95,2.69,3.05,-2.38,890.62,23.88,
3902379,-0.03,-0.03,0.95,2.69,2.69,-2.2,890.66,23.88,
3902429,-0.03,-0.02,0.95,2.32,2.38,-2.32,890.64,23.88,
3902467,-0.03,-0.02,0.97,2.38,2.26,-2.5,890.63,23.87,
3902505,-0.03,-0.02,0.97,2.32,2.38,-2.38,890.63,23.88,
3902543,-0.03,-0.02,0.99,2.01,2.2,-2.38,890.67,23.88,
3902581,-0.04,-0.03,0.98,1.89,2.2,-2.44,890.64,23.88,
3902620,-0.04,-0.02,0.99,2.01,1.53,-2.44,890.6,23.88,
3902658,-0.04,-0.03,0.96,1.46,1.34,-2.32,890.6,23.88,
3902696,-0.04,-0.03,0.95,1.77,0.92,-2.14,890.64,23.88,
3902734,-0.05,-0.03,0.94,1.89,0.79,-2.14,890.64,23.9,
3902773,-0.05,-0.03,0.94,1.83,0.49,-2.14,890.57,23.89,
3902823,-0.05,-0.02,0.95,2.01,0.31,-2.14,890.58,23.87,
3902861,-0.06,-0.02,0.96,2.08,0.18,-1.95,890.62,23.89,
3902899,-0.05,-0.02,0.98,2.01,0.67,-2.01,890.68,23.89,
3902937,-0.05,-0.02,0.97,1.71,0.31,-2.01,890.59,23.89,
3902975,-0.05,-0.01,1.0,1.71,0.24,-1.77,890.6,23.9,
3903014,-0.05,-0.02,0.97,1.4,0.37,-1.77,890.63,23.89,
3903052,-0.05,-0.01,0.99,1.4,-0.06,-1.71,890.55,23.89,
3903090,-0.05,-0.02,1.0,1.28,-0.43,-1.59,890.65,23.89,
3903128,-0.05,-0.03,1.0,1.28,-0.67,-1.34,890.61,23.89,
3903178,-0.04,-0.03,1.0,1.22,-1.4,-1.22,890.61,23.89,
3903216,-0.06,-0.04,0.97,1.28,-1.4,-1.28,890.62,23.89,
3903255,-0.06,-0.02,0.96,1.16,-1.89,-1.22,890.61,23.88,
3903293,-0.05,-0.02,0.94,0.85,-1.46,-1.04,890.61,23.89,
3903331,-0.06,-0.03,0.92,0.37,-1.46,-0.92,890.63,23.9,
3903369,-0.06,-0.02,0.95,0.55,-2.01,-0.92,890.59,23.89,
3903408,-0.06,-0.03,0.98,0.18,-1.4,-0.85,890.64,23.9,
3903446,-0.04,-0.03,1.0,0.18,-1.16,-0.92,890.63,23.89,
3903484,-0.05,-0.03,0.98,0.0,-0.79,-0.67,890.62,23.88,
3903522,-0.05,-0.02,0.99,-0.12,-0.67,-0.73,890.63,23.9,
3903572,-0.05,-0.03,1.01,-0.12,0.37,-0.85,890.68,23.88,
3903610,-0.05,-0.03,0.99,-0.12,0.37,-0.92,890.65,23.89,
3903649,-0.05,-0.02,0.98,0.0,0.31,-0.73,890.61,23.89,
3903687,-0.06,-0.02,0.98,0.18,0.73,-0.61,890.66,23.9,
3903725,-0.05,-0.02,0.99,0.37,0.55,-0.24,890.69,23.89,
3903763,-0.04,-0.02,1.0,0.37,0.37,-0.49,890.66,23.89,
3903802,-0.05,-0.02,1.01,0.43,0.31,-0.24,890.67,23.9,
3903840,-0.06,-0.02,1.01,0.37,0.55,-0.12,890.61,23.88,
3903878,-0.06,-0.02,1.02,0.49,0.73,-0.24,890.68,23.9,
3903928,-0.06,-0.02,1.03,0.37,0.98,-0.06,890.67,23.89,
3903966,-0.06,-0.02,1.04,0.31,0.92,-0.06,890.69,23.89,
3904004,-0.06,-0.02,1.02,0.37,1.34,0.06,890.66,23.89,
3904042,-0.05,-0.02,1.02,0.67,1.46,0.18,890.7,23.9,
3904081,-0.06,-0.01,1.02,0.67,1.89,0.18,890.69,23.89,
3904119,-0.05,-0.01,1.06,0.85,2.38,0.24,890.65,23.89,
3904157,-0.05,-0.02,1.06,1.1,2.99,0.37,890.65,23.89,
3904195,-0.05,-0.02,1.07,1.22,2.93,0.49,890.73,23.89,
3904234,-0.05,-0.01,1.06,1.46,2.87,0.49,890.74,23.91,
3904272,-0.05,-0.02,1.04,1.4,3.23,0.61,890.7,23.91,
3904322,-0.03,-0.01,1.04,1.71,2.87,0.79,890.71,23.89,
3904360,-0.04,-0.01,1.03,1.89,2.2,0.85,890.71,23.89,
3904398,-0.05,-0.01,1.04,1.83,1.46,1.1,890.72,23.9,
3904436,-0.04,-0.02,1.06,1.95,1.16,1.16,890.7,23.88,
3904475,-0.04,-0.02,1.06,1.83,0.31,1.22,890.64,23.9,
3904513,-0.04,-0.02,1.05,1.83,0.12,1.4,890.69,23.9,
3904551,-0.04,-0.02,1.03,1.71,0.18,1.53,890.74,23.89,
3904589,-0.03,-0.02,1.0,1.71,0.55,1.4,890.77,23.91,
3904628,-0.04,-0.01,1.0,1.77,0.24,1.34,890.72,23.89,
3904678,-0.04,-0.01,0.99,1.34,0.61,1.22,890.74,23.88,
3904716,-0.04,-0.02,1.04,1.46,0.55,1.22,890.76,23.89,
3904754,-0.02,-0.01,1.05,1.22,0.98,1.1,890.75,23.88,
3904792,-0.03,-0.02,1.06,1.04,0.49,1.22,890.73,23.89,
3904831,-0.04,-0.01,1.06,1.16,1.34,1.04,890.76,23.89,
3904869,-0.03,-0.01,1.08,1.16,1.65,1.04,890.73,23.89,
3904907,-0.04,-0.02,1.08,1.4,1.83,0.85,890.76,23.89,
3904945,-0.03,-0.02,1.06,1.4,1.71,0.98,890.77,23.9,
3904984,-0.03,-0.01,1.07,1.53,2.01,0.98,890.71,23.89,
3905022,-0.03,-0.01,1.05,1.34,2.44,0.79,890.75,23.9,
3905098,-0.03,-0.01,1.06,1.71,2.62,0.92,890.74,23.86,
3905136,-0.03,-0.02,1.06,1.71,2.44,0.92,890.76,23.87,
3905174,-0.04,-0.02,1.08,1.83,2.62,0.79,890.74,23.88,
3905264,-0.04,-0.02,1.07,1.77,2.44,0.73,890.77,23.85,
3905302,-0.03,-0.01,1.06,1.83,2.32,0.79,890.74,23.86,
3905340,-0.03,-0.02,1.06,1.95,2.69,0.92,890.77,23.86,
3905379,-0.03,-0.02,1.04,1.77,2.75,0.73,890.81,23.87,
3905417,-0.03,-0.01,1.07,1.83,2.75,0.79,890.69,23.87,
3905455,-0.04,-0.02,1.06,1.53,3.3,0.79,890.75,23.88,
3905493,-0.04,-0.02,1.08,1.77,3.05,0.73,890.69,23.87,
3905543,-0.03,-0.01,1.08,1.59,3.54,0.67,890.73,23.86,
3905582,-0.04,-0.02,1.08,1.65,3.66,0.67,890.73,23.88,
3905620,-0.04,-0.01,1.06,1.65,3.66,0.67,890.7,23.88,
3905658,-0.04,-0.01,1.07,1.65,3.6,0.49,890.71,23.88,
3905696,-0.03,-0.02,1.04,1.46,3.85,0.67,890.71,23.88,
3905735,-0.04,-0.02,1.06,1.28,3.66,0.67,890.67,23.9,
3905773,-0.04,-0.02,1.06,1.22,3.91,0.55,890.73,23.87,
3905811,-0.03,-0.02,1.05,1.04,3.6,0.67,890.69,23.88,
3905849,-0.04,-0.02,1.05,1.04,3.3,0.73,890.67,23.89,
3905899,-0.03,-0.02,1.04,0.85,2.99,0.85,890.68,23.88,
3905937,-0.04,-0.02,1.04,0.73,2.44,0.73,890.67,23.87,
3905976,-0.04,-0.02,1.04,0.67,2.26,0.79,890.63,23.89,
3906014,-0.04,-0.02,1.05,0.55,2.14,0.85,890.68,23.89,
3906052,-0.03,-0.02,1.05,0.67,2.2,0.85,890.71,23.89,
3906090,-0.04,-0.01,1.08,0.79,1.53,0.73,890.65,23.89,
3906129,-0.04,-0.02,1.08,0.85,1.65,0.85,890.69,23.89,
3906167,-0.03,-0.02,1.08,1.22,1.4,0.79,890.77,23.89,
3906205,-0.04,-0.02,1.08,1.46,1.53,0.79,890.67,23.88,
3906243,-0.05,-0.02,1.05,1.46,1.34,0.98,890.63,23.88,
3906293,-0.04,-0.02,1.03,1.71,0.79,0.98,890.69,23.88,
3906331,-0.04,-0.02,1.02,1.59,0.98,1.1,890.7,23.89,
3906370,-0.04,-0.02,1.03,1.95,0.55,1.1,890.64,23.9,
3906408,-0.04,-0.03,1.04,2.08,0.61,1.22,890.64,23.89,
3906446,-0.05,-0.02,1.04,2.01,0.79,1.28,890.6,23.89,
3906484,-0.03,-0.02,1.06,2.08,0.73,1.16,890.65,23.89,
3906523,-0.03,-0.02,1.04,2.08,0.79,1.1,890.58,23.9,
3906561,-0.04,-0.02,1.05,2.26,0.79,1.16,890.66,23.89,
3906599,-0.05,-0.03,1.01,2.01,1.34,1.22,890.65,23.89,
3906637,-0.04,-0.02,1.0,2.2,1.1,1.1,890.66,23.89,
3906687,-0.05,-0.03,0.98,2.01,1.34,1.59,890.6,23.87,
3906725,-0.06,-0.02,0.97,2.32,1.22,1.59,890.69,23.9,
3906764,-0.05,-0.03,0.97,2.14,1.34,1.71,890.61,23.89,
3906802,-0.03,-0.03,0.96,2.2,1.28,1.59,890.63,23.9,
3906840,-0.03,-0.03,0.99,2.08,1.1,1.83,890.59,23.89,
3906878,-0.04,-0.03,0.98,1.65,1.53,1.83,890.63,23.9,
3906917,-0.03,-0.03,0.98,1.53,1.34,1.71,890.59,23.88,
3906955,-0.04,-0.03,0.97,1.65,1.4,1.83,890.63,23.9,
3906993,-0.04,-0.03,0.96,1.22,1.16,1.65,890.6,23.9,
3907043,-0.03,-0.03,0.96,1.16,1.22,1.83,890.62,23.88,
3907081,-0.03,-0.02,0.96,1.28,1.1,1.65,890.57,23.88,
3907120,-0.03,-0.03,0.95,1.1,1.4,1.71,890.55,23.89,
3907158,-0.04,-0.03,0.97,1.1,1.46,1.71,890.59,23.89,
3907196,-0.05,-0.03,0.98,1.1,1.59,1.89,890.61,23.89,
3907234,-0.04,-0.03,0.99,0.92,1.89,1.77,890.6,23.89,
3907273,-0.04,-0.02,1.01,0.98,1.83,1.65,890.55,23.89,
3907311,-0.03,-0.03,1.0,0.98,1.83,1.59,890.53,23.88,
3907349,-0.04,-0.02,0.99,1.22,1.59,1.77,890.52,23.89,
3907387,-0.04,-0.03,0.99,1.4,2.01,2.01,890.56,23.89,
3907437,-0.05,-0.02,0.97,1.59,1.53,2.08,890.49,23.89,
3907476,-0.05,-0.02,0.98,1.65,1.1,1.95,890.54,23.88,
3907514,-0.05,-0.02,0.98,1.59,0.79,2.32,890.58,23.88,
3907552,-0.05,-0.03,1.0,1.71,0.0,2.38,890.57,23.89,
3907590,-0.04,-0.02,1.0,1.65,-0.24,2.32,890.51,23.88,
3907628,-0.04,-0.02,1.02,1.83,-0.67,2.81,890.5,23.88,
3907667,-0.04,-0.02,1.01,1.71,-0.67,2.75,890.53,23.89,
3907705,-0.04,-0.01,1.02,1.83,-0.79,2.69,890.6,23.89,
3907743,-0.04,-0.03,1.0,1.95,-0.79,2.87,890.52,23.9,
3907793,-0.04,-0.02,1.0,2.26,-0.92,2.87,890.57,23.88,
3907831,-0.04,-0.03,0.98,2.26,-0.61,2.75,890.52,23.88,
3907870,-0.03,-0.03,0.97,2.26,-0.37,2.75,890.55,23.88,
3907908,-0.04,-0.03,0.95,2.26,-0.31,2.87,890.53,23.88,
3907946,-0.04,-0.03,0.93,2.26,-0.18,2.87,890.51,23.89,
3907984,-0.05,-0.03,0.91,2.14,0.0,2.81,890.56,23.88,
3908022,-0.03,-0.02,0.92,1.95,0.06,2.75,890.53,23.89,
3908061,-0.04,-0.03,0.93,1.95,-0.06,2.75,890.52,23.89,
3908099,-0.04,-0.03,0.92,1.89,0.55,2.81,890.48,23.9,
3908137,-0.05,-0.03,0.96,2.08,0.92,2.75,890.44,23.88,
3908213,-0.03,-0.04,0.96,2.08,1.16,2.99,890.49,23.85,
3908251,-0.04,-0.04,0.94,2.01,1.71,2.93,890.5,23.86,
3908290,-0.04,-0.04,0.93,2.14,1.53,2.93,890.5,23.88,
3908379,-0.04,-0.02,0.94,2.08,1.59,3.17,890.45,23.83,
3908418,-0.05,-0.04,0.93,1.95,1.59,3.17,890.45,23.84,
3908456,-0.03,-0.03,0.98,1.77,1.83,3.36,890.48,23.85,
3908494,-0.04,-0.02,0.99,1.71,2.01,3.6,890.48,23.86,
3908532,-0.04,-0.03,0.99,1.77,2.14,3.36,890.48,23.86,
3908571,-0.03,-0.03,0.99,1.83,2.32,3.42,890.49,23.87,
3908609,-0.04,-0.02,1.0,1.83,1.95,3.36,890.47,23.87,
3908659,-0.04,-0.02,0.98,1.83,2.32,3.66,890.45,23.85,
3908697,-0.04,-0.02,0.99,1.89,2.2,3.54,890.46,23.87,
3908735,-0.03,-0.03,1.0,1.89,2.14,3.66,890.42,23.87,
3908774,-0.03,-0.03,1.0,1.77,2.2,3.48,890.47,23.87,
3908812,-0.03,-0.02,1.01,2.08,2.69,3.72,890.4,23.87,
3908850,-0.04,-0.02,1.01,2.08,2.81,3.78,890.45,23.86,
3908888,-0.04,-0.02,1.01,2.01,2.99,3.78,890.44,23.88,
3908926,-0.03,-0.03,1.01,2.14,2.75,3.85,890.42,23.87,
3908965,-0.03,-0.02,1.01,2.26,2.87,3.91,890.42,23.87,
3909015,-0.03,-0.02,1.01,2.2,2.2,4.09,890.52,23.87,
3909053,-0.03,-0.02,1.03,2.14,1.71,3.97,890.4,23.87,
3909091,-0.03,-0.02,1.03,2.2,1.59,4.33,890.5,23.87,
3909129,-0.02,-0.02,1.05,2.01,1.4,4.27,890.43,23.87,
3909167,-0.03,-0.02,1.04,1.95,1.04,4.21,890.41,23.86,
3909206,-0.02,-0.01,1.05,1.89,0.61,4.39,890.42,23.87,
3909244,-0.02,-0.02,1.04,1.83,0.92,4.33,890.4,23.87,
3909282,-0.03,-0.02,1.01,2.08,0.49,4.46,890.4,23.87,
3909320,-0.03,-0.02,1.01,1.83,0.55,4.33,890.45,23.87,
3909359,-0.02,-0.02,1.0,1.95,0.67,4.33,890.45,23.88,
3909409,-0.03,-0.02,0.99,1.77,1.28,4.33,890.46,23.86,
3909447,-0.02,-0.02,1.0,1.71,1.28,4.27,890.44,23.86,
3909485,-0.02,-0.03,1.0,1.77,1.59,4.09,890.41,23.86,
3909523,-0.03,-0.03,0.97,1.59,2.44,4.03,890.44,23.86,
3909561,-0.03,-0.03,0.97,1.83,3.11,4.03,890.44,23.86,
3909600,-0.02,-0.03,0.92,1.77,4.09,4.09,890.39,23.86,
3909638,-0.03,-0.03,0.9,1.77,4.7,4.09,890.4,23.88,
3909676,-0.02,-0.03,0.93,1.71,5.19,4.09,890.37,23.87,
3909714,-0.01,-0.02,0.97,1.83,4.64,4.03,890.42,23.88,
3909753,-0.01,-0.01,1.0,1.89,3.72,4.15,890.38,23.86,
3909802,-0.01,-0.03,1.04,1.77,3.78,4.33,890.39,23.87,
3909841,-0.01,-0.02,1.08,2.08,2.87,4.15,890.36,23.85,
3909879,-0.02,-0.02,1.06,2.08,2.69,4.39,890.4,23.87,
3909917,-0.02,-0.01,1.03,2.14,1.59,4.46,890.41,23.87,
3909955,-0.01,-0.01,1.03,2.38,1.59,4.27,890.43,23.88,
3909994,-0.02,-0.02,1.0,1.95,1.22,4.52,890.39,23.88,
3910032,-0.02,-0.02,1.05,2.38,0.18,4.52,890.38,23.88,
3910070,-0.01,-0.02,1.05,2.32,0.43,4.27,890.4,23.88,
3910108,-0.02,-0.02,1.08,2.5,-0.12,4.33,890.39,23.88,
3910158,-0.01,-0.02,1.07,2.5,0.43,4.33,890.37,23.85,
3910197,-0.01,-0.01,1.07,2.81,0.31,4.27,890.38,23.88,
3910235,-0.01,-0.02,1.03,2.44,0.61,4.27,890.41,23.86,
3910273,-0.01,-0.02,1.04,2.44,0.49,4.27,890.38,23.87,
3910311,-0.01,-0.03,1.02,2.44,0.85,4.03,890.35,23.87,
3910350,-0.01,-0.03,1.02,2.69,0.85,4.21,890.35,23.87,
3910388,-0.01,-0.03,1.01,2.38,1.46,4.03,890.36,23.88,
3910426,-0.01,-0.02,1.0,2.38,1.46,3.97,890.4,23.88,
3910464,-0.0,-0.02,1.03,2.75,1.83,3.97,890.35,23.88,
3910503,0.0,-0.03,0.97,2.5,2.81,3.78,890.33,23.89,
3910553,-0.01,-0.03,1.0,2.75,2.81,3.6,890.33,23.86,
3910591,-0.01,-0.03,0.95,2.5,3.91,3.6,890.41,23.87,
3910629,-0.01,-0.02,0.98,2.81,3.85,3.42,890.35,23.89,
3910667,-0.01,-0.03,0.96,2.56,4.82,3.23,890.41,23.87,
3910706,-0.01,-0.03,0.95,2.69,5.0,3.11,890.31,23.89,
3910744,-0.01,-0.03,0.96,2.5,6.16,2.93,890.31,23.88,
3910782,0.0,-0.04,0.93,2.44,6.59,3.05,890.3,23.89,
3910820,-0.01,-0.03,0.94,2.5,6.65,2.99,890.3,23.89,
3910859,-0.01,-0.04,0.9,2.32,7.14,2.81,890.35,23.89,
3910897,-0.0,-0.03,0.91,2.38,7.08,2.93,890.33,23.88,
3910947,0.01,-0.04,0.89,2.5,7.69,2.69,890.29,23.86,
3910985,0.01,-0.03,0.92,2.56,6.84,2.69,890.32,23.88,
3911023,0.0,-0.03,0.93,2.56,6.96,2.62,890.31,23.88,
3911062,0.0,-0.03,0.95,2.44,6.16,2.69,890.27,23.88,
3911100,-0.0,-0.03,0.98,2.5,5.74,2.69,890.34,23.88,
3911138,0.0,-0.04,0.94,2.32,5.68,2.44,890.28,23.88,
3911176,0.01,-0.03,0.91,1.95,5.86,2.5,890.27,23.88,
3911215,0.02,-0.03,0.9,1.95,5.92,2.62,890.3,23.89,
3911253,0.01,-0.03,0.89,1.65,6.16,2.32,890.26,23.88,
3911329,-0.01,-0.04,0.97,1.77,5.86,2.38,890.24,23.85,
3911367,-0.01,-0.04,0.99,1.46,5.92,2.14,890.32,23.88,
3911405,-0.01,-0.02,1.0,1.4,6.1,2.08,890.3,23.87,
3911495,0.0,-0.02,1.01,1.04,5.92,2.01,890.27,23.84,
3911533,-0.01,-0.03,1.0,0.85,6.29,2.14,890.31,23.85,
3911571,-0.01,-0.02,0.99,0.73,5.74,2.26,890.26,23.85,
3911610,-0.01,-0.02,1.03,0.92,5.49,2.2,890.27,23.86,
3911648,0.0,-0.03,1.02,0.67,5.92,2.26,890.26,23.87,
3911686,0.01,-0.03,1.03,0.85,5.31,2.08,890.24,23.86,
3911724,-0.0,-0.03,1.05,1.04,5.31,2.01,890.2,23.85,
3911774,-0.0,-0.02,0.99,0.98,5.49,2.08,890.28,23.86,
3911813,0.0,-0.01,1.02,1.16,4.94,2.01,890.27,23.86,
3911851,-0.01,-0.03,0.99,0.85,4.88,2.2,890.19,23.86,
3911889,-0.01,-0.03,1.02,0.98,4.52,2.14,890.17,23.86,
3911927,-0.0,-0.03,1.01,0.79,5.13,2.01,890.26,23.87,
3911966,-0.0,-0.03,1.0,0.73,4.27,1.95,890.24,23.85,
3912004,-0.0,-0.03,1.01,0.92,4.58,2.14,890.25,23.87,
3912042,0.0,-0.03,1.0,0.85,4.76,1.95,890.25,23.86,
3912080,-0.01,-0.02,1.03,0.98,4.46,1.83,890.24,23.88,
3912118,-0.01,-0.03,1.02,0.92,4.88,1.83,890.19,23.87,
3912168,-0.0,-0.02,1.03,0.73,4.52,1.89,890.21,23.87,
3912207,0.0,-0.02,1.05,0.43,4.21,1.95,890.21,23.86,
3912245,0.0,-0.02,1.07,0.85,3.3,2.2,890.2,23.87,
3912283,-0.0,-0.02,1.06,0.67,3.36,2.08,890.21,23.87,
3912321,-0.01,-0.02,1.07,0.61,2.93,2.08,890.25,23.88,
3912359,-0.0,-0.03,1.06,0.49,2.87,2.14,890.18,23.87,
3912398,-0.01,-0.03,1.02,0.55,2.87,2.08,890.22,23.88,
3912436,-0.0,-0.03,1.04,0.73,2.93,2.2,890.26,23.89,
3912474,0.01,-0.03,1.01,0.79,2.87,1.95,890.21,23.87,
3912512,0.0,-0.02,1.03,0.79,2.5,1.89,890.16,23.88,
3912562,-0.0,-0.03,1.02,0.73,2.99,1.83,890.21,23.87,
3912600,-0.0,-0.03,1.02,0.73,2.99,1.71,890.2,23.88,
3912639,0.0,-0.03,1.01,0.67,2.93,1.71,890.17,23.88,
3912677,-0.0,-0.03,1.02,0.73,3.11,1.65,890.21,23.89,
3912715,-0.0,-0.03,1.01,0.79,3.54,1.71,890.17,23.87,
3912753,0.0,-0.02,1.02,1.04,3.42,1.59,890.18,23.88,
3912792,0.0,-0.02,1.03,1.1,3.42,1.65,890.2,23.87,
3912830,0.0,-0.03,1.03,1.1,3.97,1.46,890.16,23.88,
3912868,-0.0,-0.02,1.05,1.22,3.91,1.34,890.15,23.89,
3912918,-0.0,-0.02,1.04,1.28,4.52,1.4,890.17,23.86,
3912956,-0.0,-0.02,1.07,1.34,4.21,1.28,890.15,23.87,
3912994,0.0,-0.03,1.06,1.53,4.58,1.28,890.16,23.88,
3913033,0.0,-0.02,1.05,1.53,4.27,1.34,890.14,23.88,
3913071,0.0,-0.03,1.06,2.01,4.46,1.28,890.16,23.88,
3913109,0.01,-0.03,1.03,1.71,4.7,1.1,890.13,23.88,
3913147,0.0,-0.02,1.03,1.71,4.46,1.04,890.13,23.89,
3913186,-0.0,-0.03,1.0,1.83,5.0,0.98,890.1,23.89,
3913224,0.0,-0.03,1.0,1.77,4.7,0.92,890.09,23.87,
3913262,0.0,-0.03,1.0,1.71,5.13,0.85,890.08,23.88,
3913312,-0.0,-0.03,0.99,1.77,4.76,0.92,890.15,23.88,
3913350,-0.0,-0.03,0.97,1.89,5.0,0.98,890.12,23.88,
3913388,0.0,-0.03,0.96,1.77,4.88,0.79,890.11,23.87,
3913427,0.0,-0.03,0.98,1.59,5.19,0.67,890.1,23.88,
3913465,-0.01,-0.03,0.96,1.53,4.94,0.92,890.1,23.88,
3913503,-0.0,-0.03,0.99,1.83,5.07,0.92,890.07,23.88,
3913541,-0.0,-0.03,0.99,1.77,5.43,0.85,890.12,23.88,
3913580,-0.01,-0.03,1.0,1.83,5.07,0.98,890.1,23.89,
3913618,-0.0,-0.03,1.0,1.95,5.43,0.85,890.07,23.89,
3913656,-0.0,-0.02,0.99,2.01,5.55,0.79,890.02,23.88,
3913706,0.0,-0.02,1.0,2.32,5.62,0.85,890.06,23.88,
3913744,0.0,-0.03,0.99,2.38,5.68,0.79,890.05,23.87,
3913782,-0.0,-0.03,0.99,2.5,5.74,0.85,890.06,23.88,
3913821,-0.01,-0.04,0.96,2.32,6.23,0.67,890.04,23.89,
3913859,-0.01,-0.03,0.96,2.32,6.41,0.79,890.07,23.89,
3913897,-0.0,-0.03,0.96,2.44,6.47,0.67,890.05,23.88,
3913935,0.0,-0.04,0.94,2.5,6.35,0.67,890.01,23.88,
3913974,-0.0,-0.03,0.96,2.38,6.77,0.85,890.03,23.89,
3914012,0.01,-0.03,0.96,2.44,6.84,0.79,890.0,23.88,
3914050,-0.0,-0.03,0.98,2.44,6.47,0.73,890.05,23.89,
3914100,-0.01,-0.03,0.99,2.5,6.35,0.79,890.01,23.88,
3914138,0.0,-0.03,0.99,2.5,6.35,0.85,890.04,23.88,
3914176,0.0,-0.03,0.99,2.26,6.1,0.92,890.03,23.88,
3914215,0.0,-0.03,0.97,2.2,5.92,0.85,890.02,23.88,
3914253,-0.0,-0.03,0.96,1.89,5.86,0.92,890.04,23.88,
3914291,0.01,-0.04,0.96,2.01,5.62,0.73,890.02,23.89,
3914329,0.01,-0.03,0.96,1.83,5.07,0.79,889.96,23.89,
3914368,-0.01,-0.04,0.95,1.83,5.07,0.98,889.97,23.88,
3914406,0.0,-0.03,0.95,1.77,4.76,0.92,890.05,23.89,
3914483,-0.0,-0.04,0.96,1.65,4.46,0.85,889.99,23.86,
3914521,0.0,-0.03,0.96,1.59,4.27,0.67,889.96,23.87,
3914560,0.01,-0.03,0.97,1.65,4.46,0.79,889.98,23.87,
3914649,0.0,-0.03,0.98,1.46,4.58,0.67,889.97,23.84,
3914688,0.0,-0.03,0.99,1.77,4.33,0.55,890.01,23.85,
3914726,-0.0,-0.03,0.96,1.46,4.82,0.49,889.96,23.86,
3914764,0.01,-0.02,0.97,1.89,4.39,0.49,889.94,23.86,
3914802,-0.0,-0.03,0.97,1.89,5.0,0.43,889.95,23.86,
3914841,0.0,-0.03,0.97,2.14,4.94,0.43,890.0,23.88,
3914879,0.0,-0.03,0.97,2.01,5.07,0.31,889.95,23.87,
3914929,0.01,-0.03,0.95,2.08,5.19,0.24,889.94,23.86,
3914967,0.01,-0.03,0.96,1.95,5.19,0.18,890.0,23.87,
3915005,0.01,-0.03,0.95,1.89,5.49,0.0,889.96,23.87,
3915043,0.0,-0.03,0.96,1.83,5.25,0.0,889.91,23.87,
3915082,0.0,-0.03,0.95,1.77,5.49,0.0,889.87,23.87,
3915120,-0.0,-0.03,0.96,1.83,5.25,-0.12,889.93,23.87,
3915158,0.0,-0.03,0.97,1.83,5.86,-0.24,889.92,23.88,
3915196,0.01,-0.03,0.95,1.95,6.04,-0.37,889.87,23.86,
3915235,0.0,-0.02,0.96,2.2,6.29,-0.49,889.9,23.86,
3915273,0.01,-0.03,0.95,2.14,6.04,-0.55,889.91,23.88,
3915323,0.01,-0.02,0.94,2.5,5.86,-0.73,889.91,23.85,
3915361,0.01,-0.03,0.93,2.5,5.62,-1.04,889.89,23.87,
3915399,-0.0,-0.03,0.94,2.56,5.74,-0.85,889.89,23.88,
3915437,0.01,-0.03,0.94,2.44,5.62,-1.1,889.92,23.88,
3915476,0.0,-0.03,0.97,2.44,5.37,-1.22,889.89,23.88,
3915514,0.01,-0.03,0.94,2.44,5.8,-1.4,889.82,23.86,
3915552,0.01,-0.03,0.96,2.69,5.25,-1.53,889.89,23.88,
3915590,0.02,-0.03,0.96,2.56,5.19,-1.65,889.84,23.88,
3915629,0.01,-0.03,0.94,2.5,4.94,-1.65,889.88,23.88,
3915667,0.02,-0.02,0.97,2.56,4.7,-1.77,889.8,23.87,
3915717,0.01,-0.03,0.93,2.56,3.97,-2.08,889.83,23.87,
3915755,-0.0,-0.03,0.93,2.38,3.78,-2.26,889.87,23.86,
3915793,0.01,-0.04,0.95,2.5,3.23,-2.26,889.86,23.87,
3915832,0.0,-0.02,0.92,2.14,2.81,-2.38,889.85,23.88,
3915870,0.0,-0.02,0.94,2.44,1.28,-2.38,889.87,23.87,
3915908,-0.01,-0.04,0.9,2.14,1.83,-2.62,889.85,23.88,
3915946,0.01,-0.03,0.91,2.01,1.4,-2.75,889.85,23.88,
3915985,0.0,-0.03,0.94,1.89,1.16,-2.87,889.85,23.88,
3916023,-0.0,-0.04,0.9,2.08,0.67,-3.17,889.84,23.88,
3916073,-0.0,-0.02,0.94,2.32,0.0,-3.3,889.87,23.87,
3916111,0.0,-0.03,0.92,2.08,0.31,-3.17,889.84,23.87,
3916149,-0.0,-0.03,0.96,2.08,-0.49,-3.6,889.8,23.86,
3916188,-0.01,-0.04,0.97,1.77,0.0,-3.72,889.8,23.88,
3916226,-0.01,-0.03,0.99,1.77,-0.37,-3.72,889.8,23.88,
3916264,-0.01,-0.03,1.03,1.71,-0.67,-3.85,889.84,23.87,
3916302,-0.02,-0.03,1.0,1.71,-0.18,-4.15,889.86,23.87,
3916341,-0.02,-0.02,1.02,1.65,0.06,-4.09,889.77,23.87,
3916379,0.0,-0.02,1.05,1.46,0.06,-4.27,889.79,23.87,
3916417,-0.03,-0.02,1.03,1.28,0.24,-4.21,889.83,23.89,
3916467,-0.02,-0.01,1.06,1.16,0.61,-4.15,889.82,23.86,
3916505,-0.02,-0.01,1.08,1.16,0.92,-4.27,889.75,23.86,
3916543,-0.01,-0.02,1.11,1.34,0.98,-4.33,889.8,23.86,
3916582,-0.02,-0.02,1.13,1.53,0.92,-4.21,889.81,23.87,
3916620,-0.03,-0.02,1.1,1.65,1.34,-4.21,889.8,23.87,
3916658,-0.02,-0.02,1.06,1.71,0.61,-4.21,889.84,23.87,
3916696,-0.02,-0.03,1.04,1.83,0.18,-4.15,889.84,23.87,
3916735,-0.03,-0.04,1.01,1.77,0.24,-4.15,889.81,23.88,
3916773,-0.02,-0.03,0.99,1.89,0.12,-4.21,889.8,23.88,
3916823,-0.03,-0.03,0.98,1.95,-0.24,-4.09,889.82,23.86,
3916861,-0.03,-0.03,0.97,1.83,-0.18,-4.09,889.77,23.87,
3916899,-0.04,-0.03,1.0,1.77,0.49,-4.09,889.7,23.86,
3916938,-0.04,-0.03,1.0,1.4,0.79,-4.09,889.77,23.87,
3916976,-0.04,-0.03,1.04,1.28,0.49,-3.97,889.72,23.88,
3917014,-0.05,-0.02,1.02,0.73,1.22,-4.09,889.69,23.88,
3917052,-0.05,-0.01,1.04,0.55,1.4,-3.85,889.7,23.88,
3917091,-0.05,-0.01,1.05,0.37,2.69,-3.91,889.77,23.88,
3917129,-0.05,-0.02,1.08,0.24,3.3,-3.91,889.74,23.88,
3917179,-0.06,-0.02,1.08,0.31,4.39,-3.72,889.75,23.87,
3917217,-0.05,-0.02,1.09,0.43,4.27,-3.66,889.69,23.88,
3917255,-0.06,-0.01,1.09,0.79,4.58,-3.3,889.68,23.87,
3917294,-0.05,-0.02,1.06,1.04,4.7,-3.23,889.69,23.87,
3917332,-0.06,-0.02,1.07,1.34,4.64,-2.87,889.71,23.88,
3917370,-0.05,-0.03,1.03,1.34,4.52,-2.75,889.71,23.87,
3917408,-0.04,-0.02,1.04,1.53,3.97,-2.62,889.66,23.87,
3917447,-0.05,-0.02,1.02,1.4,4.21,-2.5,889.65,23.87,
3917485,-0.05,-0.03,1.02,1.4,3.3,-2.2,889.7,23.88,
3917523,-0.05,-0.03,1.02,1.65,3.23,-2.08,889.68,23.87,
3917599,-0.05,-0.02,1.02,1.65,2.26,-1.77,889.68,23.85,
3917637,-0.05,-0.03,0.99,1.65,2.32,-1.59,889.69,23.86,
3917676,-0.06,-0.02,1.01,1.77,2.14,-1.53,889.66,23.87,
3917765,-0.06,-0.02,1.02,1.53,1.95,-1.1,889.64,23.83,
3917804,-0.05,-0.03,1.02,1.46,2.38,-1.04,889.66,23.85,
3917842,-0.06,-0.02,1.03,1.46,2.44,-0.85,889.61,23.85,
3917880,-0.05,-0.03,1.03,1.4,3.05,-0.92,889.66,23.85,
3917918,-0.05,-0.02,1.04,1.4,3.11,-0.79,889.7,23.85,
3917957,-0.05,-0.03,1.02,1.34,4.09,-0.92,889.61,23.85,
3918007,-0.05,-0.03,1.01,1.65,3.91,-0.67,889.62,23.84,
3918045,-0.06,-0.03,0.98,1.53,4.46,-0.55,889.65,23.85,
3918083,-0.06,-0.03,0.96,1.65,4.03,-0.49,889.61,23.86,
3918121,-0.05,-0.03,0.94,1.46,4.33,-0.43,889.63,23.87,
3918160,-0.05,-0.03,0.92,1.34,4.39,-0.18,889.63,23.87,
3918198,-0.05,-0.03,0.95,1.1,4.27,-0.31,889.63,23.87,
3918236,-0.06,-0.03,0.93,1.04,4.39,-0.06,889.63,23.87,
3918274,-0.06,-0.04,0.95,0.98,4.21,0.06,889.65,23.88,
3918313,-0.05,-0.04,0.96,0.67,4.15,0.24,889.61,23.88,
3918351,-0.06,-0.03,0.96,0.55,3.72,0.43,889.64,23.88,
3918401,-0.05,-0.02,0.96,0.61,3.11,0.43,889.59,23.86,
3918439,-0.05,-0.03,0.96,0.55,2.99,0.67,889.64,23.87,
3918477,-0.05,-0.04,0.97,0.73,2.62,0.61,889.6,23.87,
3918516,-0.04,-0.04,0.99,0.73,2.2,0.73,889.57,23.87,
3918554,-0.05,-0.03,0.99,0.85,1.65,0.98,889.59,23.86,
3918592,-0.05,-0.03,0.99,0.73,1.16,0.85,889.56,23.87,
3918630,-0.05,-0.03,0.99,0.79,1.34,1.04,889.61,23.88,
3918669,-0.03,-0.03,0.98,0.79,1.59,1.16,889.59,23.86,
3918707,-0.05,-0.03,0.99,0.92,1.16,1.16,889.62,23.88,
3918745,-0.05,-0.02,0.99,1.04,1.04,1.28,889.54,23.86,
3918795,-0.04,-0.02,1.01,0.92,0.79,1.16,889.58,23.86,
3918833,-0.04,-0.04,1.02,1.04,0.79,1.22,889.59,23.87,
3918871,-0.04,-0.03,1.01,0.85,0.79,1.16,889.59,23.86,
3918910,-0.04,-0.03,1.01,1.1,1.1,1.22,889.63,23.88,
3918948,-0.05,-0.02,1.0,1.1,1.4,1.16,889.58,23.88,
3918986,-0.04,-0.03,1.01,1.4,1.04,1.34,889.57,23.88,
3919024,-0.04,-0.03,0.98,1.16,1.34,1.28,889.54,23.87,
3919063,-0.04,-0.03,0.99,1.53,1.34,1.46,889.63,23.88,
3919101,-0.02,-0.03,0.98,1.1,1.77,1.34,889.57,23.88,
3919151,-0.03,-0.02,1.0,1.04,0.55,1.34,889.63,23.86,
3919189,-0.04,-0.03,1.01,0.79,0.73,1.46,889.57,23.87,
3919227,-0.05,-0.03,1.02,0.85,0.43,1.53,889.62,23.88,
3919266,-0.04,-0.03,1.04,0.79,0.37,1.59,889.53,23.86,
3919304,-0.04,-0.03,1.03,0.79,0.37,1.4,889.59,23.87,
3919342,-0.04,-0.02,1.04,0.73,0.67,1.46,889.49,23.86,
3919380,-0.03,-0.02,1.04,0.67,1.04,1.34,889.58,23.86,
3919419,-0.04,-0.03,1.03,0.73,1.34,1.4,889.63,23.87,
3919457,-0.04,-0.03,1.03,0.85,1.53,1.71,889.61,23.86,
3919495,-0.03,-0.02,1.04,0.67,2.14,1.46,889.57,23.87,
3919545,-0.03,-0.03,1.03,0.73,1.95,1.46,889.53,23.86,
3919583,-0.02,-0.03,1.02,0.61,2.62,1.34,889.57,23.86,
3919622,-0.03,-0.02,1.03,0.49,2.5,1.28,889.51,23.86,
3919660,-0.03,-0.02,1.03,0.61,2.87,1.4,889.62,23.86,
3919698,-0.03,-0.02,1.04,0.43,3.05,1.34,889.57,23.87,
3919736,-0.03,-0.02,1.07,0.49,3.48,1.22,889.53,23.87,
3919775,-0.03,-0.02,1.06,0.67,3.72,1.16,889.54,23.85,
3919813,-0.03,-0.02,1.07,0.73,3.85,1.1,889.51,23.86,
3919851,-0.02,-0.02,1.09,0.73,3.91,1.16,889.55,23.88,
3919889,-0.02,-0.02,1.07,0.85,3.85,1.16,889.57,23.86,
3919939,-0.03,-0.01,1.06,1.28,3.85,1.28,889.5,23.85,
3919978,-0.03,-0.01,1.04,0.85,3.85,1.16,889.49,23.85,
3920016,-0.03,-0.02,1.08,1.22,3.54,0.92,889.52,23.86,
3920054,-0.02,-0.02,1.05,0.98,4.21,0.98,889.54,23.87,
3920092,-0.03,-0.01,1.07,1.22,4.09,1.04,889.54,23.86,
3920131,-0.03,-0.01,1.06,1.28,4.52,0.85,889.48,23.88,
3920169,-0.02,-0.01,1.06,1.59,3.85,0.73,889.5,23.86,
3920207,-0.03,-0.03,1.02,1.4,4.94,0.61,889.54,23.87,
3920245,-0.03,-0.03,0.99,1.46,5.43,0.55,889.55,23.87,
3920295,-0.03,-0.01,1.01,1.46,6.04,0.37,889.47,23.86,
3920334,-0.04,-0.01,1.01,1.65,5.74,0.37,889.47,23.86,
3920372,-0.03,-0.01,1.04,1.28,5.86,0.24,889.46,23.87,
3920410,-0.02,-0.01,1.1,1.28,5.19,0.37,889.47,23.86,
3920448,-0.03,-0.02,1.1,1.22,5.0,0.37,889.48,23.87,
3920487,-0.05,-0.01,1.14,1.83,3.97,0.55,889.45,23.88,
3920525,-0.03,-0.01,1.13,2.2,4.33,0.61,889.47,23.87,
3920563,-0.02,-0.01,1.06,2.56,3.6,0.61,889.44,23.88,
3920601,-0.03,-0.01,1.09,3.17,2.26,0.55,889.42,23.87,
3920640,-0.03,-0.02,1.04,3.23,2.38,0.67,889.43,23.87,
3920716,-0.02,-0.02,1.07,3.3,0.98,0.73,889.42,23.85,
3920754,-0.03,-0.03,1.05,3.66,0.06,0.67,889.43,23.85,
3920792,-0.03,-0.03,1.04,3.48,0.37,0.61,889.43,23.85,
3920882,-0.03,-0.04,0.92,3.48,0.92,0.67,889.42,23.82,
3920920,-0.03,-0.04,0.9,3.42,0.85,0.31,889.45,23.85,
3920959,-0.03,-0.04,0.89,2.99,1.1,0.37,889.41,23.85,
3920997,-0.03,-0.04,0.92,2.87,0.49,0.24,889.4,23.84,
3921035,-0.03,-0.05,0.92,2.5,1.04,0.12,889.38,23.86,
3921073,-0.03,-0.04,0.95,1.89,1.1,0.06,889.39,23.85,
3921111,-0.03,-0.04,0.97,1.65,1.83,0.0,889.37,23.85,
3921161,-0.02,-0.03,0.93,1.16,1.77,0.06,889.39,23.86,
3921200,-0.04,-0.03,0.94,1.1,1.95,-0.06,889.35,23.85,
3921238,-0.04,-0.04,0.92,0.98,2.56,-0.06,889.31,23.85,
3921276,-0.03,-0.04,0.97,1.1,2.26,-0.06,889.4,23.85,
3921314,-0.03,-0.04,0.95,0.55,2.44,-0.24,889.31,23.86,
3921353,-0.03,-0.03,0.96,0.61,2.44,0.0,889.35,23.86,
3921391,-0.03,-0.04,0.97,0.31,2.99,-0.24,889.35,23.86,
3921429,-0.02,-0.04,0.97,0.37,2.62,-0.24,889.34,23.85,
3921467,-0.03,-0.04,0.98,0.37,2.5,-0.24,889.29,23.87,
3921517,-0.03,-0.03,0.96,0.55,2.5,-0.18,889.33,23.85,
3921556,-0.02,-0.04,0.96,0.49,2.56,-0.31,889.37,23.87,
3921594,-0.03,-0.03,0.94,0.55,2.14,-0.24,889.34,23.86,
3921632,-0.04,-0.03,0.98,0.92,1.59,-0.31,889.31,23.86,
3921670,-0.03,-0.03,0.96,1.04,2.56,-0.31,889.27,23.85,
3921709,-0.03,-0.02,1.0,1.28,1.34,-0.43,889.31,23.86,
3921747,-0.05,-0.03,1.02,1.59,1.89,-0.31,889.24,23.85,
3921785,-0.04,-0.04,0.99,1.4,2.38,-0.12,889.26,23.86,
3921823,-0.03,-0.02,1.03,1.71,2.32,-0.31,889.28,23.87,
3921862,-0.04,-0.03,0.98,1.4,2.26,-0.06,889.25,23.87,
3921912,-0.04,-0.03,0.99,1.71,1.83,-0.18,889.28,23.85,
3921950,-0.03,-0.03,1.0,1.77,1.95,0.06,889.29,23.86,
3921988,-0.03,-0.03,0.99,1.83,1.1,0.06,889.23,23.86,
3922026,-0.04,-0.04,0.99,1.77,1.22,0.0,889.22,23.86,
3922065,-0.03,-0.03,0.99,1.71,0.92,-0.18,889.28,23.88,
3922103,-0.03,-0.02,1.0,1.71,0.85,-0.12,889.24,23.87,
3922141,-0.02,-0.03,0.99,1.59,0.55,0.12,889.22,23.87,
3922179,-0.03,-0.03,1.0,1.53,0.49,0.0,889.18,23.88,
3922218,-0.04,-0.04,1.0,1.65,1.4,0.0,889.19,23.87,
3922268,-0.03,-0.02,1.02,1.77,0.67,0.06,889.21,23.87,
3922306,-0.04,-0.04,1.02,1.59,1.77,-0.06,889.22,23.86,
3922344,-0.02,-0.02,1.03,1.53,1.28,-0.12,889.2,23.86,
3922382,-0.02,-0.03,1.11,1.77,1.65,-0.18,889.18,23.86,
3922421,-0.03,-0.03,1.05,1.53,2.08,-0.06,889.22,23.87,
3922459,-0.03,-0.02,1.14,1.95,0.79,-0.31,889.24,23.88,
3922497,-0.02,-0.03,1.09,1.53,2.2,-0.31,889.17,23.88,
3922535,-0.03,-0.02,1.11,1.89,0.43,-0.31,889.17,23.87,
3922574,-0.03,-0.03,1.08,1.65,1.28,-0.31,889.21,23.88,
3922612,-0.02,-0.03,1.04,1.83,1.22,-0.37,889.15,23.88,
3922662,-0.02,-0.03,1.01,1.65,1.53,-0.43,889.14,23.86,
3922700,-0.05,-0.03,1.0,2.08,0.49,-0.18,889.19,23.88,
3922738,-0.04,-0.04,0.98,1.89,1.22,-0.18,889.16,23.88,
3922777,-0.02,-0.03,0.97,1.77,0.49,-0.24,889.16,23.87,
3922815,-0.03,-0.03,1.0,1.95,-0.06,-0.12,889.15,23.87,
3922853,-0.04,-0.04,0.97,1.46,-0.12,0.0,889.11,23.86,
3922891,-0.04,-0.04,1.01,1.89,-1.04,0.06,889.15,23.87,
3922930,-0.02,-0.04,0.96,1.53,-0.61,0.06,889.14,23.87,
3922968,-0.03,-0.03,0.96,1.28,-1.16,0.06,889.1,23.88,
3923018,-0.03,-0.04,0.94,0.98,-0.31,0.12,889.16,23.86,
3923056,-0.03,-0.03,0.97,0.92,-0.37,0.18,889.11,23.86,
3923094,-0.03,-0.03,0.99,0.67,0.24,0.06,889.13,23.87,
3923133,-0.04,-0.03,0.99,0.37,0.24,0.24,889.1,23.88,
3923171,-0.03,-0.03,1.02,0.12,1.16,0.12,889.06,23.87,
3923209,-0.03,-0.04,1.04,0.12,1.77,-0.06,889.06,23.86,
3923247,-0.03,-0.03,1.04,-0.06,2.08,0.06,889.1,23.88,
3923286,-0.04,-0.03,1.06,0.0,2.56,0.12,889.08,23.87,
3923324,-0.03,-0.02,1.06,0.0,3.48,0.12,889.08,23.88,
3923362,-0.03,-0.01,1.1,0.12,2.87,0.12,889.05,23.88,
3923412,-0.04,-0.02,1.09,0.43,3.11,0.18,889.01,23.85,
3923450,-0.03,-0.02,1.12,0.61,3.23,0.18,888.97,23.86,
3923489,-0.03,-0.03,1.11,0.55,3.85,0.18,889.06,23.87,
3923527,-0.04,-0.03,1.09,1.16,3.36,0.12,889.03,23.87,
3923565,-0.04,-0.03,1.06,1.16,4.15,0.12,889.07,23.87,
3923603,-0.03,-0.03,1.05,1.34,3.97,0.12,889.02,23.85,
3923641,-0.04,-0.04,0.99,1.53,4.33,0.24,889.03,23.87,
3923680,-0.04,-0.03,0.98,1.71,3.78,0.37,888.97,23.87,
3923718,-0.04,-0.03,0.96,1.53,3.97,0.37,888.96,23.86,
3923794,-0.03,-0.04,0.96,1.65,4.03,0.43,888.97,23.84,
3923832,-0.03,-0.04,0.96,1.53,4.09,0.43,888.94,23.85,
3923870,-0.04,-0.03,0.97,1.53,3.91,0.49,888.94,23.85,
3923960,-0.04,-0.04,0.97,1.71,3.48,0.67,888.96,23.82,
3923998,-0.04,-0.04,0.96,1.83,2.99,0.85,888.94,23.84,
3924037,-0.03,-0.04,0.98,2.01,2.32,0.85,888.95,23.84,
3924075,-0.03,-0.03,0.97,1.89,2.08,0.98,888.93,23.84,
3924113,-0.04,-0.03,1.0,2.14,1.28,1.28,888.95,23.85,
3924151,-0.04,-0.04,1.01,2.08,1.22,1.34,888.91,23.84,
3924190,-0.04,-0.04,1.02,2.01,0.55,1.28,888.88,23.85,
3924240,-0.04,-0.03,1.02,1.89,0.73,1.65,888.92,23.84,
3924278,-0.04,-0.03,1.01,1.83,0.12,1.53,888.86,23.84,
3924316,-0.03,-0.03,1.0,1.59,0.24,1.46,888.83,23.85,
3924355,-0.03,-0.04,0.97,1.83,-0.24,1.59,888.86,23.84,
3924393,-0.03,-0.05,0.96,1.77,-0.12,1.59,888.87,23.85,
3924431,-0.04,-0.04,0.95,1.46,-0.37,1.53,888.84,23.86,
3924469,-0.04,-0.03,0.99,1.46,-0.92,1.4,888.82,23.86,
3924507,-0.04,-0.03,0.99,1.22,-0.24,1.53,888.84,23.85,
3924546,-0.05,-0.04,1.03,1.4,-0.61,1.71,888.81,23.86,
3924584,-0.05,-0.03,1.05,0.98,-0.12,1.83,888.83,23.87,
3924634,-0.05,-0.03,1.06,0.92,-0.18,1.83,888.78,23.85,
3924672,-0.04,-0.03,1.07,0.67,0.06,2.08,888.81,23.86,
3924710,-0.05,-0.03,1.06,0.79,0.37,2.2,888.77,23.86,
3924749,-0.04,-0.02,1.07,0.61,0.31,2.32,888.77,23.85,
3924787,-0.04,-0.02,1.08,0.73,0.61,2.32,888.75,23.86,
3924825,-0.03,-0.02,1.09,0.55,0.79,2.44,888.79,23.86,
3924863,-0.04,-0.02,1.11,0.73,0.79,2.62,888.74,23.86,
3924902,-0.04,-0.03,1.12,0.61,1.71,2.56,888.75,23.86,
3924940,-0.02,-0.02,1.13,0.73,1.71,2.44,888.82,23.88,
3924990,-0.05,-0.02,1.13,1.1,2.2,2.69,888.78,23.86,
3925028,-0.03,-0.02,1.1,1.04,2.26,2.75,888.78,23.87,
3925066,-0.02,-0.02,1.11,1.22,3.3,2.81,888.72,23.86,
3925105,-0.02,-0.03,1.05,1.04,3.66,2.81,888.66,23.86,
3925143,-0.02,-0.03,1.09,1.46,3.3,2.81,888.69,23.86,
3925181,-0.01,-0.04,1.04,1.4,4.33,2.62,888.74,23.86,
3925220,-0.01,-0.03,1.06,1.59,3.54,2.75,888.67,23.87,
3925258,-0.02,-0.04,1.06,1.46,4.39,2.99,888.73,23.86,
3925296,-0.02,-0.03,1.07,1.77,3.36,2.99,888.72,23.87,
3925334,-0.02,-0.02,1.08,1.77,3.36,3.17,888.68,23.86,
3925384,-0.01,-0.03,1.06,1.59,2.75,3.05,888.66,23.85,
3925422,-0.01,-0.03,1.08,1.34,2.81,3.36,888.66,23.85,
3925461,-0.01,-0.03,1.08,1.4,2.56,3.36,888.66,23.86,
3925499,-0.0,-0.03,1.11,1.28,1.65,3.6,888.69,23.86,
3925537,-0.01,-0.02,1.13,0.98,1.53,3.48,888.64,23.86,
3925575,-0.02,-0.03,1.15,0.98,2.14,3.42,888.67,23.87,
3925614,-0.01,-0.03,1.15,0.67,2.44,3.36,888.63,23.86,
3925652,-0.01,-0.02,1.15,0.98,1.65,3.36,888.68,23.86,
3925690,-0.02,-0.03,1.14,0.79,2.2,3.23,888.61,23.86,
3925728,-0.02,-0.03,1.1,1.22,2.2,3.3,888.59,23.85,
3925778,-0.0,-0.03,1.1,1.34,2.26,3.17,888.56,23.86,
3925817,-0.02,-0.03,1.06,1.34,2.26,2.99,888.56,23.86,
3925855,-0.0,-0.03,1.09,1.22,2.38,3.05,888.56,23.85,
3925893,-0.01,-0.04,1.06,1.1,2.93,3.05,888.5,23.86,
3925931,-0.02,-0.04,1.05,1.04,2.81,2.99,888.51,23.86,
3925970,-0.02,-0.04,1.05,1.1,3.11,3.05,888.49,23.86,
3926008,-0.01,-0.03,1.04,1.34,3.42,2.87,888.47,23.86,
3926046,-0.01,-0.03,1.05,1.59,3.3,2.99,888.52,23.85,
3926084,-0.02,-0.04,1.04,1.53,3.6,2.93,888.44,23.87,
3926134,-0.0,-0.04,1.07,1.71,4.21,2.75,888.45,23.85,
3926173,-0.0,-0.04,1.03,1.65,5.07,2.75,888.49,23.88,
3926211,-0.01,-0.03,1.04,1.77,4.94,2.69,888.42,23.86,
3926249,-0.02,-0.05,1.0,1.53,6.04,2.75,888.51,23.89,
3926287,-0.01,-0.03,1.04,1.65,5.86,2.5,888.37,23.86,
3926326,-0.0,-0.04,1.03,1.34,6.29,2.5,888.42,23.88,
3926364,-0.01,-0.04,1.01,1.4,5.55,2.75,888.42,23.87,
3926402,-0.01,-0.04,1.01,1.22,5.55,2.75,888.41,23.87,
3926440,-0.0,-0.05,0.98,0.92,5.0,2.75,888.39,23.87,
3926479,-0.0,-0.04,0.98,0.55,4.09,2.87,888.33,23.86,
3926529,-0.01,-0.05,0.96,0.24,3.48,2.75,888.35,23.86,
3926567,-0.01,-0.04,0.94,-0.43,3.17,2.69,888.28,23.86,
3926605,-0.0,-0.04,0.96,-0.92,2.87,2.44,888.29,23.86,
3926643,-0.0,-0.04,0.98,-1.22,2.5,2.44,888.28,23.86,
3926682,-0.01,-0.04,1.0,-1.59,2.5,2.62,888.25,23.85,
3926720,-0.01,-0.04,1.03,-1.95,3.42,2.2,888.3,23.86,
3926758,-0.0,-0.03,1.07,-1.95,3.97,2.14,888.23,23.87,
3926796,-0.01,-0.03,1.08,-2.08,3.78,2.01,888.28,23.87,
3926835,-0.01,-0.03,1.07,-2.2,4.21,2.08,888.25,23.86,
3926911,-0.0,-0.03,1.07,-1.65,4.39,1.89,888.16,23.82,
3926949,-0.02,-0.03,1.04,-1.53,4.64,1.65,888.2,23.86,
3926987,0.0,-0.04,1.04,-1.34,4.94,1.65,888.17,23.84,
3927077,-0.01,-0.04,1.04,-1.28,3.6,1.83,888.13,23.82,
3927115,0.0,-0.04,1.0,-1.4,3.3,1.77,888.16,23.84,
3927153,-0.01,-0.02,1.03,-1.34,2.01,1.71,888.15,23.84,
3927192,-0.01,-0.04,1.0,-1.34,1.59,1.89,888.01,23.84,
3927230,-0.02,-0.04,1.01,-1.46,0.67,1.83,888.11,23.85,
3927268,-0.01,-0.03,1.03,-1.65,0.61,1.71,888.07,23.84,
3927306,-0.02,-0.04,1.06,-1.22,0.37,1.83,888.07,23.84,
3927356,-0.02,-0.03,1.07,-0.79,0.92,1.65,888.06,23.83,
3927395,-0.01,-0.03,1.08,-0.49,1.83,1.71,888.03,23.84,
3927433,-0.02,-0.03,1.08,-0.12,1.71,1.53,888.01,23.84,
3927471,-0.02,-0.02,1.07,0.12,2.69,1.28,888.02,23.85,
3927509,-0.02,-0.02,1.07,0.55,3.66,1.28,887.99,23.85,
3927548,-0.01,-0.03,1.07,0.67,4.09,1.28,887.98,23.85,
3927586,-0.02,-0.02,1.06,0.79,4.27,1.22,887.92,23.86,
3927624,-0.02,-0.02,1.08,1.04,4.64,1.28,887.93,23.85,
3927662,-0.02,-0.03,1.09,0.79,4.82,1.34,887.91,23.86,
3927701,-0.02,-0.03,1.08,0.92,4.64,1.16,887.94,23.86,
3927751,-0.02,-0.02,1.08,0.85,5.0,1.22,887.9,23.85,
3927789,-0.02,-0.03,1.06,0.85,5.07,1.22,887.89,23.86,
3927827,-0.01,-0.02,1.07,1.16,4.58,1.28,887.85,23.85,
3927865,-0.03,-0.03,1.04,1.16,4.33,1.46,887.87,23.85,
3927904,-0.02,-0.03,1.01,1.28,4.76,1.46,887.88,23.87,
3927942,-0.02,-0.04,1.01,1.65,5.19,1.22,887.83,23.86,
3927980,-0.02,-0.04,1.0,1.59,5.19,1.16,887.74,23.85,
3928018,-0.02,-0.04,0.97,1.89,4.94,1.4,887.77,23.87,
3928057,-0.02,-0.04,0.92,1.59,5.25,1.22,887.73,23.87,
3928107,-0.03,-0.03,0.91,1.04,6.23,0.92,887.73,23.85,
3928145,-0.02,-0.04,0.96,1.22,6.59,1.22,887.75,23.86,
3928183,-0.03,-0.05,0.95,1.04,7.39,1.1,887.68,23.85,
3928221,-0.02,-0.04,0.97,1.22,7.75,0.79,887.65,23.86,
3928260,-0.02,-0.03,1.0,1.28,8.79,0.67,887.7,23.85,
3928298,-0.01,-0.03,0.98,1.22,8.85,0.79,887.69,23.86,
3928336,-0.03,-0.03,0.93,1.53,8.61,0.67,887.62,23.86,
3928375,-0.03,-0.03,0.94,1.77,8.18,0.67,887.64,23.86,
3928413,-0.01,-0.05,0.92,2.01,8.36,0.92,887.63,23.86,
3928451,-0.0,-0.03,0.95,2.32,6.59,0.61,887.62,23.86,
3928501,-0.03,-0.03,0.89,2.38,6.47,0.85,887.59,23.85,
3928539,-0.02,-0.03,0.95,2.93,5.31,0.73,887.59,23.86,
3928577,-0.01,-0.05,0.91,2.93,5.8,0.55,887.52,23.85,
3928616,-0.02,-0.04,0.92,3.05,4.52,0.55,887.55,23.86,
3928654,-0.02,-0.04,0.9,3.3,4.64,0.61,887.49,23.85,
3928692,-0.02,-0.04,0.87,3.05,4.82,0.49,887.52,23.86,
3928730,-0.02,-0.04,0.87,3.23,4.39,0.24,887.53,23.86,
3928769,-0.02,-0.04,0.82,2.5,4.39,0.43,887.52,23.87,
3928807,-0.02,-0.05,0.84,2.26,3.6,0.31,887.44,23.87,
3928857,-0.02,-0.04,0.81,1.04,3.17,0.31,887.46,23.85,
3928895,-0.02,-0.03,0.84,0.79,1.83,0.31,887.46,23.86,
3928933,-0.02,-0.04,0.81,0.06,2.01,0.18,887.39,23.85,
3928972,-0.02,-0.04,0.84,-0.12,1.34,0.24,887.38,23.86,
3929010,-0.02,-0.04,0.87,-0.37,0.85,0.24,887.35,23.86,
3929048,-0.03,-0.04,0.85,-0.67,0.61,0.18,887.38,23.85,
3929086,-0.03,-0.03,0.9,-0.79,0.31,0.18,887.36,23.87,
3929125,-0.02,-0.03,0.89,-0.67,0.85,0.0,887.4,23.86,
3929163,-0.02,-0.03,0.89,-0.98,0.43,-0.06,887.35,23.86,
3929201,-0.02,-0.03,0.92,-0.73,0.55,-0.12,887.35,23.86,
3929251,-0.03,-0.02,0.93,-0.37,0.31,0.0,887.39,23.86,
3929289,-0.02,-0.03,0.95,0.18,0.55,-0.12,887.31,23.86,
3929328,-0.02,-0.02,0.96,0.43,0.31,-0.31,887.28,23.85,
3929366,-0.03,-0.01,1.0,0.98,0.0,-0.31,887.29,23.86,
3929404,-0.02,-0.01,0.99,0.92,0.61,-0.31,887.27,23.87,
3929442,-0.02,-0.0,1.04,1.34,0.37,-0.55,887.3,23.86,
3929481,-0.03,-0.01,1.04,1.71,0.67,-0.55,887.27,23.86,
3929519,-0.02,-0.01,1.06,1.95,0.31,-0.55,887.24,23.86,
3929557,-0.03,-0.01,1.07,2.2,0.73,-0.49,887.22,23.85,
3929607,-0.02,-0.0,1.08,2.38,0.92,-0.67,887.16,23.85,
3929645,-0.03,0.0,1.09,2.5,1.71,-0.79,887.18,23.86,
3929684,-0.03,-0.01,1.04,2.87,2.14,-0.67,887.13,23.86,
3929722,-0.03,-0.01,1.05,3.11,2.01,-0.79,887.17,23.87,
3929760,-0.03,-0.02,1.0,3.36,2.44,-0.98,887.13,23.85,
3929799,-0.04,-0.03,0.94,3.54,2.44,-0.92,887.16,23.86,
3929837,-0.03,-0.03,0.92,3.91,2.56,-0.92,887.08,23.87,
3929875,-0.03,-0.03,0.9,4.21,2.26,-0.98,887.1,23.86,
3929913,-0.04,-0.03,0.86,4.15,3.17,-0.85,887.08,23.86,
3929952,-0.04,-0.02,0.83,3.97,3.85,-0.92,887.03,23.86,
3930028,-0.05,-0.05,0.85,3.05,4.21,-0.67,887.11,23.85,
3930066,-0.04,-0.04,0.91,3.23,4.09,-0.85,887.08,23.83,
3930104,-0.04,-0.02,0.88,2.99,5.0,-0.79,887.07,23.85,
3930194,-0.04,-0.04,0.8,3.3,4.94,-0.49,887.06,23.82,
3930232,-0.04,-0.03,0.81,3.3,4.39,-0.37,886.99,23.83,
3930271,-0.04,-0.04,0.81,3.17,4.52,-0.18,886.98,23.84,
3930309,-0.04,-0.04,0.79,2.81,4.52,-0.24,886.97,23.85,
3930347,-0.06,-0.04,0.78,2.75,4.21,-0.06,886.99,23.83,
3930386,-0.04,-0.03,0.78,2.14,4.21,0.12,887.04,23.84,
3930436,-0.03,-0.03,0.76,1.95,3.85,-0.18,886.98,23.84,
3930474,-0.04,-0.03,0.74,1.46,3.91,0.06,887.0,23.85,
3930512,-0.03,-0.03,0.79,0.85,3.42,0.12,886.86,23.83,
3930550,-0.03,-0.03,0.82,0.73,3.36,0.24,886.93,23.85,
3930588,-0.04,-0.03,0.85,0.06,2.62,0.24,886.92,23.85,
3930627,-0.04,-0.02,0.89,-0.12,2.32,0.12,886.92,23.84,
3930665,-0.04,-0.03,0.89,-0.24,2.56,0.18,886.9,23.85,
3930703,-0.03,-0.02,0.91,0.06,2.32,0.18,886.95,23.86,
3930741,-0.03,-0.01,0.93,0.31,2.26,0.18,886.99,23.85,
3930780,-0.04,-0.02,0.92,0.79,2.5,0.18,886.92,23.85,
3930830,-0.04,-0.01,0.93,1.53,2.87,0.06,886.91,23.84,
3930868,-0.04,-0.02,0.93,2.01,2.56,0.18,886.95,23.84,
3930906,-0.04,-0.02,0.95,2.38,2.56,0.12,886.94,23.85,
3930944,-0.04,-0.02,0.91,2.81,3.11,0.12,886.89,23.85,
3930983,-0.03,-0.01,0.92,3.05,2.81,0.06,886.92,23.85,
3931021,-0.04,-0.01,0.9,3.3,3.11,0.06,886.88,23.84,
3931059,-0.04,-0.02,0.88,3.6,3.17,0.18,886.92,23.84,
3931097,-0.04,-0.01,0.88,3.78,3.42,0.06,886.9,23.84,
3931136,-0.04,-0.02,0.86,4.15,3.36,0.12,886.91,23.86,
3931174,-0.03,-0.02,0.86,4.33,2.99,0.12,886.86,23.86,
3931224,-0.03,-0.02,0.84,4.52,3.11,0.24,886.88,23.84,
3931262,-0.03,-0.01,0.84,4.58,2.81,0.37,886.95,23.86,
3931300,-0.03,-0.02,0.81,4.52,2.44,0.31,886.93,23.86,
3931339,-0.04,-0.02,0.8,4.58,1.95,0.31,886.88,23.86,
3931377,-0.04,-0.02,0.8,4.33,1.65,0.55,886.87,23.85,
3931415,-0.03,-0.02,0.79,4.27,1.46,0.43,886.86,23.84,
3931453,-0.04,-0.02,0.78,4.15,0.85,0.55,886.86,23.86,
3931492,-0.03,-0.02,0.78,3.85,0.73,0.61,886.91,23.87,
3931530,-0.04,-0.02,0.78,3.66,0.55,0.61,886.79,23.86,
3931580,-0.03,-0.02,0.77,3.54,0.49,0.55,886.88,23.85,
3931618,-0.04,-0.02,0.77,3.3,0.73,0.55,886.88,23.86,
3931656,-0.03,-0.02,0.75,3.11,1.28,0.61,886.87,23.86,
3931695,-0.03,-0.02,0.74,2.81,1.59,0.55,886.86,23.86,
3931733,-0.04,-0.02,0.75,2.93,1.53,0.61,886.86,23.85,
3931771,-0.04,-0.02,0.76,2.99,2.14,0.67,886.84,23.84,
3931809,-0.02,-0.01,0.78,3.05,2.5,0.67,886.92,23.86,
3931848,-0.03,-0.0,0.83,3.36,2.14,0.61,886.85,23.87,
3931886,-0.04,-0.0,0.84,3.54,2.69,0.79,886.81,23.85,
3931924,-0.03,-0.0,0.88,4.27,2.56,0.92,886.81,23.84,
3931974,-0.03,0.01,0.86,4.7,2.75,0.85,886.88,23.85,
3932012,-0.04,0.01,0.84,5.0,2.69,1.16,886.83,23.86,
3932051,-0.03,0.02,0.87,5.07,2.44,1.4,886.88,23.85,
3932089,-0.03,0.02,0.88,5.31,2.26,1.22,886.85,23.86,
3932127,-0.03,0.01,0.89,5.43,1.77,1.53,886.81,23.85,
3932165,-0.04,0.02,0.88,5.55,1.53,1.77,886.82,23.86,
3932204,-0.03,0.02,0.89,5.49,1.4,1.77,886.87,23.86,
3932242,-0.04,0.03,0.88,5.62,1.04,2.2,886.84,23.86,
3932280,-0.04,0.03,0.89,5.74,0.43,2.44,886.88,23.86,
3932319,-0.04,0.03,0.9,5.74,-0.18,2.5,886.83,23.86,
3932368,-0.04,0.04,0.91,5.62,-0.61,2.75,886.85,23.84,
3932407,-0.03,0.04,0.94,5.68,-1.1,3.17,886.81,23.85,
3932445,-0.03,0.03,0.94,5.74,-1.4,3.23,886.85,23.85,
3932483,-0.03,0.03,0.96,5.55,-1.65,3.48,886.9,23.85,
3932522,-0.04,0.04,0.95,5.8,-1.59,3.72,886.89,23.86,
3932560,-0.03,0.04,0.94,6.1,-1.53,3.6,886.91,23.86,
3932598,-0.03,0.04,0.93,6.23,-1.28,3.85,886.91,23.86,
3932636,-0.03,0.04,0.92,6.71,-1.28,3.78,886.88,23.85,
3932675,-0.03,0.03,0.92,6.96,-1.53,4.03,886.93,23.87,
3932713,-0.03,0.03,0.9,7.08,-1.4,3.97,886.94,23.85,
3932763,-0.03,0.03,0.93,7.32,-1.34,4.09,886.92,23.85,
3932801,-0.02,0.02,0.89,7.2,-0.55,4.15,886.94,23.85,
3932839,-0.03,0.02,0.89,7.39,-0.79,4.33,886.93,23.85,
3932878,-0.02,0.01,0.88,7.2,0.55,4.03,886.95,23.85,
3932916,-0.02,0.02,0.85,7.14,0.18,4.21,886.93,23.84,
3932954,-0.02,0.02,0.87,7.02,0.43,4.21,886.99,23.86,
3932992,-0.02,0.01,0.83,6.71,0.98,4.09,886.94,23.86,
3933031,-0.03,0.02,0.85,6.35,0.92,4.27,886.96,23.85,
3933069,-0.01,0.02,0.88,6.04,1.46,4.33,886.93,23.86,
3933145,-0.03,0.02,0.91,5.55,1.83,4.33,886.98,23.84,
3933183,-0.01,0.02,0.91,5.31,2.38,4.46,887.02,23.84,
3933221,-0.01,0.02,0.9,5.31,2.44,4.33,886.98,23.84,
3933260,-0.03,0.01,0.86,5.07,3.3,4.46,887.04,23.85,
3933351,-0.01,0.02,0.86,4.64,3.97,4.64,887.05,23.81,
3933389,-0.02,0.01,0.87,4.46,3.54,4.58,887.04,23.82,
3933427,-0.01,0.0,0.9,4.27,4.03,4.39,887.01,23.83,
3933466,-0.0,0.01,0.87,4.21,4.58,4.46,887.01,23.83,
3933504,-0.0,0.01,0.89,3.97,4.58,4.39,887.08,23.83,
3933542,-0.0,0.01,0.86,3.48,4.76,4.39,887.05,23.85,
3933592,-0.0,0.0,0.85,3.42,5.37,4.33,887.12,23.83,
3933630,-0.0,-0.0,0.85,2.99,5.37,4.09,887.06,23.84,
3933669,-0.01,-0.01,0.84,2.87,5.86,3.91,887.09,23.85,
3933707,0.0,-0.0,0.83,2.56,6.23,3.78,887.13,23.84,
3933745,0.01,-0.01,0.85,2.5,5.92,3.91,887.13,23.85,
3933783,-0.0,-0.0,0.84,2.2,6.16,3.72,887.1,23.84,
3933822,-0.0,-0.01,0.86,2.2,6.47,3.72,887.12,23.84,
3933860,0.0,-0.01,0.85,2.01,6.77,3.66,887.12,23.84,
3933898,0.01,-0.01,0.85,1.95,6.35,3.48,887.12,23.84,
3933936,0.0,-0.01,0.83,1.83,6.59,3.11,887.19,23.86,
3933986,0.01,-0.01,0.84,1.4,6.9,3.3,887.11,23.84,
3934025,0.01,-0.02,0.85,1.16,6.65,3.05,887.16,23.84,
3934063,0.0,-0.01,0.83,0.98,6.23,2.75,887.23,23.84,
3934101,0.0,-0.02,0.83,0.67,5.13,2.75,887.24,23.86,
3934139,0.01,-0.02,0.81,-0.06,4.82,2.69,887.23,23.85,
3934178,0.02,-0.01,0.83,-0.49,3.91,2.75,887.24,23.85,
3934216,0.01,-0.01,0.85,-0.79,3.3,2.5,887.28,23.85,
3934254,0.01,-0.02,0.84,-1.34,2.99,2.14,887.23,23.84,
3934292,-0.01,-0.01,0.91,-1.16,2.38,2.44,887.25,23.83,
3934331,0.01,-0.02,0.93,-1.28,2.5,2.01,887.28,23.86,
3934381,0.01,-0.01,0.94,-1.1,2.2,1.83,887.36,23.84,
3934419,0.0,-0.0,0.92,-1.4,2.26,1.89,887.28,23.84,
3934457,0.01,-0.0,0.93,-1.53,1.46,1.59,887.37,23.85,
3934495,0.0,-0.0,0.93,-1.46,1.59,1.71,887.38,23.84,
3934534,-0.0,-0.01,0.95,-1.65,0.85,1.71,887.38,23.85,
3934572,-0.01,-0.01,0.99,-1.28,0.31,1.46,887.34,23.85,
3934610,-0.0,0.0,0.98,-1.65,0.31,1.53,887.32,23.85,
3934648,0.0,0.01,1.01,-1.53,-0.12,1.46,887.39,23.84,
3934687,0.0,0.0,1.01,-2.08,0.0,1.4,887.37,23.85,
3934737,-0.01,0.01,1.06,-2.01,-0.18,1.34,887.4,23.85,
3934775,-0.01,0.02,1.08,-2.2,-0.12,1.34,887.39,23.85,
3934813,-0.01,0.02,1.08,-1.77,0.43,1.1,887.44,23.85,
3934851,-0.0,0.01,1.05,-1.65,1.28,0.92,887.51,23.86,
3934890,-0.01,0.02,1.08,-1.16,1.53,0.73,887.49,23.84,
3934928,-0.01,0.01,1.02,-1.16,2.75,0.67,887.5,23.84,
3934966,-0.01,0.03,1.09,-0.73,2.75,0.43,887.5,23.85,
3935004,0.01,0.01,1.08,-0.49,3.85,0.24,887.58,23.86,
3935043,-0.01,0.01,1.1,-0.06,3.54,0.31,887.53,23.85,
3935081,-0.01,0.02,1.13,0.31,4.21,0.24,887.54,23.85,
3935131,-0.01,0.04,1.14,0.49,4.39,-0.06,887.6,23.85,
3935169,-0.01,0.03,1.17,0.61,4.88,0.0,887.6,23.84,
3935207,0.0,0.02,1.13,0.73,4.7,0.0,887.61,23.85,
3935246,-0.02,0.03,1.14,0.98,4.52,0.0,887.64,23.85,
3935284,-0.01,0.03,1.13,1.04,4.64,0.06,887.64,23.86,
3935322,-0.01,0.04,1.16,1.1,3.6,0.12,887.64,23.86,
3935360,-0.01,0.03,1.16,1.16,3.23,0.18,887.6,23.86,
3935399,-0.0,0.01,1.14,0.79,3.17,0.18,887.63,23.85,
3935437,-0.0,0.03,1.12,0.61,3.11,0.06,887.59,23.85,
3935475,0.0,0.02,1.13,0.55,2.81,0.12,887.6,23.85,
3935525,-0.01,0.0,1.05,-0.18,2.56,0.0,887.69,23.84,
3935563,-0.01,-0.0,1.09,-0.31,2.44,-0.06,887.63,23.86,
3935602,-0.0,-0.01,1.01,-0.49,2.5,-0.12,887.7,23.87,
3935640,-0.01,0.0,1.04,0.18,1.59,-0.18,887.68,23.86,
3935678,-0.01,-0.01,1.0,0.06,2.5,-0.06,887.72,23.86,
3935716,0.0,-0.02,0.98,0.67,2.14,-0.18,887.7,23.84,
3935755,-0.01,-0.02,0.96,0.73,2.44,-0.31,887.77,23.86,
3935793,-0.01,-0.02,0.96,0.92,1.83,-0.24,887.73,23.85,
3935831,-0.01,-0.03,0.92,0.73,2.69,-0.37,887.79,23.85,
3935881,0.0,-0.02,0.96,0.67,2.32,-0.55,887.73,23.83,
3935919,0.0,-0.04,0.91,0.0,2.56,-0.31,887.8,23.84,
3935957,-0.0,-0.02,0.93,-0.31,1.53,-0.55,887.79,23.83,
3935996,-0.02,-0.02,0.96,-0.67,1.95,-0.55,887.76,23.82,
3936034,-0.0,-0.03,0.98,-0.98,1.89,-0.73,887.8,23.84,
3936072,-0.01,-0.03,0.97,-1.34,1.89,-0.73,887.81,23.84,
3936110,-0.0,-0.01,1.01,-1.16,2.08,-0.92,887.84,23.83,
3936148,-0.01,-0.01,1.03,-1.4,2.14,-0.85,887.8,23.84,
3936187,-0.02,-0.02,1.04,-1.46,2.01,-0.61,887.83,23.83,
3936225,-0.01,-0.01,1.05,-1.53,2.62,-0.98,887.82,23.82,
3936301,-0.01,0.0,1.08,-1.77,3.17,-0.98,887.87,23.79,
3936339,-0.02,-0.0,1.09,-1.95,3.36,-1.04,887.83,23.83,
3936377,-0.02,-0.0,1.15,-1.89,3.42,-1.16,887.89,23.82,
3936467,-0.02,0.02,1.21,-1.16,3.48,-1.16,887.9,23.79,
3936505,-0.02,0.01,1.21,-1.16,4.15,-1.34,887.92,23.79,
3936544,-0.01,0.01,1.22,-0.67,3.72,-1.22,887.93,23.81,
3936582,-0.01,0.01,1.21,-0.37,3.85,-1.4,887.92,23.81,
3936620,-0.02,0.01,1.17,-0.12,3.97,-1.34,887.95,23.81,
3936658,-0.02,0.01,1.2,0.06,4.27,-1.22,887.99,23.82,
3936708,-0.02,0.01,1.17,0.49,4.09,-1.4,888.02,23.81,
3936747,-0.02,0.02,1.2,0.49,3.97,-1.4,887.87,23.81,
3936785,-0.02,0.01,1.19,0.85,4.09,-1.22,887.93,23.81,
3936823,-0.02,0.0,1.19,0.98,3.72,-1.34,887.93,23.81,
3936861,-0.02,0.01,1.19,1.04,3.72,-1.4,887.98,23.82,
3936900,-0.02,0.01,1.18,0.98,3.6,-1.34,887.98,23.82,
3936938,-0.03,0.0,1.16,1.4,3.72,-1.4,887.92,23.81,
3936976,-0.02,0.0,1.14,1.22,3.85,-1.46,887.95,23.82,
3937014,-0.02,-0.0,1.13,1.53,3.97,-1.53,887.96,23.82,
3937053,-0.03,-0.01,1.09,1.65,3.78,-1.4,887.95,23.81,
3937103,-0.04,-0.01,1.07,1.65,3.97,-1.34,887.98,23.82,
3937141,-0.02,-0.01,1.09,2.01,3.85,-1.34,888.0,23.82,
3937179,-0.03,-0.02,1.06,1.77,3.78,-1.28,888.03,23.82,
3937217,-0.04,-0.02,1.06,2.2,3.23,-1.1,888.01,23.83,
3937256,-0.02,-0.02,1.05,2.32,3.36,-1.22,888.0,23.83,
3937294,-0.03,-0.02,1.01,2.32,2.69,-1.22,888.01,23.83,
3937332,-0.04,-0.02,1.03,2.5,2.62,-0.98,888.03,23.83,
3937370,-0.03,-0.02,1.0,2.38,2.93,-0.98,888.07,23.84,
3937409,-0.02,-0.02,1.03,2.38,2.38,-0.98,888.03,23.84,
3937459,-0.03,-0.02,0.98,2.08,2.62,-0.98,888.06,23.82,
3937497,-0.03,-0.02,1.03,2.26,1.95,-0.98,888.0,23.82,
3937535,-0.02,-0.03,1.0,2.01,2.44,-0.85,888.03,23.83,
3937573,-0.04,-0.02,1.02,2.08,1.53,-0.92,888.02,23.82,
3937612,-0.03,-0.02,1.01,1.77,2.69,-0.85,887.98,23.82,
3937650,-0.03,-0.02,1.01,1.83,2.26,-1.04,888.0,23.84,
3937688,-0.04,-0.02,1.04,1.77,2.5,-0.85,888.05,23.83,
3937726,-0.03,-0.02,1.02,1.34,3.11,-0.92,888.03,23.83,
3937765,-0.04,-0.02,1.04,1.46,3.36,-1.1,887.99,23.82,
3937803,-0.03,-0.02,1.03,1.28,3.17,-0.79,888.02,23.83,
3937853,-0.04,-0.02,1.06,1.04,3.23,-0.85,888.06,23.81,
3937891,-0.04,-0.02,1.05,0.92,3.48,-0.85,888.06,23.82,
3937929,-0.03,-0.02,1.07,0.85,3.42,-0.98,888.04,23.82,
3937968,-0.04,-0.02,1.05,0.79,3.42,-0.73,888.04,23.82,
3938006,-0.04,-0.01,1.06,0.98,2.93,-0.79,888.06,23.83,
3938044,-0.04,-0.01,1.07,1.28,2.87,-0.67,888.08,23.83,
3938082,-0.03,-0.01,1.08,1.22,2.69,-0.61,888.09,23.84,
3938121,-0.04,-0.01,1.08,1.65,2.38,-0.49,888.05,23.82,
3938159,-0.04,-0.02,1.07,1.77,2.01,-0.31,888.02,23.83,
3938209,-0.04,-0.01,1.06,2.08,1.77,-0.43,888.1,23.82,
3938247,-0.03,-0.02,1.02,2.14,1.83,-0.49,888.06,23.82,
3938285,-0.03,-0.02,1.0,2.44,1.77,-0.31,888.04,23.83,
3938324,-0.04,-0.03,0.97,2.62,1.95,-0.31,888.08,23.82,
3938362,-0.03,-0.02,0.94,2.44,1.95,-0.37,888.06,23.84,
3938400,-0.04,-0.02,0.93,2.38,2.01,-0.37,888.09,23.84,
3938438,-0.03,-0.03,0.9,2.2,1.83,-0.31,888.09,23.84,
3938477,-0.03,-0.03,0.91,2.2,2.01,-0.43,888.05,23.84,
3938515,-0.04,-0.03,0.91,2.08,2.38,-0.43,888.12,23.85,
3938553,-0.04,-0.03,0.92,1.95,2.75,-0.55,888.07,23.83,
3938603,-0.04,-0.02,0.92,1.65,3.6,-0.61,888.05,23.82,
3938641,-0.04,-0.03,0.94,1.59,3.54,-0.67,888.1,23.84,
3938680,-0.04,-0.03,0.94,1.28,3.72,-0.61,888.08,23.83,
3938718,-0.04,-0.02,0.94,1.46,3.6,-0.67,888.06,23.84,
3938756,-0.05,-0.02,0.96,1.28,4.15,-0.61,888.1,23.84,
3938794,-0.05,-0.02,0.94,1.28,4.15,-0.61,888.04,23.83,
3938833,-0.05,-0.02,0.97,1.4,4.33,-0.55,888.09,23.84,
3938871,-0.05,-0.03,0.97,1.59,4.46,-0.43,888.07,23.83,
3938909,-0.04,-0.02,0.97,1.77,4.27,-0.43,888.07,23.84,
3938959,-0.05,-0.01,0.98,2.08,4.09,-0.18,888.12,23.83,
3938997,-0.05,-0.02,0.98,1.95,4.15,-0.12,888.07,23.83,
3939036,-0.04,-0.02,0.99,2.14,3.85,0.0,888.07,23.84,
3939074,-0.04,-0.02,0.99,2.2,3.17,0.0,888.08,23.84,
3939112,-0.04,-0.02,0.97,2.01,3.23,0.0,888.11,23.84,
3939150,-0.05,-0.01,0.98,2.14,2.87,0.24,888.1,23.85,
3939189,-0.04,-0.02,0.97,2.14,2.99,0.18,888.12,23.84,
3939227,-0.04,-0.02,0.97,2.01,2.56,0.18,888.14,23.84,
3939265,-0.04,-0.02,0.98,2.14,2.87,0.31,888.09,23.85,
3939303,-0.04,-0.02,0.98,1.95,2.5,0.24,888.09,23.83,
3939379,-0.04,-0.02,0.99,1.89,2.5,0.31,888.11,23.81,
3939418,-0.04,-0.01,1.0,1.95,2.44,0.31,888.13,23.81,
3939456,-0.05,-0.01,1.01,1.77,2.56,0.43,888.13,23.82,
3939546,-0.05,-0.01,1.01,2.08,2.56,0.37,888.1,23.79,
3939584,-0.05,-0.02,0.99,2.01,2.75,0.37,888.15,23.81,
3939622,-0.04,-0.02,1.0,2.08,2.75,0.49,888.15,23.81,
3939660,-0.04,-0.02,1.0,2.14,2.93,0.37,888.18,23.81,
3939699,-0.04,-0.01,1.0,2.5,2.38,0.49,888.15,23.82,
3939737,-0.05,-0.01,1.0,2.69,1.95,0.49,888.17,23.81,
3939787,-0.04,-0.01,1.01,3.05,2.08,0.49,888.11,23.81,
3939825,-0.04,-0.01,1.0,3.11,1.71,0.49,888.1,23.81,
3939863,-0.05,-0.0,1.02,3.23,1.77,0.49,888.17,23.82,
3939902,-0.05,-0.02,1.0,3.23,2.38,0.43,888.15,23.82,
3939940,-0.05,-0.01,1.01,3.36,2.32,0.43,888.22,23.82,
3939978,-0.04,-0.02,0.97,3.17,2.75,0.43,888.18,23.81,
3940016,-0.04,-0.02,0.95,3.36,2.75,0.55,888.19,23.81,
3940055,-0.06,-0.03,0.89,3.23,2.75,0.61,888.21,23.82,
3940093,-0.05,-0.02,0.9,3.36,2.44,0.61,888.18,23.81,
3940131,-0.04,-0.03,0.86,2.99,2.44,0.73,888.13,23.81,
3940181,-0.06,-0.02,0.88,3.11,1.22,0.98,888.15,23.81,
3940219,-0.05,-0.04,0.82,2.69,2.44,0.98,888.16,23.82,
3940258,-0.04,-0.04,0.85,2.62,1.46,0.85,888.17,23.81,
3940296,-0.05,-0.04,0.84,2.2,1.46,1.1,888.19,23.83,
3940334,-0.06,-0.03,0.83,1.95,1.34,1.46,888.22,23.82,
3940372,-0.06,-0.03,0.84,1.89,1.95,1.4,888.19,23.83,
3940411,-0.05,-0.03,0.84,1.53,2.2,1.28,888.12,23.82,
3940449,-0.06,-0.02,0.85,1.53,1.46,1.59,888.24,23.83,
3940487,-0.05,-0.03,0.87,1.59,2.2,1.65,888.19,23.84,
3940525,-0.04,-0.02,0.88,1.28,2.56,1.77,888.23,23.85,
3940575,-0.05,-0.02,0.91,1.16,2.5,1.83,888.22,23.82,
3940614,-0.05,-0.02,0.91,0.92,2.69,1.95,888.24,23.83,
3940652,-0.05,-0.02,0.92,0.98,3.17,2.08,888.22,23.82,
3940690,-0.04,-0.01,0.95,1.22,2.99,2.14,888.25,23.82,
3940728,-0.05,-0.02,0.97,1.16,3.11,2.08,888.24,23.84,
3940767,-0.05,-0.01,0.98,1.16,3.66,2.38,888.32,23.83,
3940805,-0.05,-0.01,1.02,1.46,4.03,2.32,888.22,23.82,
3940843,-0.04,-0.01,1.05,1.46,4.09,2.44,888.25,23.84,
3940881,-0.03,-0.0,1.07,1.71,4.64,2.44,888.25,23.83,
3940931,-0.04,0.0,1.11,2.01,4.88,2.5,888.28,23.82,
3940969,-0.04,-0.0,1.09,1.89,5.13,2.56,888.29,23.83,
3941008,-0.04,0.01,1.09,2.01,4.82,2.75,888.23,23.83,
3941046,-0.04,0.0,1.1,1.95,4.94,2.75,888.31,23.83,
3941084,-0.03,0.0,1.09,2.14,4.76,2.81,888.3,23.83,
3941122,-0.04,0.0,1.1,2.08,4.64,2.75,888.31,23.83,
3941161,-0.03,0.0,1.09,2.14,4.33,2.75,888.36,23.84,
3941199,-0.03,0.01,1.1,2.32,3.91,2.99,888.35,23.84,
3941237,-0.04,0.0,1.1,2.62,4.39,2.93,888.35,23.84,
3941275,-0.02,-0.0,1.1,2.5,4.88,2.93,888.35,23.83,
3941325,-0.03,0.0,1.09,2.81,4.21,2.99,888.42,23.82,
3941364,-0.03,-0.01,1.06,2.93,4.33,3.11,888.41,23.83,
3941402,-0.02,0.01,1.06,2.81,4.58,2.93,888.4,23.83,
3941440,-0.02,0.0,1.08,2.87,4.03,2.93,888.39,23.83,
3941478,-0.02,0.0,1.07,2.75,3.85,2.81,888.35,23.84,
3941517,-0.03,0.0,1.09,3.05,3.66,2.93,888.44,23.84,
3941555,-0.01,-0.01,1.07,2.62,3.97,2.81,888.39,23.82,
3941593,-0.01,-0.0,1.08,2.62,3.05,2.75,888.42,23.83,
3941631,-0.02,-0.01,1.09,2.62,3.17,2.87,888.39,23.84,
3941670,-0.02,-0.01,1.06,2.81,2.5,2.62,888.37,23.83,
3941720,-0.01,0.0,1.07,2.75,2.26,2.62,888.41,23.81,
3941758,-0.01,-0.0,1.05,2.99,1.77,2.69,888.44,23.82,
3941796,-0.02,0.0,1.05,2.81,1.46,2.32,888.43,23.83,
3941834,-0.01,-0.01,1.04,3.05,1.53,2.38,888.47,23.83,
3941873,-0.02,-0.01,1.03,3.05,1.22,2.08,888.46,23.82,
3941911,-0.01,-0.01,1.01,2.87,1.28,2.32,888.46,23.83,
3941949,-0.01,-0.01,0.99,2.81,1.34,2.01,888.43,23.82,
3941987,-0.01,-0.01,0.97,2.87,1.16,1.95,888.49,23.84,
3942025,-0.01,-0.01,0.96,2.93,1.1,1.77,888.4,23.83,
3942064,-0.02,-0.02,0.93,2.75,1.46,1.65,888.49,23.84,
3942114,-0.01,-0.01,0.93,2.87,1.34,1.46,888.47,23.82,
3942152,-0.02,-0.02,0.91,2.69,1.34,1.28,888.37,23.81,
3942190,-0.02,-0.02,0.93,2.69,1.4,1.34,888.51,23.84,
3942228,-0.01,-0.02,0.93,2.56,1.83,1.04,888.49,23.82,
3942267,-0.01,-0.01,0.92,2.62,1.83,1.1,888.52,23.83,
3942305,-0.01,-0.01,0.94,2.62,1.59,1.04,888.51,23.82,
3942343,-0.02,-0.02,0.89,2.56,2.2,0.92,888.51,23.83,
3942381,-0.02,-0.02,0.94,2.56,1.89,0.79,888.54,23.84,
3942420,-0.0,-0.02,0.92,2.32,2.69,0.79,888.52,23.84,
3942496,-0.02,-0.01,0.97,2.08,2.81,0.61,888.48,23.81,
3942534,-0.0,-0.01,0.98,1.89,3.11,0.37,888.55,23.83,
3942572,-0.02,-0.01,1.03,1.89,2.99,0.37,888.54,23.84,
3942662,-0.0,0.0,1.07,1.65,4.33,0.12,888.51,23.79,
3942700,-0.02,0.0,1.09,1.83,5.07,-0.12,888.55,23.81,
3942738,-0.01,-0.0,1.06,1.83,6.1,0.0,888.47,23.82,
3942776,-0.02,0.0,1.09,2.01,6.59,-0.18,888.52,23.81,
3942815,-0.02,-0.01,1.06,2.14,7.08,-0.18,888.54,23.81,
3942853,-0.02,-0.02,1.01,2.26,6.77,-0.12,888.52,23.83,
3942891,-0.02,-0.01,1.0,2.56,6.35,-0.06,888.58,23.82,
3942941,-0.0,-0.03,0.9,2.5,5.43,0.0,888.61,23.82,
3942979,-0.0,-0.03,0.87,2.5,4.03,0.12,888.61,23.82,
3943018,-0.0,-0.04,0.85,2.08,3.85,-0.06,888.58,23.82,
3943056,-0.0,-0.03,0.88,2.01,2.93,-0.24,888.59,23.84,
3943094,-0.01,-0.03,0.89,1.95,2.32,-0.18,888.6,23.82,
3943132,-0.01,-0.03,0.94,2.08,1.1,-0.18,888.64,23.82,
3943170,-0.02,-0.04,0.91,1.89,1.53,-0.18,888.54,23.82,
3943209,-0.01,-0.02,0.97,1.65,0.85,-0.49,888.57,23.84,
3943247,-0.01,-0.03,1.0,1.53,1.04,-0.49,888.61,23.83,
3943285,-0.02,-0.03,0.98,1.1,0.06,-0.61,888.58,23.83,
3943335,-0.01,-0.03,1.03,1.1,0.49,-0.98,888.57,23.82,
3943373,-0.01,-0.02,1.04,0.61,0.43,-0.98,888.58,23.83,
3943412,-0.01,-0.01,1.1,1.22,0.06,-0.85,888.57,23.83,
3943450,-0.01,-0.01,1.07,0.79,0.61,-1.16,888.55,23.82,
3943488,-0.02,-0.02,1.1,0.98,0.31,-1.22,888.61,23.82,
3943526,-0.02,-0.02,1.12,0.85,1.16,-1.34,888.56,23.82,
3943564,-0.01,-0.02,1.08,1.16,0.92,-1.34,888.56,23.84,
3943603,-0.03,-0.01,1.09,1.1,0.92,-1.59,888.63,23.83,
3943641,-0.03,-0.02,1.06,1.1,1.46,-1.59,888.59,23.83,
3943691,-0.02,-0.03,1.09,1.4,0.79,-1.71,888.61,23.82,
3943729,-0.04,-0.03,1.03,1.34,1.65,-1.77,888.62,23.82,
3943767,-0.03,-0.03,1.05,1.4,1.89,-1.83,888.58,23.82,
3943806,-0.03,-0.04,1.01,1.16,2.81,-2.01,888.58,23.84,
3943844,-0.03,-0.03,1.02,1.53,1.95,-1.95,888.58,23.82,
3943882,-0.04,-0.04,1.0,1.04,2.81,-1.95,888.56,23.84,
3943920,-0.04,-0.03,1.01,1.34,2.5,-1.89,888.59,23.83,
3943959,-0.03,-0.04,0.99,1.28,2.87,-1.77,888.64,23.84,
3943997,-0.05,-0.02,1.0,1.4,1.46,-1.59,888.57,23.84,
3944035,-0.05,-0.03,1.0,1.28,1.65,-1.46,888.59,23.83,
3944085,-0.06,-0.02,1.01,0.85,1.53,-1.4,888.58,23.81,
3944123,-0.04,-0.02,1.04,0.61,1.89,-1.22,888.6,23.84,
3944162,-0.04,-0.02,1.05,0.37,1.95,-1.04,888.55,23.83,
3944200,-0.04,-0.02,1.09,0.55,2.01,-1.1,888.62,23.84,
3944238,-0.04,-0.02,1.06,0.06,2.75,-1.04,888.6,23.84,
3944276,-0.05,-0.01,1.11,0.37,2.14,-1.1,888.57,23.83,
3944314,-0.04,-0.01,1.12,0.12,2.99,-0.92,888.58,23.83,
3944353,-0.04,-0.01,1.14,0.24,2.69,-0.92,888.6,23.84,
3944391,-0.05,-0.01,1.15,0.18,3.91,-0.92,888.6,23.85,
3944441,-0.04,-0.0,1.2,0.55,3.66,-0.92,888.58,23.82,
3944479,-0.03,-0.01,1.19,0.31,3.97,-0.85,888.58,23.83,
3944517,-0.04,0.0,1.2,0.67,3.17,-0.67,888.61,23.84,
3944556,-0.04,0.0,1.17,0.61,3.05,-0.55,888.59,23.83,
3944594,-0.03,0.01,1.17,0.92,1.95,-0.31,888.54,23.84,
3944632,-0.04,0.0,1.19,1.16,1.46,-0.18,888.58,23.83,
3944670,-0.03,-0.01,1.15,1.46,0.61,0.06,888.62,23.84,
3944709,-0.03,-0.02,1.16,2.14,-0.43,0.31,888.62,23.83,
3944747,-0.05,-0.03,1.07,2.26,-0.98,0.31,888.66,23.85,
3944785,-0.04,-0.02,1.01,2.56,-1.53,0.37,888.66,23.84,
3944835,-0.04,-0.04,0.93,2.75,-1.59,0.43,888.67,23.83,
3944873,-0.05,-0.04,0.9,2.69,-2.14,0.43,888.65,23.82,
3944912,-0.04,-0.04,0.86,2.38,-1.53,0.49,888.67,23.83,
3944950,-0.04,-0.04,0.87,2.32,-1.95,0.31,888.65,23.84,
3944988,-0.05,-0.04,0.87,1.89,-1.71,0.43,888.62,23.83,
3945026,-0.04,-0.05,0.86,1.71,-1.04,0.49,888.66,23.83,
3945065,-0.04,-0.04,0.87,1.4,0.0,0.43,888.58,23.84,
3945103,-0.03,-0.05,0.88,1.1,0.61,0.43,888.66,23.83,
3945141,-0.05,-0.04,0.87,1.28,1.04,0.61,888.65,23.84,
3945191,-0.05,-0.04,0.86,0.67,2.75,0.43,888.57,23.82,
3945229,-0.05,-0.04,0.89,0.79,3.72,0.67,888.61,23.83,
3945267,-0.05,-0.04,0.91,0.31,4.33,0.79,888.6,23.83,
3945306,-0.05,-0.03,0.95,0.31,4.52,0.73,888.58,23.83,
3945344,-0.06,-0.03,0.98,-0.06,5.19,0.85,888.61,23.83,
3945382,-0.04,-0.04,1.01,0.0,5.43,0.85,888.58,23.84,
3945420,-0.04,-0.02,1.03,-0.12,5.92,0.92,888.56,23.82,
3945459,-0.05,-0.02,1.05,0.24,6.16,1.16,888.59,23.83,
3945497,-0.05,-0.02,1.04,0.12,6.04,1.46,888.56,23.83,
3945535,-0.04,-0.02,1.09,0.31,5.49,1.53,888.59,23.84,
3945611,-0.05,-0.01,1.11,0.79,5.8,1.89,888.58,23.81,
3945649,-0.04,-0.01,1.14,0.98,5.92,1.89,888.59,23.81,
3945688,-0.05,-0.02,1.13,0.92,6.04,2.08,888.59,23.82,
3945777,-0.04,-0.01,1.11,1.46,6.65,2.38,888.58,23.78,
3945816,-0.04,-0.01,1.11,1.65,6.29,2.32,888.61,23.8,
3945854,-0.04,-0.02,1.07,1.46,6.29,2.5,888.59,23.82,
3945892,-0.04,-0.02,1.08,1.4,5.43,2.75,888.58,23.8,
3945930,-0.04,-0.02,1.05,1.4,5.62,2.75,888.62,23.81,
3945969,-0.04,-0.01,1.04,1.65,5.13,2.69,888.62,23.82,
3946019,-0.04,-0.02,1.02,1.95,4.82,3.05,888.59,23.81,
3946057,-0.03,-0.03,1.02,1.77,4.58,2.81,888.63,23.82,
3946095,-0.04,-0.04,0.99,2.14,4.88,2.87,888.66,23.82,
3946133,-0.03,-0.02,0.98,2.32,4.46,3.05,888.65,23.82,
3946172,-0.03,-0.03,0.96,2.26,4.33,3.05,888.64,23.82,
3946210,-0.02,-0.03,0.93,2.2,4.09,3.05,888.62,23.82,
3946248,-0.03,-0.03,0.94,2.44,3.85,2.99,888.62,23.81,
3946286,-0.02,-0.04,0.92,2.32,3.91,2.81,888.63,23.82,
3946325,-0.02,-0.03,0.92,2.38,3.6,2.75,888.62,23.82,
3946363,-0.02,-0.04,0.92,2.32,3.42,2.93,888.62,23.82,
3946413,-0.02,-0.03,0.9,2.44,2.99,2.93,888.53,23.81,
3946451,-0.02,-0.04,0.93,2.38,2.93,2.81,888.61,23.82,
3946489,-0.02,-0.04,0.92,2.32,2.08,2.69,888.66,23.83,
3946527,-0.03,-0.03,0.93,2.32,1.65,2.69,888.61,23.84,
3946566,-0.02,-0.03,0.93,2.2,2.08,2.56,888.65,23.82,
3946604,-0.01,-0.04,0.93,2.2,1.95,2.69,888.65,23.82,
3946642,-0.02,-0.04,0.92,2.14,1.28,2.56,888.64,23.81,
3946680,-0.02,-0.04,0.91,2.2,1.46,2.5,888.69,23.82,
3946719,-0.01,-0.03,0.91,2.2,1.77,2.32,888.66,23.83,
3946757,-0.01,-0.04,0.89,1.89,2.01,2.32,888.64,23.83,
3946807,-0.03,-0.04,0.9,2.2,2.08,2.08,888.66,23.82,
3946845,-0.02,-0.04,0.87,1.83,2.14,2.08,888.66,23.82,
3946883,-0.01,-0.04,0.89,2.01,1.77,1.89,888.62,23.82,
3946922,-0.03,-0.04,0.85,1.95,1.89,1.83,888.66,23.83,
3946960,-0.01,-0.04,0.88,1.83,1.89,1.83,888.61,23.81,
3946998,-0.01,-0.05,0.88,1.59,2.26,1.65,888.6,23.82,
3947036,-0.02,-0.04,0.87,1.59,1.65,1.77,888.6,23.82,
3947075,-0.02,-0.04,0.9,1.65,1.34,1.71,888.67,23.82,
3947113,-0.01,-0.04,0.89,1.28,1.53,1.59,888.62,23.82,
3947163,-0.02,-0.04,0.92,1.22,1.1,1.59,888.69,23.83,
3947201,-0.02,-0.04,0.92,1.16,1.1,1.53,888.7,23.83,
3947239,-0.02,-0.04,0.92,1.28,1.34,1.34,888.67,23.83,
3947278,-0.01,-0.03,0.92,1.22,0.85,1.22,888.69,23.82,
3947316,-0.02,-0.04,0.92,1.22,0.67,1.16,888.66,23.83,
3947354,-0.02,-0.03,0.93,0.98,0.98,1.04,888.67,23.82,
3947392,-0.01,-0.03,0.96,1.22,0.61,0.79,888.66,23.82,
3947430,-0.01,-0.03,0.97,1.1,0.85,0.85,888.68,23.83,
3947469,-0.02,-0.03,0.99,1.28,0.49,0.79,888.65,23.83,
3947507,-0.01,-0.03,0.99,1.1,0.67,0.67,888.66,23.83,
3947557,-0.02,-0.02,1.01,1.1,0.06,0.67,888.72,23.82,
3947595,-0.01,-0.02,1.02,1.04,-0.12,0.67,888.69,23.84,
3947633,-0.01,-0.02,1.02,1.1,-0.61,0.49,888.74,23.84,
3947672,-0.01,-0.02,1.05,1.04,-0.92,0.49,888.71,23.82,
3947710,-0.02,-0.01,1.06,1.22,-1.1,0.43,888.7,23.83,
3947748,-0.02,-0.01,1.07,1.16,-1.22,0.49,888.67,23.84,
3947786,-0.02,-0.02,1.07,1.28,-1.4,0.49,888.66,23.84,
3947825,-0.02,-0.01,1.07,1.46,-1.4,0.24,888.67,23.83,
3947863,-0.02,-0.01,1.05,1.46,-1.46,0.24,888.65,23.83,
3947901,-0.02,-0.02,1.04,1.89,-1.46,0.24,888.68,23.84,
3947951,-0.03,-0.03,1.0,2.2,-1.1,0.12,888.73,23.83,
3947989,-0.03,-0.03,0.98,2.26,-0.92,0.24,888.65,23.82,
3948028,-0.03,-0.03,0.97,2.38,-0.18,0.0,888.68,23.81,
3948066,-0.03,-0.03,0.92,2.56,0.49,-0.06,888.72,23.84,
3948104,-0.04,-0.03,0.92,2.5,0.79,-0.12,888.7,23.83,
3948142,-0.04,-0.03,0.92,2.44,1.71,-0.06,888.7,23.83,
3948180,-0.03,-0.03,0.94,2.32,2.01,-0.18,888.67,23.83,
3948219,-0.04,-0.03,0.95,2.26,2.81,-0.06,888.68,23.82,
3948257,-0.04,-0.03,0.96,2.26,3.48,-0.06,888.72,23.83,
3948307,-0.04,-0.02,0.99,2.32,4.03,-0.06,888.69,23.81,
3948345,-0.04,-0.03,0.98,2.38,4.33,-0.06,888.67,23.83,
3948383,-0.04,-0.02,0.97,2.38,4.33,0.06,888.68,23.83,
3948422,-0.03,-0.02,0.98,2.38,4.64,0.06,888.75,23.83,
3948460,-0.03,-0.02,0.98,2.5,4.64,0.24,888.7,23.83,
3948498,-0.04,-0.02,0.99,2.5,4.39,0.24,888.67,23.82,
3948536,-0.04,-0.02,0.99,2.69,4.64,0.43,888.68,23.84,
3948575,-0.04,-0.02,0.98,2.75,4.46,0.55,888.73,23.84,
3948613,-0.04,-0.02,0.99,2.75,4.21,0.67,888.73,23.83,
3948651,-0.04,-0.02,0.98,2.69,4.21,0.73,888.7,23.82,
3948727,-0.04,-0.03,0.99,2.69,3.72,0.92,888.72,23.79,
3948765,-0.03,-0.02,0.99,2.56,3.23,1.22,888.69,23.81,
3948804,-0.04,-0.03,0.96,2.62,3.36,1.22,888.73,23.81,
3948893,-0.03,-0.03,0.96,2.62,3.11,1.46,888.79,23.79,
3948932,-0.02,-0.03,0.97,2.75,2.81,1.34,888.69,23.79,
3948970,-0.03,-0.02,0.97,2.69,2.62,1.46,888.74,23.81,
3949008,-0.05,-0.03,0.96,2.87,2.69,1.46,888.73,23.81,
3949046,-0.03,-0.03,0.97,2.69,2.5,1.53,888.68,23.81,
3949085,-0.03,-0.02,0.96,2.44,2.56,1.53,888.76,23.82,
3949135,-0.03,-0.02,0.97,2.5,2.44,1.71,888.68,23.8,
3949173,-0.02,-0.02,0.96,2.38,2.69,1.65,888.75,23.8,
3949211,-0.04,-0.03,0.97,2.38,2.75,1.83,888.75,23.81,
3949249,-0.03,-0.03,0.97,2.62,2.99,1.77,888.76,23.81,
3949288,-0.04,-0.03,0.97,2.62,3.11,1.77,888.76,23.82,
3949326,-0.03,-0.02,0.95,2.62,2.93,1.65,888.75,23.83,
3949364,-0.02,-0.02,0.95,2.69,3.17,1.83,888.79,23.81,
3949402,-0.02,-0.03,0.94,2.75,3.17,1.77,888.82,23.82,
3949441,-0.03,-0.03,0.95,2.99,3.54,1.83,888.85,23.82,
3949479,-0.03,-0.03,0.93,2.93,3.66,1.77,888.82,23.83,
3949529,-0.03,-0.03,0.94,2.75,3.6,1.77,888.75,23.81,
3949567,-0.03,-0.03,0.93,2.81,4.15,1.77,888.79,23.82,
3949605,-0.02,-0.03,0.94,2.75,3.78,1.83,888.81,23.83,
3949644,-0.03,-0.03,0.93,2.75,3.85,1.83,888.79,23.82,
3949682,-0.03,-0.03,0.92,2.62,3.85,1.83,888.83,23.82,
3949720,-0.03,-0.03,0.93,2.5,4.03,1.89,888.82,23.84,
3949758,-0.03,-0.03,0.93,2.32,4.03,2.01,888.84,23.84,
3949797,-0.03,-0.02,0.94,2.44,3.91,1.95,888.78,23.83,
3949835,-0.03,-0.03,0.94,2.44,4.27,2.01,888.8,23.84,
3949873,-0.03,-0.03,0.94,2.5,4.46,1.89,888.82,23.84,
3949923,-0.02,-0.03,0.95,2.56,4.64,2.14,888.86,23.81,
3949961,-0.03,-0.03,0.93,2.62,5.0,2.01,888.89,23.83,
3950000,-0.02,-0.03,0.96,2.56,5.0,2.2,888.86,23.82,
3950038,-0.02,-0.03,0.95,2.5,5.31,2.08,888.87,23.83,
3950076,-0.02,-0.03,0.97,2.5,5.31,2.01,888.87,23.82,
3950114,-0.01,-0.03,0.94,2.38,5.68,2.08,888.85,23.83,
3950153,-0.01,-0.02,0.96,2.26,5.07,1.89,888.89,23.82,
3950191,-0.01,-0.03,0.97,2.32,5.37,2.01,888.86,23.83,
3950229,-0.01,-0.03,0.94,2.38,4.94,1.95,888.88,23.84,
3950279,-0.02,-0.03,0.95,2.56,4.94,2.01,888.9,23.81,
3950317,-0.01,-0.03,0.94,2.44,4.7,1.95,888.87,23.82,
3950355,-0.02,-0.02,0.95,2.38,4.7,1.95,888.91,23.83,
3950394,-0.01,-0.03,0.95,2.44,4.82,1.89,888.94,23.81,
3950432,-0.01,-0.03,0.95,2.2,4.76,1.89,888.91,23.81,
3950470,-0.01,-0.02,0.96,2.32,4.46,1.77,888.91,23.83,
3950508,-0.02,-0.02,0.96,2.32,4.39,1.95,888.96,23.84,
3950547,-0.01,-0.03,0.95,2.32,4.52,1.83,888.93,23.83,
3950585,-0.02,-0.03,0.98,2.38,4.39,1.71,888.94,23.83,
3950623,-0.01,-0.03,0.99,2.38,4.58,1.95,888.97,23.83,
3950673,-0.01,-0.02,0.99,2.32,4.46,1.71,888.89,23.82,
3950711,-0.02,-0.02,0.99,2.38,4.7,1.77,888.97,23.82,
3950750,-0.02,-0.02,0.97,2.32,4.82,1.77,888.97,23.82,
3950788,-0.02,-0.03,0.98,2.32,4.39,1.83,889.0,23.82,
3950826,-0.02,-0.02,0.98,2.2,4.7,1.83,888.94,23.82,
3950864,-0.01,-0.02,0.99,2.32,4.64,1.71,888.99,23.83,
3950903,-0.01,-0.02,0.99,2.2,4.94,1.71,888.99,23.83,
3950941,-0.01,-0.03,0.97,2.26,5.31,1.59,888.99,23.82,
3950979,-0.02,-0.03,0.98,2.38,5.68,1.65,888.99,23.83,
3951017,-0.02,-0.02,0.96,2.2,5.86,1.53,888.99,23.83,
3951067,-0.02,-0.02,1.0,2.38,5.86,1.59,889.0,23.81,
3951106,-0.01,-0.03,0.99,2.26,5.8,1.28,888.98,23.82,
3951144,-0.0,-0.02,1.0,2.2,5.31,1.28,889.02,23.83,
3951182,-0.01,-0.02,1.0,2.26,5.25,1.46,889.02,23.81,
3951220,-0.01,-0.02,0.97,2.14,5.74,1.53,889.03,23.82,
3951259,-0.01,-0.02,1.0,1.95,5.25,1.46,889.02,23.82,
3951297,-0.02,-0.02,1.0,2.14,4.7,1.22,889.0,23.83,
3951335,-0.03,-0.03,1.02,2.44,4.15,1.34,889.06,23.83,
3951373,-0.01,-0.03,1.0,2.32,4.33,1.46,889.03,23.82,
3951423,0.0,-0.02,1.03,2.62,3.42,1.22,889.01,23.81,
3951462,-0.01,-0.03,1.0,2.38,3.48,1.34,889.06,23.81,
3951500,-0.01,-0.03,1.0,2.56,2.81,1.22,889.03,23.81,
3951538,-0.01,-0.03,1.0,2.44,3.11,1.1,889.08,23.83,
3951576,-0.01,-0.03,0.98,2.56,2.75,0.92,889.09,23.82,
3951614,-0.02,-0.03,0.98,2.44,2.2,0.79,889.08,23.83,
3951653,-0.01,-0.04,0.96,2.26,2.75,0.73,889.09,23.84,
3951691,-0.0,-0.03,0.97,2.2,2.81,0.61,889.12,23.83,
3951729,-0.01,-0.04,0.97,2.2,3.36,0.67,889.04,23.83,
3951767,-0.0,-0.03,0.95,1.89,3.3,0.61,889.07,23.83,
3951843,-0.01,-0.04,0.98,1.77,3.54,0.49,889.11,23.79,
3951882,-0.02,-0.04,0.98,1.65,3.05,0.24,889.16,23.81,
3951920,-0.01,-0.03,0.99,1.89,3.3,0.31,889.14,23.82,
3952010,-0.02,-0.03,0.98,1.77,3.17,0.31,889.13,23.78,
3952048,-0.02,-0.04,0.98,1.53,2.93,0.18,889.18,23.79,
3952086,-0.01,-0.03,1.0,1.34,2.38,0.12,889.14,23.79,
3952124,-0.01,-0.04,0.99,1.22,2.81,0.0,889.24,23.81,
3952163,-0.01,-0.03,1.01,1.16,2.32,0.0,889.12,23.79,
3952201,-0.01,-0.03,1.03,0.98,2.38,-0.06,889.19,23.81,
3952239,-0.01,-0.04,1.01,1.22,2.08,15.56,889.24,23.81,
3952289,-0.02,-0.03,0.98,1.16,1.83,-0.06,889.2,23.81,
3952327,-0.01,-0.03,1.0,1.28,1.22,-0.18,889.19,23.81,
3952366,-0.01,-0.03,1.0,0.98,1.34,-0.31,889.24,23.82,
3952404,-0.02,-0.03,1.0,1.28,0.55,-0.24,889.17,23.82,
3952442,-0.01,-0.03,1.02,1.4,0.79,-0.37,889.16,23.8,
3952480,-0.02,-0.04,1.01,1.34,0.37,-0.31,889.15,23.81,
3952519,-0.02,-0.03,1.0,1.46,0.12,-0.37,889.15,23.81,
3952557,-0.02,-0.03,0.96,1.53,-0.06,-0.31,889.17,23.82,
3952595,-0.02,-0.03,0.98,1.83,-0.55,-0.55,889.19,23.82,
3952645,-0.02,-0.04,0.94,1.53,-0.73,-0.49,889.15,23.8,
3952683,-0.03,-0.03,0.96,1.77,-1.22,-0.43,889.14,23.81,
3952721,-0.03,-0.03,0.94,1.04,-1.04,-0.37,889.17,23.8,
3952759,-0.04,-0.03,0.97,1.1,-1.16,-0.43,889.18,23.8,
3952798,-0.04,-0.04,0.99,0.79,-0.61,-0.24,889.22,23.81,
3952836,-0.03,-0.05,0.97,0.73,-0.37,-0.24,889.26,23.81,
3952874,-0.04,-0.03,1.0,0.61,0.49,-0.31,889.29,23.81,
3952912,-0.03,-0.03,1.0,0.37,1.89,-0.06,889.21,23.8,
3952951,-0.03,-0.02,1.02,0.37,2.56,-0.31,889.22,23.81,
3953001,-0.06,-0.02,1.0,0.12,4.33,-0.06,889.24,23.79,
3953039,-0.04,-0.02,1.03,0.43,5.07,-0.12,889.24,23.79,
3953077,-0.04,-0.02,1.06,0.49,5.92,-0.12,889.23,23.8,
3953115,-0.04,0.0,1.05,0.24,7.32,0.12,889.24,23.8,
3953154,-0.05,0.01,1.07,0.37,8.12,0.18,889.31,23.8,
3953192,-0.04,-0.03,1.08,0.43,9.03,0.31,889.28,23.8,
3953230,-0.03,-0.02,1.1,0.61,9.52,0.43,889.34,23.82,
3953268,-0.02,-0.01,1.06,0.79,10.31,0.49,889.29,23.8,
3953307,-0.02,-0.01,1.04,1.28,10.62,0.55,889.41,23.81,
3953345,-0.02,-0.02,1.04,1.65,10.86,0.67,889.36,23.8,
3953395,-0.02,-0.04,1.01,2.14,11.11,0.85,889.32,23.8,
3953433,-0.02,-0.02,0.99,2.32,11.11,0.92,889.34,23.82,
3953471,-0.01,-0.03,0.98,2.81,11.17,0.98,889.28,23.82,
3953509,0.0,-0.04,0.93,2.75,10.99,0.98,889.34,23.82,
3953548,-0.0,-0.03,0.95,2.87,10.68,0.98,889.37,23.82,
3953586,-0.01,-0.04,0.92,2.5,11.17,1.1,889.35,23.81,
3953624,-0.01,-0.03,0.93,2.69,10.8,1.16,889.33,23.81,
3953662,-0.01,-0.04,0.91,2.56,10.99,1.22,889.32,23.82,
3953701,-0.01,-0.04,0.93,2.69,10.56,1.22,889.39,23.81,
3953751,-0.01,-0.04,0.93,2.62,10.13,1.28,889.34,23.8,
3953789,0.01,-0.02,0.92,2.56,9.7,1.1,889.37,23.8,
3953827,0.01,-0.03,0.92,2.69,9.89,1.22,889.4,23.81,
3953865,-0.01,-0.04,0.92,2.69,9.34,1.16,889.33,23.82,
3953904,-0.03,-0.04,0.92,2.62,9.58,1.1,889.38,23.82,
3953942,0.0,-0.03,0.93,2.62,9.34,1.22,889.35,23.82,
3953980,0.02,-0.04,0.95,2.62,9.28,0.98,889.37,23.8,
3954018,0.01,-0.04,0.93,2.56,9.22,0.98,889.41,23.82,
3954056,0.01,-0.04,0.93,2.69,9.77,0.92,889.43,23.83,
3954095,0.01,-0.03,0.93,2.87,9.77,0.79,889.42,23.82,
3954145,0.01,-0.04,0.94,3.11,9.09,0.73,889.44,23.81,
3954183,0.01,-0.03,0.95,2.93,8.79,0.73,889.41,23.81,
3954221,0.01,-0.04,0.95,3.11,8.67,0.61,889.44,23.8,
3954259,0.02,-0.03,0.96,2.81,8.54,0.55,889.41,23.81,
3954297,0.02,-0.04,0.97,2.81,8.06,0.43,889.43,23.82,
3954336,0.01,-0.04,0.95,2.81,7.87,0.55,889.46,23.81,
3954374,0.0,-0.03,0.96,2.81,7.57,0.43,889.47,23.83,
3954412,0.01,-0.03,0.96,2.56,7.63,0.18,889.41,23.81,
3954450,0.02,-0.04,0.95,2.44,7.39,0.31,889.5,23.82,
3954488,0.02,-0.03,0.94,2.32,7.57,0.18,889.49,23.82,
3954538,0.02,-0.04,0.97,2.26,7.51,0.06,889.51,23.82,
3954577,0.01,-0.04,0.96,2.2,7.51,-0.18,889.54,23.81,
3954615,0.01,-0.03,0.97,2.08,7.45,-0.18,889.45,23.81,
3954653,0.01,-0.04,0.96,2.08,7.51,-0.43,889.5,23.82,
3954691,0.01,-0.03,0.97,1.95,6.84,-0.49,889.47,23.82,
3954729,0.01,-0.03,0.98,1.83,6.71,-0.55,889.53,23.82,
3954768,0.01,-0.03,0.98,1.59,5.68,-0.67,889.56,23.81,
3954806,0.01,-0.04,0.98,1.59,5.8,-0.79,889.55,23.81,
3954844,0.01,-0.03,0.96,1.59,5.37,-0.92,889.56,23.82,
3954882,0.01,-0.03,0.98,1.28,5.25,-1.04,889.56,23.81,
3954959,0.01,-0.03,0.97,1.22,4.88,-1.16,889.57,23.79,
3954998,0.01,-0.03,0.97,1.1,5.19,-1.28,889.61,23.81,
3955036,0.0,-0.04,0.97,0.98,4.88,-1.53,889.66,23.81,
3955126,0.0,-0.04,0.98,1.1,5.13,-1.65,889.64,23.76,
3955164,-0.0,-0.03,0.96,1.1,5.0,-1.71,889.65,23.78,
3955202,-0.0,-0.03,0.95,1.04,4.58,-1.77,889.63,23.79,
3955241,-0.0,-0.03,0.96,1.22,3.97,-1.65,889.64,23.78,
3955279,-0.01,-0.03,0.96,1.16,4.03,-1.71,889.66,23.79,
3955317,-0.0,-0.03,0.96,1.28,3.54,-1.77,889.7,23.79,
3955367,-0.0,-0.04,0.99,1.28,3.23,-1.89,889.7,23.78,
3955405,-0.02,-0.03,0.98,1.16,3.36,-1.77,889.68,23.78,
3955443,-0.01,-0.03,0.98,1.34,3.11,-1.95,889.69,23.8,
3955482,-0.0,-0.03,0.97,1.53,3.05,-2.08,889.74,23.79,
3955520,-0.02,-0.03,0.97,1.46,2.69,-1.95,889.68,23.79,
3955558,-0.01,-0.03,0.97,1.4,2.87,-2.08,889.7,23.79,
3955596,-0.01,-0.03,0.97,1.59,2.5,-1.83,889.73,23.8,
3955634,-0.03,-0.04,0.97,1.71,2.08,-1.83,889.78,23.79,
3955673,-0.02,-0.04,0.97,1.4,2.2,-1.95,889.78,23.8,
3955711,-0.02,-0.03,0.95,1.1,2.75,-1.89,889.69,23.79,
3955761,-0.01,-0.03,0.94,1.22,2.62,-1.95,889.82,23.79,
3955799,-0.02,-0.03,0.94,0.92,2.87,-1.77,889.82,23.78,
3955837,-0.01,-0.03,0.96,1.04,3.17,-1.95,889.78,23.79,
3955876,-0.01,-0.03,0.97,1.04,3.3,-1.95,889.83,23.79,
3955914,-0.02,-0.04,0.97,0.98,3.78,-1.95,889.79,23.8,
3955952,-0.01,-0.03,1.0,1.1,3.97,-2.08,889.79,23.78,
3955990,-0.01,-0.03,1.01,0.98,4.33,-1.95,889.84,23.78,
3956029,-0.01,-0.03,0.98,1.1,4.46,-2.01,889.85,23.78,
3956067,-0.02,-0.03,0.99,1.1,4.15,-2.14,889.81,23.78,
3956117,-0.02,-0.03,0.97,1.16,4.76,-1.95,889.86,23.79,
3956155,-0.0,-0.03,0.99,1.1,4.46,-2.2,889.86,23.79,
3956193,-0.01,-0.03,0.98,1.34,4.27,-2.26,889.88,23.79,
3956232,-0.02,-0.03,0.98,1.28,4.33,-2.01,889.89,23.8,
3956270,-0.01,-0.03,1.01,1.46,4.15,-2.2,889.9,23.8,
3956308,-0.02,-0.03,0.99,1.46,3.91,-1.89,889.92,23.81,
3956346,-0.01,-0.03,0.98,1.46,3.72,-2.01,889.93,23.81,
3956385,-0.01,-0.03,0.97,1.4,4.03,-2.01,889.9,23.8,
3956423,-0.01,-0.03,0.97,1.1,3.48,-1.95,889.9,23.79,
3956461,-0.01,-0.03,0.99,1.04,3.36,-1.89,889.93,23.81,
3956511,-0.01,-0.04,0.99,0.85,3.42,-2.01,889.98,23.78,
3956549,-0.01,-0.02,1.02,0.85,2.56,-1.89,889.98,23.79,
3956588,-0.01,-0.02,1.03,0.73,2.62,-1.77,889.95,23.81,
3956626,-0.0,-0.02,1.0,0.24,2.5,-2.08,890.03,23.79,
3956664,-0.01,-0.02,1.03,0.49,2.38,-2.14,889.96,23.79,
3956702,-0.0,-0.03,1.02,0.0,3.17,-2.14,890.02,23.8,
3956741,-0.01,-0.02,1.05,0.31,2.87,-2.2,890.02,23.81,
3956779,-0.01,-0.02,1.05,0.37,3.42,-2.08,889.99,23.8,
3956817,-0.01,-0.03,1.04,0.67,3.3,-2.14,890.1,23.8,
3956867,-0.01,-0.02,1.06,1.04,2.93,-2.26,890.07,23.79,
3956905,-0.0,-0.02,1.04,1.04,2.81,-2.2,890.09,23.8,
3956943,-0.01,-0.02,1.07,1.16,2.38,-2.32,890.04,23.8,
3956981,-0.01,-0.02,1.06,1.34,2.75,-2.14,890.02,23.79,
3957020,-0.01,-0.03,1.05,1.28,2.75,-2.2,890.06,23.81,
3957058,-0.01,-0.02,1.04,1.4,2.87,-2.44,890.09,23.81,
3957096,-0.01,-0.02,1.04,1.46,3.05,-2.2,890.07,23.81,
3957134,-0.0,-0.02,1.03,1.34,3.17,-2.5,890.15,23.79,
3957173,-0.01,-0.02,1.05,1.34,2.93,-2.44,890.17,23.8,
3957211,-0.01,-0.03,1.04,1.28,3.23,-2.44,890.19,23.8,
3957261,-0.02,-0.02,1.03,1.34,3.05,-2.2,890.22,23.8,
3957299,-0.01,-0.02,1.03,1.46,2.62,-2.32,890.12,23.8,
3957337,-0.01,-0.03,1.02,1.46,2.62,-2.38,890.21,23.79,
3957376,-0.01,-0.03,1.0,1.34,2.81,-2.38,890.2,23.8,
3957414,-0.01,-0.03,1.0,1.46,2.56,-2.5,890.23,23.8,
3957452,-0.01,-0.03,0.99,1.34,2.38,-2.69,890.25,23.79,
3957490,-0.01,-0.04,0.99,1.34,1.89,-2.5,890.25,23.8,
3957529,-0.01,-0.03,0.97,1.34,1.77,-2.38,890.21,23.79,
3957567,-0.01,-0.03,0.97,1.28,1.53,-2.69,890.27,23.8,
3957617,-0.01,-0.03,0.98,1.4,1.28,-2.44,890.27,23.79,
3957655,-0.01,-0.03,0.98,1.22,1.34,-2.5,890.24,23.79,
3957693,-0.01,-0.03,0.99,1.16,0.92,-2.75,890.29,23.79,
3957731,-0.01,-0.03,0.98,1.16,1.04,-2.62,890.27,23.8,
3957770,-0.0,-0.04,0.99,1.34,0.55,-2.81,890.34,23.8,
3957808,-0.01,-0.04,0.98,1.16,0.67,-2.93,890.27,23.8,
3957846,-0.01,-0.04,0.98,1.1,0.67,-2.81,890.34,23.8,
3957884,-0.0,-0.04,0.97,0.98,0.98,-3.05,890.33,23.79,
3957923,-0.02,-0.04,0.97,0.98,0.92,-2.99,890.31,23.79,
3957961,-0.01,-0.04,0.96,0.98,1.16,-3.23,890.33,23.8,
3958037,-0.01,-0.04,0.96,0.79,1.46,-3.23,890.38,23.78,
3958075,-0.01,-0.04,0.98,0.79,1.28,-3.42,890.41,23.78,
3958113,-0.01,-0.04,0.99,0.73,1.46,-3.36,890.42,23.77,
3958203,-0.02,-0.04,0.98,0.79,1.46,-3.48,890.41,23.75,
3958241,-0.03,-0.04,0.95,0.37,1.83,-3.3,890.45,23.76,
3958279,-0.02,-0.03,0.96,0.61,1.34,-3.48,890.45,23.76,
3958318,-0.03,-0.04,0.95,0.43,2.01,-3.6,890.43,23.76,
3958356,-0.04,-0.04,0.95,0.31,2.01,-3.42,890.44,23.77,
3958394,-0.03,-0.04,0.99,0.18,2.44,-3.48,890.41,23.77,
3958444,-0.04,-0.04,0.97,0.24,2.87,-3.6,890.5,23.78,
3958482,-0.04,-0.04,0.95,0.31,2.81,-3.3,890.52,23.78,
3958521,-0.04,-0.04,0.94,0.31,2.56,-3.3,890.46,23.77,
3958559,-0.04,-0.04,0.91,0.12,2.08,-3.11,890.52,23.78,
3958597,-0.04,-0.04,0.91,0.12,0.98,-2.87,890.48,23.78,
3958635,-0.04,-0.05,0.91,-0.12,0.24,-2.87,890.52,23.78,
3958673,-0.03,-0.05,0.94,-0.06,-0.43,-2.69,890.55,23.79,
3958712,-0.03,-0.05,0.96,-0.18,-1.1,-2.5,890.52,23.79,
3958750,-0.04,-0.04,0.95,-0.31,-2.01,-2.32,890.55,23.78,
3958788,-0.04,-0.03,0.97,-0.18,-2.32,-2.2,890.56,23.78,
3958838,-0.04,-0.04,0.96,-0.49,-2.81,-2.26,890.53,23.77,
3958876,-0.04,-0.04,0.99,-0.49,-2.81,-2.14,890.55,23.78,
3958914,-0.04,-0.04,0.97,-0.49,-2.87,-2.2,890.58,23.78,
3958953,-0.04,-0.03,0.99,-0.49,-2.69,-2.01,890.59,23.78,
3958991,-0.04,-0.04,0.99,-0.61,-2.01,-2.01,890.62,23.8,
3959029,-0.04,-0.04,1.01,-0.55,-2.44,-1.95,890.64,23.79,
3959067,-0.04,-0.04,1.01,-0.43,-1.89,-2.01,890.65,23.8,
3959106,-0.05,-0.04,1.0,-0.18,-1.4,-2.01,890.69,23.79,
3959144,-0.04,-0.03,1.02,-0.24,-1.65,-1.89,890.75,23.79,
3959194,-0.04,-0.04,1.01,-0.06,-0.98,-1.71,890.79,23.78,
3959232,-0.04,-0.03,1.04,-0.06,-0.92,-1.77,890.7,23.78,
3959270,-0.03,-0.04,1.05,0.12,-0.18,-1.89,890.8,23.79,
3959309,-0.03,-0.03,1.05,0.12,-0.24,-1.83,890.74,23.78,
3959347,-0.05,-0.03,1.05,0.43,0.55,-1.83,890.78,23.79,
3959385,-0.05,-0.03,1.03,0.49,0.85,-1.59,890.81,23.79,
3959423,-0.04,-0.03,1.06,0.55,0.79,-1.77,890.83,23.79,
3959461,-0.04,-0.03,1.04,0.55,1.34,-1.71,890.89,23.8,
3959500,-0.04,-0.03,1.02,0.73,1.83,-1.65,890.84,23.79,
3959550,-0.03,-0.03,1.01,0.92,2.69,-1.71,890.86,23.79,
3959588,-0.04,-0.03,1.01,0.85,2.62,-1.59,890.88,23.79,
3959626,-0.05,-0.04,1.0,0.85,2.93,-1.59,890.89,23.79,
3959664,-0.05,-0.04,1.0,0.98,3.11,-1.46,890.86,23.79,
3959702,-0.04,-0.04,1.0,0.85,3.36,-1.46,890.95,23.79,
3959741,-0.04,-0.04,0.99,0.92,3.05,-1.28,890.91,23.79,
3959779,-0.04,-0.04,1.0,1.04,2.81,-1.28,890.96,23.81,
3959817,-0.03,-0.05,0.99,0.98,3.17,-1.16,890.94,23.8,
3959855,-0.04,-0.04,1.0,0.92,2.69,-1.22,890.94,23.8,
3959893,-0.05,-0.04,1.0,0.79,2.32,-1.04,890.95,23.81,
3959943,-0.05,-0.04,1.0,0.79,1.89,-1.1,890.97,23.79,
3959981,-0.04,-0.04,1.02,0.67,1.65,-1.22,890.97,23.8,
3960020,-0.04,-0.03,1.0,0.73,1.04,-0.98,891.0,23.79,
3960058,-0.04,-0.03,1.02,0.61,0.92,-0.73,891.02,23.79,
3960096,-0.04,-0.04,1.0,0.55,0.79,-0.85,891.01,23.79,
3960134,-0.04,-0.04,1.04,0.49,0.61,-0.55,891.07,23.81,
3960173,-0.05,-0.04,1.03,0.43,0.49,-0.55,891.06,23.81,
3960211,-0.05,-0.03,1.04,0.31,-0.18,-0.67,891.1,23.79,
3960249,-0.04,-0.04,1.03,0.18,-0.06,-0.61,891.1,23.81,
3960299,-0.04,-0.03,1.04,0.49,-0.67,-0.61,891.11,23.78,
3960337,-0.05,-0.04,1.03,0.37,-0.49,-0.31,891.07,23.79,
3960375,-0.05,-0.04,1.03,0.49,-1.16,-0.43,891.12,23.79,
3960414,-0.05,-0.04,1.05,0.73,-1.28,-0.49,891.08,23.8,
3960452,-0.05,-0.04,1.03,0.61,-1.28,-0.24,891.11,23.79,
3960490,-0.04,-0.03,1.06,0.79,-1.53,-0.37,891.12,23.79,
3960528,-0.05,-0.03,1.04,0.85,-1.89,-0.18,891.11,23.8,
3960566,-0.05,-0.03,1.05,1.1,-1.77,-0.06,891.15,23.79,
3960605,-0.04,-0.04,1.07,1.1,-1.59,-0.12,891.14,23.8,
3960655,-0.05,-0.03,1.09,1.77,-2.26,-0.06,891.22,23.81,
3960693,-0.06,-0.04,1.06,1.59,-2.01,0.06,891.22,23.8,
3960731,-0.04,-0.02,1.06,1.89,-2.01,-0.06,891.2,23.8,
3960769,-0.03,-0.03,1.09,1.83,-2.01,-0.24,891.28,23.81,
3960807,-0.04,-0.03,1.05,1.77,-2.26,0.0,891.19,23.8,
3960846,-0.05,-0.03,1.08,1.95,-2.62,0.06,891.31,23.81,
3960884,-0.04,-0.03,1.04,1.89,-2.14,0.0,891.26,23.81,
3960922,-0.04,-0.03,1.05,1.95,-2.87,0.0,891.28,23.79,
3960960,-0.04,-0.03,1.04,1.89,-2.75,0.06,891.27,23.81,
3960998,-0.04,-0.03,1.02,1.83,-2.69,0.0,891.3,23.8,
3961074,-0.04,-0.03,1.04,2.14,-2.5,0.06,891.38,23.78,
3961112,-0.05,-0.03,1.05,2.26,-2.44,0.12,891.39,23.79,
3961151,-0.05,-0.03,1.07,2.32,-1.95,0.06,891.42,23.78,
3961240,-0.04,-0.03,1.05,2.38,-1.28,0.12,891.41,23.74,
3961279,-0.04,-0.03,1.04,2.56,-1.28,0.24,891.41,23.76,
3961317,-0.05,-0.03,1.03,2.44,-0.92,0.37,891.4,23.77,
3961355,-0.05,-0.03,1.03,2.44,-1.16,0.43,891.48,23.77,
3961393,-0.05,-0.0,1.02,2.44,-0.55,0.43,891.44,23.78,
3961431,-0.03,-0.03,1.01,2.38,-0.73,0.61,891.53,23.78,
3961481,-0.05,-0.03,1.01,2.38,-0.55,0.61,891.5,23.77,
3961520,-0.05,-0.04,0.99,2.32,-0.73,0.67,891.5,23.78,
3961558,-0.04,-0.04,0.99,2.38,-1.16,0.79,891.45,23.77,
3961596,-0.04,-0.03,0.96,2.08,-1.77,0.98,891.58,23.78,
3961634,-0.05,-0.03,0.97,1.95,-2.32,0.98,891.53,23.78,
3961672,-0.04,-0.04,0.96,1.89,-2.44,1.34,891.49,23.78,
3961711,-0.03,-0.04,0.97,1.83,-2.99,1.22,891.56,23.78,
3961749,-0.03,-0.04,0.99,1.71,-2.75,1.46,891.6,23.79,
3961787,-0.04,-0.04,0.98,1.77,-2.44,1.4,891.62,23.79,
3961825,-0.05,-0.03,0.99,1.59,-2.01,1.71,891.56,23.78,
3961875,-0.05,-0.04,1.0,1.65,-1.1,1.65,891.61,23.77,
3961913,-0.05,-0.04,1.0,1.34,0.0,1.53,891.64,23.78,
3961951,-0.05,-0.03,1.01,1.16,0.67,1.83,891.65,23.79,
3961990,-0.05,-0.02,1.03,1.22,2.38,1.95,891.63,23.78,
3962028,-0.05,-0.03,1.05,1.34,2.44,1.89,891.66,23.79,
3962066,-0.04,-0.03,1.07,1.65,3.05,2.14,891.66,23.78,
3962104,-0.04,-0.03,1.04,1.71,3.91,2.44,891.68,23.78,
3962143,-0.03,-0.03,1.05,2.14,4.15,2.32,891.71,23.78,
3962181,-0.04,-0.02,1.02,2.2,4.39,2.44,891.69,23.78,
3962231,-0.04,-0.03,1.04,2.5,4.21,2.62,891.7,23.78,
3962269,-0.05,-0.04,0.96,2.44,5.07,2.56,891.74,23.79,
3962307,-0.05,-0.02,1.0,2.5,4.39,2.75,891.71,23.79,
3962345,-0.04,-0.03,1.01,2.69,4.88,2.81,891.75,23.8,
3962384,-0.04,-0.03,1.0,2.75,4.82,3.05,891.81,23.79,
3962422,-0.05,-0.03,1.0,2.75,4.94,3.05,891.76,23.77,
3962460,-0.04,-0.04,0.98,2.62,5.19,3.17,891.77,23.79,
3962498,-0.02,-0.02,1.01,2.81,4.33,3.42,891.79,23.78,
3962537,-0.03,-0.03,0.99,2.81,3.91,3.78,891.72,23.79,
3962575,-0.03,-0.03,1.02,3.05,2.81,3.91,891.78,23.78,
3962625,-0.03,-0.05,1.01,3.17,2.2,4.09,891.8,23.78,
3962663,-0.04,-0.03,1.02,3.36,0.79,4.15,891.87,23.78,
3962701,-0.04,-0.03,0.99,3.42,1.04,4.33,891.88,23.79,
3962739,-0.04,-0.03,0.97,3.42,0.06,4.46,891.9,23.79,
3962778,-0.04,-0.05,0.97,3.23,0.06,4.58,891.84,23.79,
3962816,-0.03,-0.04,0.95,2.99,-0.24,4.76,891.86,23.79,
3962854,-0.02,-0.02,1.01,3.36,-1.1,4.7,891.86,23.79,
3962892,-0.03,-0.03,0.98,2.81,-0.61,4.88,891.94,23.79,
3962931,-0.03,-0.04,1.04,3.17,-1.95,4.88,891.87,23.79,
3962969,-0.03,-0.05,1.03,2.93,-1.34,4.88,891.88,23.79,
3963019,-0.03,-0.03,1.04,2.93,-2.01,4.82,891.95,23.77,
3963057,-0.02,-0.03,1.02,2.62,-1.65,4.94,891.96,23.78,
3963095,-0.03,-0.03,0.99,2.87,-1.34,4.94,891.98,23.79,
3963134,-0.02,-0.05,0.99,2.81,-0.73,4.88,891.96,23.79,
3963172,-0.02,-0.05,0.98,2.81,-0.67,4.88,892.0,23.78,
3963210,-0.03,-0.04,0.99,3.23,-0.43,4.76,892.02,23.8,
3963248,-0.01,-0.03,0.96,2.99,0.31,4.76,892.06,23.79,
3963287,-0.02,-0.03,0.98,3.17,0.31,4.7,891.97,23.79,
3963325,-0.01,-0.06,0.96,2.93,1.22,4.64,892.02,23.8,
3963375,-0.02,-0.05,0.96,2.56,1.28,4.7,892.07,23.78,
3963413,-0.02,-0.04,0.95,2.44,1.4,4.76,892.0,23.78,
3963451,-0.02,-0.04,0.93,2.32,1.16,4.7,892.07,23.79,
3963490,-0.02,-0.05,0.94,1.95,1.53,4.58,892.02,23.8,
3963528,-0.01,-0.05,0.93,1.77,1.59,4.64,892.11,23.79,
3963566,-0.01,-0.04,0.94,1.65,1.16,4.52,892.09,23.79,
3963604,-0.01,-0.05,0.96,1.46,1.4,4.7,892.12,23.79,
3963643,-0.01,-0.04,0.95,1.4,1.22,4.58,892.13,23.79,
3963681,-0.01,-0.05,0.94,1.16,1.4,4.52,892.13,23.79,
3963719,-0.02,-0.05,0.92,1.22,1.16,4.64,892.11,23.79,
3963769,-0.01,-0.05,0.95,1.16,1.1,4.33,892.13,23.79,
3963807,-0.0,-0.05,0.99,1.04,1.28,4.21,892.23,23.79,
3963845,-0.01,-0.05,1.0,0.67,1.46,4.33,892.14,23.78,
3963883,-0.01,-0.05,1.01,0.85,1.34,4.09,892.29,23.78,
3963922,-0.01,-0.05,1.0,0.37,1.89,4.21,892.16,23.79,
3963960,0.0,-0.04,1.01,0.24,1.16,4.09,892.19,23.8,
3963998,-0.02,-0.04,1.03,0.12,0.79,3.97,892.17,23.79,
3964036,-0.02,-0.05,1.01,0.12,0.98,4.15,892.24,23.8,
3964075,-0.01,-0.05,1.02,0.12,0.79,4.09,892.24,23.79,
3964151,-0.02,-0.05,0.99,-0.12,0.73,4.15,892.25,23.76,
3964189,-0.01,-0.04,1.0,-0.24,0.98,3.97,892.32,23.78,
3964227,-0.0,-0.04,1.02,-0.31,0.61,3.85,892.29,23.78,
3964317,-0.01,-0.04,1.05,-0.37,1.34,3.66,892.34,23.75,
3964355,-0.01,-0.04,1.04,-0.43,1.53,3.85,892.32,23.77,
3964393,0.0,-0.04,1.05,-0.43,0.79,3.72,892.35,23.77,
3964431,-0.01,-0.04,1.04,-0.49,1.1,3.66,892.33,23.76,
3964470,-0.0,-0.04,1.02,-0.49,0.92,3.72,892.33,23.76,
3964508,0.0,-0.04,1.04,-0.31,0.31,3.6,892.38,23.77,
3964546,-0.0,-0.04,1.02,-0.31,0.31,3.72,892.38,23.78,
3964596,-0.01,-0.04,1.05,-0.18,0.18,3.66,892.36,23.77,
3964634,-0.0,-0.03,1.06,0.0,-0.06,3.72,892.43,23.79,
3964672,-0.01,-0.03,1.09,0.24,-0.31,3.6,892.46,23.78,
3964710,-0.01,-0.04,1.05,0.49,0.12,3.6,892.42,23.78,
3964749,-0.01,-0.04,1.09,0.67,-0.24,3.54,892.45,23.78,
3964787,-0.01,-0.04,1.07,0.73,0.37,3.66,892.48,23.79,
3964825,-0.01,-0.03,1.08,1.04,0.37,3.42,892.41,23.78,
3964863,-0.01,-0.04,1.07,1.22,1.22,3.42,892.49,23.79,
3964902,-0.01,-0.04,1.04,1.34,0.98,3.3,892.43,23.78,
3964952,-0.02,-0.03,1.05,1.46,1.46,3.48,892.48,23.77,
3964990,0.0,-0.03,1.06,1.83,2.14,3.36,892.49,23.78,
3965028,0.01,-0.04,1.06,1.77,1.53,3.36,892.48,23.78,
3965066,-0.01,-0.04,1.06,1.83,1.59,3.48,892.52,23.79,
3965105,-0.01,-0.04,1.04,1.77,1.77,3.42,892.59,23.79,
3965143,0.0,-0.04,1.06,1.95,1.22,3.23,892.53,23.79,
3965181,-0.0,-0.03,1.05,2.08,0.18,3.36,892.59,23.79,
3965219,0.0,-0.04,1.03,2.01,0.0,3.42,892.56,23.79,
3965257,0.0,-0.05,1.05,2.01,0.06,3.3,892.53,23.79,
3965296,-0.0,-0.05,1.03,1.89,0.0,3.36,892.55,23.78,
3965346,-0.0,-0.04,1.04,1.89,-0.31,3.3,892.53,23.78,
3965384,0.0,-0.04,1.02,1.83,-0.31,2.93,892.59,23.78,
3965422,0.0,-0.05,1.03,2.08,-0.24,3.17,892.55,23.8,
3965460,-0.01,-0.05,0.98,1.77,0.0,3.05,892.61,23.78,
3965499,0.0,-0.04,1.0,1.95,-0.06,3.17,892.61,23.79,
3965537,-0.01,-0.04,1.0,1.95,0.06,3.05,892.64,23.79,
3965575,-0.01,-0.04,1.0,2.14,0.0,3.11,892.63,23.8,
3965613,0.0,-0.05,1.03,2.14,0.12,2.99,892.6,23.79,
3965652,-0.01,-0.04,1.06,2.14,0.43,2.87,892.57,23.78,
3965690,-0.0,-0.03,1.04,1.83,0.92,2.69,892.64,23.79,
3965740,-0.02,-0.03,1.06,1.65,1.22,2.81,892.64,23.78,
3965778,-0.01,-0.04,1.03,1.4,2.44,2.87,892.64,23.79,
3965816,-0.01,-0.04,1.07,1.89,2.5,2.75,892.69,23.78,
3965855,-0.02,-0.04,1.05,2.01,3.42,2.75,892.69,23.78,
3965893,-0.01,-0.04,1.04,2.26,3.66,2.75,892.7,23.79,
3965931,0.0,-0.05,1.03,2.32,3.85,2.62,892.71,23.78,
3965969,-0.01,-0.04,1.02,2.44,3.85,2.81,892.67,23.79,
3966008,-0.01,-0.05,0.99,2.26,4.15,2.99,892.67,23.79,
3966046,-0.01,-0.04,0.98,2.26,4.03,2.87,892.72,23.79,
3966084,-0.01,-0.05,0.96,2.01,4.09,2.87,892.7,23.78,
3966134,-0.01,-0.05,0.94,1.95,3.91,2.99,892.72,23.78,
3966172,-0.01,-0.05,0.95,1.83,4.09,2.81,892.74,23.77,
3966211,-0.01,-0.05,0.93,1.53,4.15,3.05,892.77,23.78,
3966249,-0.01,-0.05,0.92,1.46,4.33,2.99,892.82,23.79,
3966287,-0.02,-0.05,0.91,1.34,4.27,3.11,892.78,23.78,
3966325,-0.01,-0.05,0.91,1.16,4.21,3.11,892.73,23.78,
3966364,-0.02,-0.05,0.91,1.1,4.39,3.11,892.8,23.81,
3966402,-0.01,-0.05,0.89,1.1,4.58,3.23,892.83,23.79,
3966440,-0.01,-0.05,0.87,0.98,5.0,3.17,892.83,23.78,
3966490,-0.02,-0.05,0.86,0.92,4.94,3.36,892.75,23.77,
3966528,-0.01,-0.05,0.88,0.73,3.97,3.54,892.89,23.79,
3966566,-0.01,-0.05,0.89,0.61,3.91,3.48,892.82,23.77,
3966605,-0.01,-0.05,0.9,0.79,3.85,3.6,892.88,23.78,
3966643,-0.01,-0.05,0.93,0.79,3.05,3.54,892.89,23.77,
3966681,-0.01,-0.05,0.93,0.49,3.23,3.66,892.86,23.78,
3966719,-0.02,-0.04,0.99,0.79,2.56,3.91,892.9,23.78,
3966758,-0.01,-0.05,1.0,0.73,2.93,3.72,892.98,23.78,
3966796,-0.01,-0.05,1.02,0.73,1.95,3.54,892.91,23.79,
3966834,-0.01,-0.04,1.05,0.98,1.95,3.91,892.88,23.79,
3966884,-0.01,-0.05,1.04,1.04,1.22,3.85,892.92,23.78,
3966922,-0.02,-0.04,1.06,1.16,1.34,4.09,892.93,23.78,
3966961,-0.03,-0.04,1.0,0.98,1.77,3.97,892.97,23.78,
3966999,-0.02,-0.04,1.03,1.28,1.65,4.03,892.92,23.79,
3967037,-0.0,-0.05,1.03,1.16,1.1,3.91,893.0,23.78,
3967075,-0.03,-0.05,1.0,1.4,0.98,4.09,892.97,23.79,
3967113,-0.01,-0.04,1.02,1.46,1.46,4.27,892.94,23.78,
3967152,-0.0,-0.04,1.03,1.4,0.98,4.21,893.03,23.78,
3967190,-0.03,-0.04,1.03,1.46,0.24,4.39,893.0,23.78,
3967228,-0.02,-0.05,1.06,1.53,0.43,4.27,893.06,23.79,
3967304,-0.02,-0.03,1.07,1.4,0.49,4.58,893.02,23.76,
3967342,-0.0,-0.04,1.07,1.1,0.73,4.88,892.99,23.77,
3967381,-0.01,-0.04,1.07,1.1,0.67,4.64,893.05,23.77,
3967470,-0.01,-0.04,1.08,1.28,0.49,4.76,893.03,23.73,
3967508,-0.0,-0.04,1.06,1.1,0.92,4.82,893.05,23.74,
3967547,-0.0,-0.04,1.06,1.04,0.61,4.76,893.02,23.75,
3967585,-0.01,-0.05,1.05,1.04,0.61,4.88,893.1,23.76,
3967623,0.01,-0.05,1.04,0.98,0.67,4.7,893.15,23.77,
3967661,-0.0,-0.04,1.04,1.1,0.85,4.64,893.1,23.77,
3967711,0.0,-0.04,1.0,0.73,0.92,4.64,893.16,23.76,
3967749,0.0,-0.04,1.03,1.04,1.28,4.52,893.1,23.77,
3967788,-0.01,-0.04,1.04,1.22,1.1,4.46,893.08,23.76,
3967826,0.0,-0.04,1.1,1.4,1.1,4.33,893.11,23.76,
3967864,0.0,-0.05,1.06,1.16,1.1,4.39,893.23,23.76,
3967902,-0.01,-0.04,1.1,1.59,1.1,4.27,893.16,23.77,
3967940,-0.01,-0.04,1.06,1.1,1.77,4.39,893.19,23.77,
3967979,-0.01,-0.03,1.08,1.28,0.98,4.33,893.15,23.77,
3968017,-0.01,-0.04,1.05,0.98,1.53,4.09,893.14,23.78,
3968055,-0.0,-0.03,1.07,1.4,0.98,4.21,893.24,23.77,
3968105,-0.01,-0.04,1.08,1.34,1.22,4.46,893.22,23.77,
3968143,-0.01,-0.04,1.09,1.59,1.28,4.21,893.25,23.77,
3968181,-0.01,-0.03,1.09,1.77,1.53,4.33,893.21,23.77,
3968220,-0.02,-0.04,1.1,1.95,2.01,4.33,893.23,23.77,
3968258,-0.01,-0.04,1.08,2.01,1.89,4.21,893.25,23.77,
3968296,-0.02,-0.04,1.05,2.2,2.01,4.21,893.31,23.78,
3968334,-0.01,-0.04,1.02,2.01,2.81,4.33,893.24,23.77,
3968373,-0.01,-0.04,1.0,2.08,2.5,4.27,893.31,23.78,
3968411,-0.02,-0.04,1.0,2.2,2.32,4.39,893.32,23.78,
3968449,-0.03,-0.05,1.0,2.14,2.26,4.46,893.29,23.77,
3968499,-0.01,-0.03,1.03,2.26,2.44,4.33,893.35,23.77,
3968537,-0.01,-0.04,1.02,2.38,3.17,4.46,893.29,23.77,
3968576,-0.01,-0.05,0.99,2.14,3.48,4.21,893.29,23.77,
3968614,-0.01,-0.05,1.0,2.2,4.09,4.21,893.33,23.77,
3968652,-0.01,-0.05,0.97,1.83,3.91,4.52,893.34,23.78,
3968690,-0.02,-0.05,0.94,1.53,3.72,4.39,893.33,23.78,
3968729,-0.02,-0.04,0.96,1.59,3.6,4.46,893.32,23.77,
3968767,0.0,-0.05,0.99,1.59,4.15,4.27,893.32,23.77,
3968805,-0.0,-0.05,1.01,1.46,4.03,4.52,893.36,23.78,
3968855,-0.01,-0.05,1.03,1.22,4.09,4.52,893.33,23.75,
3968893,-0.02,-0.04,1.05,1.1,4.46,4.33,893.35,23.77,
3968931,-0.02,-0.04,1.09,1.16,4.33,4.58,893.34,23.77,
3968970,-0.01,-0.04,1.07,1.16,4.58,4.58,893.41,23.78,
3969008,-0.0,-0.05,1.07,1.22,4.94,4.39,893.32,23.77,
3969046,-0.01,-0.05,1.06,1.22,5.19,4.52,893.45,23.77,
3969084,-0.0,-0.04,1.06,1.53,4.46,4.64,893.36,23.77,
3969123,-0.01,-0.04,1.03,1.4,4.7,4.46,893.35,23.77,
3969161,-0.01,-0.05,0.99,1.22,4.82,4.39,893.41,23.76,
3969199,-0.01,-0.05,1.0,1.22,4.58,4.39,893.42,23.78,
3969249,-0.01,-0.05,0.95,0.85,4.64,4.64,893.43,23.77,
3969287,0.0,-0.05,0.97,0.79,4.58,4.27,893.4,23.77,
3969326,-0.0,-0.05,0.97,0.67,5.25,4.52,893.39,23.76,
3969364,-0.01,-0.05,0.96,0.43,4.82,4.58,893.41,23.77,
3969402,-0.02,-0.05,1.01,0.61,4.82,4.52,893.39,23.77,
3969440,0.0,-0.05,1.0,0.0,5.0,4.52,893.41,23.77,
3969478,0.0,-0.04,1.04,0.18,4.64,4.46,893.41,23.76,
3969516,-0.01,-0.04,1.02,-0.31,5.25,4.52,893.47,23.77,
3969555,-0.0,-0.05,1.07,-0.06,4.94,4.46,893.43,23.76,
3969593,0.0,-0.05,1.07,-0.31,5.07,4.52,893.47,23.77,
3969643,-0.0,-0.04,1.09,-0.12,4.33,4.52,893.51,23.76,
3969681,0.0,-0.05,1.09,-0.37,4.52,4.46,893.49,23.77,
3969719,0.01,-0.04,1.08,-0.06,4.15,4.58,893.47,23.77,
3969757,0.01,-0.04,1.08,-0.06,3.97,4.46,893.52,23.77,
3969796,-0.01,-0.03,1.08,0.24,3.54,4.58,893.48,23.77,
3969834,0.01,-0.05,1.07,0.12,3.6,4.52,893.51,23.77,
3969872,0.01,-0.05,1.07,0.37,3.42,4.58,893.54,23.77,
3969910,0.02,-0.04,1.09,0.24,3.17,4.46,893.55,23.77,
3969949,0.02,-0.04,1.1,0.37,1.89,4.39,893.55,23.75,
3969998,0.0,-0.03,1.11,0.18,0.98,4.7,893.55,23.77,
3970037,0.02,-0.04,1.12,0.12,0.67,4.52,893.55,23.77,
3970075,0.01,-0.04,1.12,0.0,0.31,4.46,893.5,23.77,
3970113,0.01,-0.03,1.13,0.18,-0.18,4.21,893.52,23.77,
3970151,0.02,-0.03,1.13,0.12,-0.43,4.09,893.56,23.78,
3970189,0.02,-0.03,1.14,0.18,-0.37,4.03,893.59,23.77,
3970228,0.01,-0.03,1.16,0.43,-0.31,3.78,893.53,23.77,
3970266,0.0,-0.04,1.15,0.43,-0.12,3.66,893.51,23.77,
3970304,0.01,-0.03,1.17,0.67,-0.06,3.42,893.56,23.76,
3970342,0.01,-0.03,1.16,0.92,-0.06,3.3,893.58,23.78,
3970418,0.01,-0.04,1.06,1.1,0.55,3.3,893.62,23.75,
3970456,0.0,-0.04,1.07,1.65,0.55,2.93,893.58,23.74,
3970494,-0.01,-0.05,1.02,1.77,1.77,2.81,893.63,23.77,
3970584,-0.0,-0.05,0.96,1.77,3.11,2.62,893.62,23.72,
3970622,-0.0,-0.05,1.0,1.77,2.62,2.69,893.65,23.74,
3970661,0.01,-0.04,1.02,1.65,3.97,2.5,893.63,23.75,
3970699,0.01,-0.04,1.0,1.59,3.85,2.2,893.68,23.75,
3970737,-0.0,-0.04,1.01,1.89,3.54,2.26,893.59,23.74,
3970775,0.0,-0.04,1.01,1.59,3.72,2.08,893.6,23.75,
3970813,0.01,-0.04,1.04,1.4,3.3,2.14,893.64,23.74,
3970863,-0.01,-0.04,1.04,1.34,2.56,2.26,893.62,23.74,
3970902,0.0,-0.04,1.08,1.16,2.62,2.08,893.59,23.74,
3970940,0.01,-0.04,1.08,1.16,2.69,2.14,893.65,23.75,
3970978,0.0,-0.04,1.1,1.16,1.65,2.2,893.64,23.76,
3971016,-0.01,-0.04,1.09,1.34,2.01,2.2,893.6,23.75,
3971054,-0.01,-0.05,1.08,1.16,2.44,2.2,893.63,23.75,
3971093,0.0,-0.03,1.12,1.1,2.2,1.83,893.6,23.76,
3971131,-0.0,-0.04,1.14,1.65,3.05,1.83,893.68,23.75,
3971169,-0.01,-0.04,1.08,1.28,4.27,1.83,893.65,23.75,
3971207,0.0,-0.04,1.15,1.77,4.27,1.83,893.63,23.75,
3971257,-0.02,-0.05,1.08,1.59,5.68,1.77,893.67,23.74,
3971296,-0.02,-0.03,1.1,1.83,5.98,1.65,893.66,23.74,
3971334,-0.01,-0.04,1.06,1.65,7.02,1.65,893.66,23.76,
3971372,-0.01,-0.04,1.03,1.77,6.53,1.83,893.67,23.76,
3971410,-0.01,-0.04,1.04,1.65,7.26,1.71,893.64,23.75,
3971448,-0.01,-0.05,1.01,1.53,7.26,1.95,893.65,23.76,
3971487,-0.02,-0.04,1.04,1.77,6.65,2.14,893.7,23.76,
3971525,-0.02,-0.05,1.02,1.71,6.71,2.14,893.73,23.75,
3971563,-0.02,-0.04,1.05,1.89,5.98,2.32,893.7,23.75,
3971613,-0.02,-0.05,1.03,1.83,6.1,2.32,893.63,23.75,
3971651,-0.02,-0.05,1.02,1.83,5.07,2.38,893.71,23.76,
3971689,-0.02,-0.05,1.01,1.65,5.19,2.56,893.65,23.75,
3971728,-0.02,-0.04,1.04,1.34,4.94,2.56,893.64,23.75,
3971766,-0.02,-0.05,1.04,1.22,4.7,2.87,893.63,23.75,
3971804,-0.03,-0.05,1.03,0.79,4.15,2.62,893.69,23.76,
3971842,-0.03,-0.04,1.07,1.04,4.76,2.75,893.68,23.76,
3971880,-0.02,-0.05,1.05,0.92,5.0,2.93,893.66,23.76,
3971919,-0.03,-0.04,1.08,1.22,4.27,3.17,893.66,23.75,
3971957,-0.04,-0.05,1.04,0.98,4.88,3.36,893.64,23.77,
3972007,-0.03,-0.04,1.06,1.22,4.15,3.54,893.66,23.75,
3972045,-0.03,-0.05,1.04,0.98,4.33,3.66,893.63,23.75,
3972083,-0.03,-0.04,1.03,1.34,3.78,3.85,893.66,23.77,
3972121,-0.03,-0.05,1.01,1.16,3.85,3.97,893.69,23.76,
3972160,-0.03,-0.05,1.02,1.16,3.54,4.09,893.68,23.76,
3972198,-0.03,-0.04,1.03,0.85,3.17,4.33,893.67,23.77,
3972236,-0.03,-0.04,1.05,1.34,2.56,4.27,893.65,23.76,
3972274,-0.03,-0.06,1.02,0.92,3.05,4.58,893.64,23.76,
3972313,-0.03,-0.05,1.05,0.98,2.56,4.46,893.68,23.76,
3972351,-0.02,-0.04,1.03,0.92,3.48,4.58,893.68,23.77,
3972401,-0.02,-0.04,1.02,0.98,2.87,4.88,893.63,23.75,
3972439,-0.02,-0.05,1.01,0.55,3.54,4.76,893.68,23.76,
3972477,-0.02,-0.05,1.01,0.61,3.36,4.82,893.68,23.76,
3972516,-0.02,-0.04,1.01,0.61,3.3,4.94,893.68,23.77,
3972554,-0.02,-0.04,1.02,0.61,2.81,5.13,893.65,23.75,
3972592,-0.01,-0.04,1.03,0.67,2.75,5.13,893.7,23.77,
3972630,-0.01,-0.05,1.04,0.67,2.5,5.13,893.67,23.76,
3972668,-0.02,-0.04,1.04,0.37,1.83,5.25,893.68,23.77,
3972707,-0.03,-0.04,1.08,0.67,1.53,5.49,893.65,23.77,
3972757,-0.02,-0.04,1.07,0.67,1.04,5.31,893.65,23.76,
3972795,-0.01,-0.04,1.09,0.73,1.16,5.31,893.68,23.76,
3972833,-0.01,-0.04,1.07,0.67,0.92,5.31,893.7,23.76,
3972871,-0.01,-0.04,1.06,0.67,1.83,5.31,893.65,23.75,
3972910,-0.01,-0.03,1.04,0.85,2.14,5.25,893.67,23.76,
3972948,-0.02,-0.03,1.05,1.1,2.38,5.19,893.66,23.76,
3972986,-0.0,-0.04,1.06,1.1,2.62,5.13,893.64,23.75,
3973024,-0.01,-0.04,1.06,1.1,2.26,5.19,893.64,23.76,
3973063,-0.02,-0.04,1.06,1.4,1.83,5.19,893.7,23.76,
3973101,-0.01,-0.05,1.02,1.46,1.22,5.49,893.63,23.77,
3973151,-0.01,-0.05,0.99,1.77,0.43,5.62,893.62,23.75,
3973189,-0.0,-0.05,0.93,1.71,0.73,5.37,893.69,23.76,
3973227,-0.01,-0.05,0.92,1.53,0.37,5.49,893.61,23.77,
3973266,-0.02,-0.05,0.93,1.59,0.31,5.37,893.67,23.76,
3973304,-0.02,-0.05,0.92,1.22,0.31,5.49,893.64,23.76,
3973342,-0.01,-0.04,0.95,1.16,0.49,5.55,893.67,23.76,
3973380,-0.01,-0.05,0.96,1.22,0.55,5.55,893.6,23.76,
3973418,-0.04,-0.05,0.98,1.28,0.37,5.49,893.58,23.76,
3973457,-0.01,-0.06,0.96,1.34,0.73,5.62,893.65,23.77,
3973495,-0.01,-0.05,0.91,1.46,1.22,5.31,893.69,23.77,
3973572,-0.01,-0.05,0.86,1.83,1.1,5.68,893.63,23.73,
3973610,-0.01,-0.04,0.84,1.71,0.18,5.55,893.58,23.74,
3973649,0.0,-0.06,0.83,1.4,0.0,5.55,893.6,23.75,
3973738,-0.01,-0.06,0.88,1.22,-0.37,5.8,893.65,23.72,
3973777,0.01,-0.05,0.93,1.34,-0.98,5.55,893.65,23.74,
3973815,-0.01,-0.05,0.92,1.95,-1.16,5.62,893.61,23.73,
3973853,-0.03,-0.06,0.81,1.65,-0.37,5.68,893.6,23.74,
3973891,-0.02,-0.04,0.84,2.26,0.12,5.49,893.66,23.74,
3973929,-0.0,-0.05,0.84,2.14,0.73,5.43,893.62,23.74,
3973979,-0.01,-0.05,0.87,2.44,0.24,5.43,893.65,23.73,
3974018,-0.01,-0.06,0.89,2.2,1.65,5.31,893.62,23.73,
3974056,0.02,-0.05,1.0,2.44,1.89,5.07,893.6,23.74,
3974094,0.01,-0.04,0.98,2.01,1.89,5.25,893.66,23.74,
3974132,-0.01,-0.05,1.0,2.69,1.59,5.25,893.62,23.73,
3974171,0.0,-0.04,0.92,2.2,1.83,5.31,893.62,23.74,
3974209,0.01,-0.02,0.96,2.5,-0.12,5.07,893.65,23.75,
3974247,0.01,-0.05,0.91,2.38,0.24,5.19,893.61,23.74,
3974285,-0.0,-0.04,0.91,2.69,-1.04,5.19,893.64,23.74,
3974323,-0.01,-0.05,0.93,2.99,-0.24,5.07,893.61,23.74,
3974373,0.02,-0.05,0.91,2.75,-1.71,5.19,893.65,23.75,
3974412,0.01,-0.04,0.95,3.11,-1.28,4.94,893.64,23.73,
3974450,-0.01,-0.05,0.91,2.75,-0.73,5.07,893.62,23.75,
3974488,-0.0,-0.05,0.93,3.11,-0.79,4.88,893.66,23.75,
3974526,0.0,-0.05,0.89,2.56,-0.24,4.76,893.66,23.75,
3974565,0.01,-0.04,0.9,2.87,-1.04,4.76,893.71,23.74,
3974603,-0.0,-0.06,0.88,2.75,-0.12,4.76,893.61,23.77,
3974641,0.0,-0.05,0.86,2.81,0.12,4.58,893.68,23.75,
3974679,0.0,-0.05,0.84,2.99,0.06,4.52,893.7,23.77,
3974717,0.01,-0.05,0.83,2.93,-0.12,4.46,893.55,23.75,
3974767,0.01,-0.05,0.86,2.81,-0.06,4.46,893.65,23.75,
3974805,0.01,-0.06,0.85,2.56,0.06,4.27,893.64,23.76,
3974844,-0.0,-0.05,0.86,2.62,-0.31,4.27,893.64,23.75,
3974882,-0.0,-0.06,0.85,2.32,0.55,4.21,893.66,23.75,
3974920,0.0,-0.05,0.89,1.95,0.61,4.21,893.7,23.75,
3974958,0.01,-0.05,0.9,2.14,1.16,4.15,893.72,23.75,
3974997,0.0,-0.05,0.88,2.2,1.89,3.97,893.72,23.75,
3975035,-0.0,-0.05,0.88,2.08,2.01,3.91,893.71,23.75,
3975073,0.02,-0.05,0.89,2.32,2.32,3.85,893.69,23.76,
3975123,-0.0,-0.06,0.83,2.5,2.99,3.54,893.73,23.75,
3975161,0.0,-0.05,0.83,2.44,3.66,3.54,893.73,23.73,
3975200,-0.0,-0.06,0.8,2.14,4.52,3.42,893.73,23.75,
3975238,0.0,-0.06,0.81,2.2,4.58,3.17,893.74,23.75,
3975276,-0.0,-0.06,0.81,1.77,5.37,3.05,893.7,23.74,
3975314,-0.0,-0.04,0.88,1.77,5.49,3.11,893.75,23.75,
3975352,0.0,-0.05,0.86,1.59,7.02,3.11,893.79,23.75,
3975391,-0.01,-0.05,0.95,1.71,6.9,2.93,893.73,23.76,
3975429,-0.03,-0.05,0.98,1.71,8.12,2.93,893.77,23.75,
3975467,-0.01,-0.06,1.0,1.89,9.22,2.75,893.79,23.77,
3975517,0.0,-0.05,0.95,1.83,10.01,2.75,893.83,23.76,
3975555,-0.01,-0.04,0.93,1.77,10.19,2.81,893.83,23.75,
3975594,-0.01,-0.06,0.9,1.71,10.31,3.05,893.9,23.76,
3975632,-0.01,-0.06,0.87,1.34,9.64,2.99,893.83,23.75,
3975670,-0.02,-0.05,0.88,1.46,9.09,3.11,893.82,23.75,
3975708,-0.01,-0.05,0.87,1.28,9.34,3.3,893.82,23.76,
3975747,0.0,-0.05,0.9,0.98,8.97,2.99,893.83,23.76,
3975785,-0.02,-0.06,0.91,0.98,8.73,3.17,893.9,23.77,
3975823,-0.02,-0.05,0.91,1.04,8.91,3.3,893.86,23.76,
3975861,-0.02,-0.05,0.94,0.85,10.13,3.05,893.91,23.75,
3975911,-0.01,-0.03,1.0,1.1,10.13,3.23,893.86,23.75,
3975949,-0.01,-0.04,1.02,0.73,10.56,3.11,893.9,23.76,
3975988,-0.02,-0.04,1.06,0.67,11.05,2.87,893.85,23.76,
3976026,-0.01,-0.03,1.11,0.73,11.23,3.17,893.95,23.76,
3976064,-0.01,-0.04,1.09,0.79,11.6,3.11,893.91,23.76,
3976102,-0.02,-0.03,1.15,0.92,11.29,3.36,893.98,23.76,
3976141,0.0,-0.02,1.19,0.98,11.54,3.6,893.97,23.76,
3976179,0.01,-0.02,1.26,1.65,9.64,3.6,893.95,23.77,
3976217,-0.01,-0.03,1.24,1.22,9.46,3.66,893.97,23.75,
3976267,-0.0,-0.02,1.33,1.83,7.51,4.09,893.98,23.75,
3976305,0.0,-0.03,1.27,1.53,6.77,4.15,894.01,23.77,
3976344,-0.01,-0.01,1.27,1.83,5.37,4.09,893.99,23.75,
3976382,0.0,-0.02,1.26,1.59,5.31,4.27,893.96,23.75,
3976420,0.0,-0.03,1.24,1.28,4.27,4.09,894.01,23.76,
3976458,0.0,-0.02,1.26,1.16,3.91,4.15,893.97,23.75,
3976496,0.01,-0.02,1.24,1.16,3.78,4.33,893.94,23.76,
3976535,0.01,-0.0,1.32,1.1,2.32,4.21,893.99,23.76,
3976573,0.0,-0.03,1.26,0.61,2.93,4.33,894.02,23.75,
3976611,0.01,-0.03,1.33,0.85,1.46,4.09,894.0,23.76,
3976687,0.0,-0.02,1.27,1.16,0.55,3.91,893.98,23.72,
3976725,0.02,-0.02,1.28,0.98,1.22,3.78,894.05,23.75,
3976764,0.02,-0.02,1.24,0.79,1.28,3.6,893.97,23.73,
3976854,-0.02,-0.03,1.29,0.85,1.46,3.3,894.01,23.72,
3976892,-0.0,-0.02,1.34,0.98,2.2,3.17,894.01,23.72,
3976930,0.02,-0.02,1.33,1.04,2.69,2.81,894.0,23.72,
3976968,0.01,-0.03,1.28,0.98,3.3,2.81,894.03,23.74,
3977006,0.0,-0.02,1.27,1.22,3.36,2.62,894.05,23.73,
3977045,0.0,-0.02,1.23,0.85,5.43,2.38,894.03,23.74,
3977083,0.02,-0.02,1.27,1.04,5.37,2.08,894.03,23.74,
3977133,0.0,-0.04,1.23,0.79,6.47,1.83,893.98,23.73,
3977171,0.01,-0.03,1.29,1.04,6.1,1.59,893.99,23.73,
3977209,0.02,-0.04,1.25,0.85,7.39,1.46,893.99,23.75,
3977248,0.0,-0.03,1.25,1.22,6.23,1.22,893.96,23.74,
3977286,-0.01,-0.04,1.19,1.16,7.08,1.22,894.02,23.75,
3977324,-0.01,-0.03,1.14,1.1,6.9,1.16,894.03,23.76,
3977362,0.01,-0.03,1.17,1.34,7.14,0.98,894.02,23.76,
3977400,0.0,-0.03,1.08,0.85,6.84,0.85,894.03,23.76,
3977439,-0.0,-0.03,1.16,1.65,6.29,0.85,894.02,23.75,
3977477,-0.0,-0.05,1.12,1.28,7.45,0.92,893.96,23.75,
3977527,-0.01,-0.03,1.18,1.77,6.29,0.79,893.96,23.74,
3977565,-0.01,-0.04,1.13,1.71,6.59,0.85,894.0,23.74,
3977603,-0.0,-0.04,1.15,1.89,5.86,0.73,893.92,23.74,
3977641,0.0,-0.05,1.12,1.65,6.9,0.67,894.0,23.75,
3977680,-0.0,-0.04,1.08,1.89,6.9,0.73,893.95,23.76,
3977718,-0.02,-0.04,1.05,1.65,7.69,0.49,893.93,23.75,
3977756,-0.02,-0.05,1.02,1.28,8.54,0.31,893.95,23.76,
3977794,-0.02,-0.06,1.01,1.28,9.58,0.31,893.99,23.77,
3977833,0.0,-0.06,0.97,1.22,10.19,0.18,893.99,23.76,
3977883,-0.0,-0.06,0.96,1.95,10.62,0.06,893.97,23.74,
3977921,0.0,-0.06,0.87,1.59,10.13,0.06,893.95,23.74,
3977959,0.01,-0.05,0.89,2.2,9.16,-0.18,893.96,23.75,
3977997,-0.02,-0.08,0.78,1.34,9.64,0.12,893.97,23.77,
3978036,0.0,-0.06,0.81,1.46,7.39,-0.12,893.94,23.75,
3978074,-0.0,-0.07,0.77,1.4,7.14,-0.06,893.9,23.75,
3978112,0.0,-0.06,0.76,0.79,5.55,-0.43,893.91,23.77,
