timestamp,acc_x,acc_y,acc_z,rot_x,rot_y,rot_z,qfe,temp
5045525,-0.04,-0.08,1.06,1.28,3.11,2.56,873.09,31.16
5045563,-0.02,-0.08,1.06,1.34,3.23,2.44,873.16,31.17
5045601,-0.03,-0.09,1.08,1.28,3.23,2.44,873.16,31.15
5045639,-0.03,-0.08,1.07,1.34,2.75,2.44,873.16,31.17
5045678,-0.02,-0.09,1.07,1.4,3.05,2.5,873.13,31.16
5045716,-0.03,-0.08,1.06,1.28,3.17,2.32,873.16,31.17
5045754,-0.04,-0.08,1.06,1.46,3.11,2.14,873.17,31.18
5045792,-0.03,-0.09,1.03,1.28,2.87,2.38,873.19,31.17
5045830,-0.03,-0.08,1.05,1.4,2.87,2.2,873.16,31.17
5045880,-0.04,-0.09,1.03,1.53,3.36,2.14,873.26,31.16
5045918,-0.03,-0.08,1.05,1.28,3.11,1.95,873.21,31.16
5045956,-0.02,-0.09,1.05,1.53,3.17,2.08,873.22,31.16
5045995,-0.02,-0.09,1.06,1.4,3.23,1.95,873.18,31.18
5046033,-0.04,-0.08,1.08,1.46,3.23,1.89,873.25,31.17
5046071,-0.03,-0.09,1.06,1.89,3.42,1.89,873.26,31.17
5046109,-0.01,-0.08,1.06,1.89,3.23,1.59,873.21,31.16
5046147,-0.03,-0.08,1.06,1.95,3.23,1.83,873.3,31.17
5046185,-0.03,-0.09,1.05,2.08,3.78,1.71,873.31,31.16
5046223,-0.02,-0.08,1.02,2.32,3.48,1.59,873.29,31.18
5046273,-0.03,-0.09,1.01,2.75,3.42,1.89,873.27,31.15
5046311,-0.02,-0.09,0.92,2.75,2.56,1.65,873.32,31.17
5046349,-0.02,-0.07,0.95,2.75,2.14,1.71,873.25,31.16
5046388,-0.02,-0.09,0.88,2.62,2.38,1.77,873.34,31.16
5046426,-0.02,-0.08,0.92,2.5,1.77,1.71,873.31,31.17
5046464,-0.03,-0.09,0.91,2.62,2.44,1.71,873.43,31.17
5046502,-0.02,-0.09,0.91,2.62,1.77,1.53,873.35,31.18
5046540,-0.03,-0.08,0.92,2.5,2.32,1.46,873.32,31.18
5046578,-0.02,-0.1,0.88,2.44,2.26,1.71,873.37,31.16
5046628,-0.02,-0.09,0.93,2.38,2.81,1.59,873.38,31.16
5046666,-0.03,-0.1,0.87,2.62,2.2,1.4,873.37,31.17
5046704,-0.03,-0.08,0.92,2.38,2.38,1.46,873.41,31.17
5046742,-0.03,-0.1,0.88,2.44,2.87,1.28,873.37,31.17
5046781,-0.03,-0.08,0.93,2.32,2.26,1.28,873.38,31.18
5046819,-0.02,-0.09,0.92,2.38,3.42,1.53,873.4,31.18
5046857,-0.03,-0.09,0.92,2.32,2.81,1.34,873.41,31.16
5046895,-0.04,-0.08,0.93,2.01,2.81,1.34,873.45,31.18
5046933,-0.02,-0.09,0.95,2.08,2.93,1.34,873.45,31.17
5046971,-0.02,-0.09,0.95,1.89,3.11,1.28,873.43,31.17
5047021,-0.01,-0.09,0.97,1.89,3.3,1.28,873.46,31.17
5047059,-0.02,-0.09,0.98,1.46,3.48,1.04,873.46,31.17
5047097,-0.01,-0.09,1.03,2.01,3.48,0.98,873.5,31.17
5047136,-0.01,-0.09,1.02,2.14,3.78,0.73,873.43,31.18
5047174,-0.01,-0.09,1.02,1.95,3.36,0.73,873.55,31.18
5047212,-0.01,-0.09,1.02,1.89,4.33,0.55,873.54,31.2
5047250,-0.02,-0.09,1.0,1.95,3.91,0.49,873.53,31.18
5047288,-0.02,-0.09,1.01,2.26,4.39,0.06,873.54,31.18
5047326,-0.02,-0.1,0.97,2.2,4.64,0.06,873.53,31.19
5047365,-0.02,-0.08,1.01,2.26,4.15,-0.06,873.53,31.18
5047440,-0.04,-0.09,0.99,2.2,5.49,-0.06,873.56,31.16
5047478,-0.03,-0.1,1.04,2.2,5.92,-0.18,873.56,31.17
5047517,-0.02,-0.1,1.01,1.95,5.86,-0.18,873.55,31.17
5047606,-0.02,-0.08,1.03,1.89,6.23,-0.24,873.56,31.14
5047644,-0.04,-0.08,1.05,2.08,6.71,-0.18,873.59,31.15
5047683,-0.04,-0.09,1.02,2.08,6.16,-0.24,873.62,31.15
5047721,-0.02,-0.08,1.08,1.95,6.77,-0.31,873.62,31.16
5047759,-0.03,-0.09,1.06,2.2,7.57,-0.37,873.61,31.15
5047797,-0.02,-0.08,1.07,2.01,7.87,-0.37,873.6,31.17
5047847,-0.02,-0.09,1.0,1.83,8.18,-0.37,873.61,31.15
5047885,-0.04,-0.08,0.99,1.53,7.39,-0.31,873.67,31.16
5047923,-0.02,-0.09,0.97,1.53,7.93,-0.49,873.67,31.17
5047962,-0.03,-0.09,0.95,1.34,7.39,-0.43,873.66,31.18
5048000,-0.04,-0.09,0.98,1.59,7.69,-0.49,873.67,31.17
5048038,-0.03,-0.1,0.95,1.77,7.39,-0.55,873.71,31.18
5048076,-0.02,-0.08,0.98,1.1,7.69,-0.55,873.63,31.16
5048114,-0.04,-0.08,0.97,1.28,7.75,-0.61,873.67,31.17
5048152,-0.04,-0.09,1.0,1.16,7.51,-0.67,873.71,31.17
5048191,-0.03,-0.09,0.99,1.16,7.87,-0.61,873.69,31.18
5048240,-0.03,-0.08,1.03,0.98,7.57,-0.67,873.69,31.17
5048279,-0.03,-0.09,1.03,0.79,7.75,-0.61,873.8,31.18
5048317,-0.05,-0.08,1.07,0.73,7.63,-0.55,873.67,31.15
5048355,-0.06,-0.09,1.05,0.73,7.69,-0.55,873.72,31.18
5048393,-0.04,-0.08,1.1,0.79,6.16,-0.43,873.73,31.19
5048431,-0.05,-0.08,1.1,0.79,6.71,-0.49,873.74,31.18
5048469,-0.04,-0.1,1.08,1.04,5.68,-0.49,873.81,31.17
5048508,-0.03,-0.08,1.11,1.16,4.7,-0.37,873.77,31.19
5048546,-0.05,-0.09,1.06,1.28,4.39,-0.31,873.8,31.18
5048596,-0.05,-0.08,1.04,0.98,2.81,-0.31,873.76,31.17
5048634,-0.05,-0.08,1.03,0.73,2.56,-0.24,873.77,31.17
5048672,-0.05,-0.09,1.02,0.55,1.1,-0.24,873.7,31.17
5048710,-0.06,-0.08,1.03,0.61,0.67,-0.24,873.74,31.17
5048748,-0.03,-0.08,1.06,0.61,0.67,-0.31,873.76,31.17
5048786,-0.05,-0.09,1.04,0.37,1.1,-0.12,873.74,31.16
5048824,-0.06,-0.07,1.07,0.18,0.67,-0.24,873.83,31.17
5048863,-0.06,-0.08,1.04,0.43,1.89,-0.31,873.79,31.17
5048901,-0.07,-0.09,1.03,0.55,3.17,-0.31,873.78,31.17
5048939,-0.05,-0.08,1.07,0.49,3.54,-0.37,873.88,31.17
5048989,-0.05,-0.08,1.04,0.55,4.46,-0.24,873.85,31.15
5049027,-0.05,-0.08,1.04,0.73,5.37,-0.31,873.86,31.16
5049065,-0.06,-0.08,1.12,0.85,5.49,-0.18,873.89,31.19
5049103,-0.04,-0.09,1.13,1.22,6.23,0.0,873.87,31.17
5049141,-0.06,-0.07,1.15,1.28,5.31,-0.06,873.86,31.17
5049179,-0.05,-0.07,1.17,1.65,5.55,0.12,873.88,31.17
5049217,-0.04,-0.08,1.16,1.46,4.82,0.12,873.87,31.18
5049255,-0.06,-0.07,1.19,1.46,4.21,0.12,873.83,31.18
5049293,-0.04,-0.08,1.17,1.65,4.46,0.31,873.89,31.17
5049343,-0.06,-0.07,1.14,1.89,4.64,0.37,873.91,31.17
5049381,-0.05,-0.09,1.1,1.89,5.0,0.24,873.9,31.17
5049419,-0.05,-0.08,1.09,1.89,3.78,0.31,873.92,31.17
5049458,-0.06,-0.07,1.07,1.71,3.42,0.61,873.89,31.18
5049496,-0.05,-0.07,1.08,1.71,3.17,0.61,873.83,31.17
5049534,-0.05,-0.07,1.11,1.53,3.48,0.73,873.85,31.18
5049572,-0.06,-0.07,1.13,1.83,2.93,0.85,873.88,31.17
5049610,-0.06,-0.08,1.14,1.77,3.48,0.73,873.87,31.18
5049648,-0.06,-0.08,1.14,1.89,3.48,0.92,873.93,31.17
5049686,-0.06,-0.07,1.15,1.89,3.54,0.79,873.86,31.17
5049736,-0.05,-0.08,1.12,1.83,3.85,0.85,873.91,31.17
5049774,-0.04,-0.07,1.09,1.89,3.85,0.98,873.88,31.16
5049813,-0.05,-0.08,1.05,1.71,3.48,1.04,873.93,31.17
5049851,-0.04,-0.08,1.05,1.77,2.99,0.98,873.92,31.16
5049889,-0.04,-0.08,1.04,1.95,2.99,0.98,873.99,31.17
5049927,-0.03,-0.08,1.03,1.77,2.93,1.16,873.9,31.16
5049965,-0.05,-0.08,1.03,1.4,2.69,1.1,873.96,31.18
5050003,-0.05,-0.08,1.02,1.53,2.56,1.1,873.96,31.17
5050041,-0.06,-0.08,1.01,1.53,2.44,1.1,873.9,31.17
5050080,-0.04,-0.09,1.0,1.04,2.2,1.22,873.96,31.18
5050129,-0.04,-0.08,1.0,1.04,1.89,1.22,873.92,31.17
5050167,-0.03,-0.09,1.0,1.04,1.77,0.98,873.96,31.17
5050206,-0.04,-0.08,1.02,1.04,0.85,1.28,873.97,31.17
5050244,-0.05,-0.08,1.02,1.04,1.59,1.22,873.98,31.17
5050282,-0.04,-0.08,1.06,1.04,1.22,1.46,873.94,31.17
5050320,-0.05,-0.08,1.06,0.98,0.55,1.22,873.97,31.17
5050358,-0.03,-0.08,1.08,0.98,0.61,1.16,873.99,31.19
5050396,-0.04,-0.08,1.08,0.92,1.4,1.28,873.98,31.18
5050434,-0.03,-0.08,1.1,1.22,1.34,1.22,873.94,31.18
5050510,-0.05,-0.08,1.08,1.34,2.38,0.92,873.93,31.15
5050548,-0.04,-0.08,1.08,1.65,2.5,1.04,873.96,31.17
5050586,-0.03,-0.08,1.09,1.71,2.5,0.92,874.02,31.16
5050676,-0.04,-0.08,1.04,1.95,2.5,0.85,873.92,31.13
5050714,-0.04,-0.08,1.04,1.95,2.81,0.73,873.98,31.15
5050752,-0.04,-0.08,1.04,1.95,2.75,1.04,873.95,31.15
5050790,-0.04,-0.08,1.04,2.08,2.5,0.92,873.98,31.15
5050829,-0.04,-0.08,1.02,2.08,2.38,1.04,873.98,31.16
5050867,-0.04,-0.08,1.02,2.01,2.32,0.92,873.99,31.17
5050905,-0.04,-0.08,1.0,2.2,2.62,0.79,873.97,31.16
5050955,-0.04,-0.09,0.98,2.14,2.99,0.92,873.99,31.16
5050993,-0.03,-0.08,0.99,2.26,2.56,1.04,873.95,31.14
5051031,-0.04,-0.08,0.99,2.32,2.5,1.04,874.01,31.16
5051069,-0.05,-0.09,1.0,2.14,2.56,1.04,874.05,31.16
5051108,-0.04,-0.09,0.98,2.32,2.75,0.98,873.96,31.16
5051146,-0.05,-0.09,0.98,2.32,2.81,0.73,874.01,31.16
5051184,-0.04,-0.08,0.95,2.38,2.81,0.98,874.05,31.17
5051222,-0.03,-0.09,0.93,2.26,3.54,0.67,873.99,31.16
5051260,-0.04,-0.08,0.92,2.26,3.72,0.79,874.05,31.16
5051298,-0.06,-0.09,0.9,2.38,3.23,0.73,874.0,31.15
5051348,-0.03,-0.09,0.91,2.44,3.05,0.85,873.99,31.15
5051386,-0.02,-0.09,0.89,2.14,3.05,0.67,874.01,31.15
5051425,-0.03,-0.08,0.9,2.2,2.81,0.55,873.98,31.15
5051463,-0.04,-0.08,0.9,2.08,2.56,0.73,874.01,31.16
5051501,-0.04,-0.09,0.91,1.77,2.44,0.61,873.98,31.17
5051539,-0.03,-0.09,0.93,1.71,2.5,0.49,873.94,31.16
5051577,-0.04,-0.09,0.96,1.53,2.14,0.67,873.93,31.15
5051616,-0.05,-0.08,0.98,1.65,2.56,0.49,873.89,31.16
5051654,-0.04,-0.08,0.98,1.83,3.11,0.55,874.03,31.17
5051704,-0.04,-0.07,0.99,1.46,2.44,0.49,873.97,31.15
5051742,-0.03,-0.08,1.0,1.77,2.32,0.37,874.04,31.17
5051780,-0.04,-0.08,0.97,1.71,2.44,0.31,874.0,31.16
5051818,-0.04,-0.07,1.0,1.71,2.69,0.43,874.03,31.16
5051856,-0.04,-0.09,0.95,1.95,2.87,0.43,873.94,31.15
5051894,-0.03,-0.08,0.98,2.08,2.44,0.43,874.01,31.16
5051932,-0.03,-0.08,0.96,2.01,3.17,0.37,874.03,31.15
5051971,-0.04,-0.09,0.95,2.2,2.93,0.31,874.03,31.16
5052009,-0.04,-0.08,0.95,2.26,3.05,0.49,874.0,31.16
5052047,-0.05,-0.08,0.93,2.2,3.05,0.43,874.0,31.15
5052097,-0.04,-0.08,0.94,2.32,3.48,0.31,874.02,31.15
5052135,-0.05,-0.08,0.93,2.38,3.23,0.37,873.97,31.15
5052173,-0.05,-0.08,0.95,2.56,3.36,0.43,874.03,31.16
5052211,-0.04,-0.09,0.94,2.56,3.42,0.37,874.0,31.16
5052249,-0.04,-0.08,0.96,2.44,3.85,0.31,874.03,31.15
5052288,-0.05,-0.09,0.93,2.38,4.58,0.49,874.0,31.16
5052326,-0.05,-0.08,0.95,2.62,4.64,0.49,874.0,31.16
5052364,-0.05,-0.08,0.95,2.75,4.7,0.55,873.98,31.16
5052402,-0.05,-0.08,0.93,2.99,4.58,0.67,873.99,31.15
5052440,-0.04,-0.08,0.91,2.99,4.94,0.55,873.95,31.16
5052490,-0.04,-0.08,0.94,2.87,4.03,0.79,874.01,31.15
5052528,-0.05,-0.08,0.95,2.81,4.76,0.92,874.03,31.16
5052567,-0.05,-0.08,0.94,2.62,4.33,0.85,874.02,31.15
5052605,-0.05,-0.08,0.98,2.75,4.33,0.73,873.98,31.15
5052643,-0.04,-0.09,0.97,2.62,3.48,1.04,874.03,31.17
5052681,-0.04,-0.08,0.99,2.44,4.03,1.1,874.02,31.17
5052719,-0.06,-0.09,0.96,2.5,4.09,1.22,874.05,31.16
5052757,-0.05,-0.07,0.98,2.56,3.48,1.16,873.99,31.17
5052796,-0.05,-0.08,0.95,2.69,3.97,1.16,874.06,31.17
5052845,-0.05,-0.08,0.96,2.75,4.15,1.16,874.02,31.14
5052884,-0.04,-0.08,0.94,2.93,4.7,1.16,874.04,31.15
5052922,-0.05,-0.08,0.94,2.93,4.27,1.46,874.05,31.15
5052960,-0.06,-0.08,0.92,2.99,4.82,1.4,874.06,31.15
5052998,-0.05,-0.08,0.88,2.93,4.82,1.53,874.08,31.15
5053036,-0.05,-0.08,0.9,2.81,4.82,1.53,874.04,31.17
5053074,-0.05,-0.08,0.87,2.62,4.76,1.46,874.02,31.15
5053112,-0.05,-0.07,0.92,2.38,4.33,1.46,874.09,31.17
5053151,-0.04,-0.09,0.91,2.38,5.37,1.77,874.07,31.15
5053189,-0.04,-0.08,0.93,2.32,4.64,1.65,874.02,31.15
5053239,-0.05,-0.09,0.91,2.44,5.68,1.59,874.05,31.15
5053277,-0.04,-0.08,0.92,2.38,5.43,1.53,874.07,31.15
5053315,-0.04,-0.08,0.92,2.56,5.74,1.71,874.08,31.16
5053353,-0.04,-0.08,0.91,2.38,5.68,1.71,874.04,31.14
5053391,-0.04,-0.08,0.92,2.32,6.16,1.77,874.06,31.15
5053429,-0.03,-0.08,0.94,2.38,5.98,1.71,874.09,31.15
5053468,-0.05,-0.08,0.92,2.14,6.29,1.83,874.11,31.16
5053506,-0.04,-0.08,0.93,2.08,6.47,1.71,874.09,31.15
5053544,-0.04,-0.08,0.94,1.89,6.04,1.65,874.08,31.15
5053582,-0.02,-0.08,0.92,2.01,5.92,1.59,874.07,31.16
5053658,-0.05,-0.08,0.9,1.95,5.86,1.71,874.15,31.13
5053696,-0.02,-0.08,0.92,1.83,5.19,1.59,874.17,31.15
5053734,-0.02,-0.08,0.9,1.65,5.37,1.59,874.11,31.15
5053824,-0.04,-0.09,0.91,1.71,4.64,1.4,874.09,31.11
5053862,-0.04,-0.08,0.93,1.53,3.97,1.4,874.12,31.12
5053900,-0.02,-0.08,0.91,1.16,4.09,1.53,874.2,31.14
5053938,-0.04,-0.08,0.91,1.16,3.85,1.34,874.19,31.13
5053976,-0.03,-0.08,0.94,1.28,3.42,1.34,874.11,31.14
5054015,-0.02,-0.08,0.95,1.04,3.91,1.22,874.12,31.15
5054065,-0.03,-0.08,0.98,1.04,4.15,1.16,874.17,31.13
5054103,-0.02,-0.08,0.99,1.22,3.54,1.04,874.11,31.13
5054141,-0.04,-0.08,0.99,1.16,3.3,0.98,874.21,31.15
5054179,-0.01,-0.08,0.97,1.16,3.78,0.92,874.23,31.15
5054217,-0.02,-0.08,0.99,1.28,3.3,0.92,874.21,31.15
5054255,-0.02,-0.07,0.99,1.28,3.17,0.98,874.22,31.15
5054294,-0.03,-0.07,0.99,1.28,2.99,0.79,874.18,31.15
5054332,-0.03,-0.08,1.02,1.28,3.23,0.79,874.25,31.16
5054370,-0.03,-0.08,1.01,1.4,3.11,0.61,874.18,31.15
5054408,-0.03,-0.08,1.03,1.28,3.11,0.61,874.22,31.15
5054458,-0.03,-0.07,1.05,1.34,2.87,0.79,874.25,31.14
5054496,-0.03,-0.07,1.04,1.22,3.11,0.55,874.21,31.15
5054534,-0.03,-0.07,1.05,1.59,2.99,0.61,874.19,31.15
5054572,-0.03,-0.08,1.04,1.59,3.23,0.49,874.26,31.16
5054611,-0.04,-0.07,1.03,1.59,2.69,0.67,874.23,31.16
5054649,-0.03,-0.07,1.03,1.77,2.69,0.61,874.24,31.17
5054687,-0.03,-0.08,1.02,1.89,2.93,0.37,874.27,31.16
5054725,-0.03,-0.08,1.0,2.01,2.87,0.43,874.29,31.16
5054763,-0.03,-0.08,0.99,2.01,2.69,0.37,874.28,31.15
5054802,-0.03,-0.08,0.98,2.08,2.99,0.18,874.25,31.16
5054852,-0.02,-0.07,0.99,2.14,2.99,0.06,874.22,31.14
5054890,-0.03,-0.08,0.97,1.77,3.11,0.24,874.31,31.15
5054928,-0.03,-0.07,0.95,1.95,3.05,0.06,874.29,31.16
5054966,-0.03,-0.08,0.95,1.83,2.69,0.12,874.24,31.16
5055004,-0.03,-0.08,0.95,1.71,2.99,0.12,874.27,31.16
5055042,-0.03,-0.08,0.94,1.83,2.56,0.12,874.25,31.15
5055081,-0.04,-0.07,0.95,1.95,2.5,0.06,874.27,31.15
5055119,-0.03,-0.07,0.95,1.77,2.69,0.0,874.3,31.17
5055157,-0.04,-0.07,0.98,1.71,2.44,0.12,874.33,31.17
5055207,-0.03,-0.08,0.96,1.77,2.38,0.0,874.24,31.14
5055245,-0.04,-0.07,0.98,1.77,2.5,-0.06,874.3,31.16
5055283,-0.03,-0.08,0.99,2.14,2.93,-0.12,874.3,31.16
5055321,-0.04,-0.07,1.0,1.83,2.87,-0.12,874.31,31.17
5055360,-0.05,-0.07,1.0,2.01,3.48,-0.06,874.3,31.15
5055398,-0.04,-0.07,1.01,2.01,3.17,-0.12,874.31,31.17
5055436,-0.04,-0.07,1.02,2.08,3.11,-0.06,874.36,31.17
5055474,-0.05,-0.07,1.0,2.08,3.54,0.0,874.37,31.17
5055512,-0.04,-0.07,1.0,2.08,3.48,0.0,874.33,31.17
5055550,-0.05,-0.07,1.0,2.2,3.36,0.0,874.31,31.17
5055600,-0.04,-0.07,0.99,1.95,3.3,0.06,874.34,31.16
5055638,-0.05,-0.07,0.98,2.01,3.36,0.12,874.39,31.15
5055677,-0.04,-0.07,0.98,1.95,3.3,0.06,874.33,31.14
5055715,-0.04,-0.07,0.99,2.26,3.3,0.24,874.39,31.16
5055753,-0.05,-0.08,0.99,2.2,3.23,0.24,874.39,31.15
5055791,-0.04,-0.08,0.96,2.2,3.54,0.31,874.37,31.16
5055829,-0.04,-0.07,0.96,1.95,3.54,0.31,874.31,31.15
5055867,-0.05,-0.07,0.93,2.14,3.66,0.37,874.4,31.16
5055906,-0.05,-0.08,0.9,2.2,4.27,0.37,874.39,31.16
5055956,-0.04,-0.07,0.89,2.08,4.21,0.49,874.43,31.16
5055994,-0.05,-0.07,0.87,2.2,4.09,0.31,874.45,31.16
5056032,-0.05,-0.07,0.86,2.14,4.27,0.61,874.41,31.16
5056070,-0.04,-0.07,0.89,2.14,4.21,0.55,874.47,31.16
5056108,-0.05,-0.08,0.89,1.89,3.91,0.67,874.37,31.17
5056146,-0.04,-0.07,0.93,1.77,3.66,0.67,874.38,31.18
5056184,-0.03,-0.07,0.95,1.77,3.85,0.55,874.42,31.18
5056223,-0.04,-0.07,0.97,1.53,3.36,0.55,874.39,31.17
5056261,-0.04,-0.07,0.99,1.71,3.11,0.73,874.44,31.17
5056299,-0.04,-0.07,1.0,1.53,3.72,0.79,874.42,31.17
5056349,-0.04,-0.07,1.02,1.65,3.3,0.79,874.47,31.17
5056387,-0.04,-0.07,1.03,1.71,3.11,0.73,874.45,31.17
5056425,-0.04,-0.07,1.02,1.77,2.93,0.79,874.46,31.18
5056463,-0.05,-0.07,1.02,1.95,3.36,0.85,874.42,31.17
5056501,-0.05,-0.08,1.01,2.08,3.3,0.79,874.44,31.17
5056540,-0.04,-0.07,1.0,1.95,3.17,0.92,874.43,31.18
5056578,-0.04,-0.07,0.98,2.14,3.36,0.92,874.49,31.17
5056616,-0.06,-0.06,0.98,2.26,3.36,1.1,874.52,31.19
5056654,-0.04,-0.07,0.97,2.08,3.6,1.16,874.44,31.17
5056692,-0.04,-0.07,0.96,2.2,3.36,1.16,874.48,31.18
5056768,-0.06,-0.07,0.94,2.08,3.3,1.28,874.46,31.16
5056807,-0.04,-0.07,0.98,2.08,2.99,1.28,874.55,31.17
5056845,-0.05,-0.08,0.94,2.38,3.3,1.28,874.55,31.18
5056934,-0.05,-0.07,0.93,2.26,3.54,1.4,874.54,31.15
5056972,-0.05,-0.07,0.93,2.2,3.3,1.28,874.55,31.16
5057011,-0.05,-0.08,0.94,2.2,3.42,1.46,874.61,31.17
5057049,-0.04,-0.07,0.95,2.32,3.72,1.4,874.54,31.17
5057087,-0.04,-0.07,0.96,2.2,3.42,1.53,874.51,31.17
5057125,-0.04,-0.07,0.96,2.32,3.05,1.46,874.57,31.18
5057175,-0.04,-0.07,0.98,2.26,3.17,1.46,874.58,31.16
5057213,-0.04,-0.07,0.96,2.32,3.17,1.53,874.62,31.17
5057251,-0.04,-0.08,0.97,2.44,3.42,1.65,874.55,31.15
5057289,-0.04,-0.08,0.95,2.32,3.66,1.53,874.67,31.16
5057328,-0.04,-0.07,0.95,2.32,3.54,1.59,874.65,31.16
5057366,-0.05,-0.07,0.94,2.44,3.42,1.59,874.62,31.16
5057404,-0.04,-0.08,0.94,2.32,3.48,1.46,874.62,31.16
5057442,-0.04,-0.08,0.93,2.26,3.23,1.65,874.56,31.15
5057480,-0.04,-0.07,0.93,2.14,2.87,1.53,874.66,31.16
5057518,-0.04,-0.08,0.92,2.2,2.56,1.65,874.62,31.17
5057568,-0.05,-0.08,0.91,2.2,2.26,1.77,874.68,31.15
5057606,-0.04,-0.07,0.92,2.08,2.08,1.83,874.64,31.15
5057645,-0.04,-0.08,0.92,2.14,2.32,1.89,874.68,31.15
5057683,-0.05,-0.07,0.95,2.08,2.26,1.83,874.69,31.15
5057721,-0.05,-0.08,0.96,1.95,2.81,1.77,874.68,31.14
5057759,-0.03,-0.07,0.98,2.01,2.75,1.95,874.71,31.15
5057797,-0.04,-0.07,0.98,2.2,2.69,1.83,874.75,31.15
5057835,-0.04,-0.07,0.95,2.14,3.05,1.95,874.73,31.15
5057873,-0.05,-0.07,0.97,2.26,2.56,1.77,874.75,31.14
5057912,-0.04,-0.08,0.96,2.38,2.38,1.77,874.75,31.15
5057962,-0.04,-0.07,0.97,2.38,2.2,1.77,874.76,31.14
5058000,-0.04,-0.07,0.95,2.26,2.81,1.83,874.79,31.16
5058038,-0.03,-0.08,0.96,2.38,2.69,1.83,874.76,31.15
5058076,-0.03,-0.08,0.96,2.38,2.75,1.77,874.74,31.17
5058114,-0.05,-0.07,0.94,2.5,2.81,1.65,874.73,31.15
5058152,-0.03,-0.08,0.95,2.26,3.05,1.46,874.76,31.14
5058190,-0.03,-0.08,0.94,2.26,2.81,1.65,874.8,31.15
5058229,-0.04,-0.07,0.96,2.44,2.75,1.65,874.82,31.15
5058267,-0.03,-0.08,0.94,2.2,3.23,1.71,874.82,31.16
5058317,-0.03,-0.07,0.98,2.08,3.17,1.46,874.81,31.13
5058355,-0.03,-0.08,0.95,2.2,3.42,1.53,874.84,31.15
5058393,-0.03,-0.08,0.96,2.2,3.54,1.4,874.83,31.16
5058431,-0.02,-0.07,0.97,2.01,3.6,1.34,874.83,31.15
5058469,-0.03,-0.08,0.96,2.01,3.48,1.34,874.83,31.15
5058507,-0.02,-0.07,0.96,1.95,3.42,1.34,874.86,31.15
5058546,-0.03,-0.07,0.96,1.89,4.09,1.16,874.85,31.15
5058584,-0.03,-0.07,0.94,2.01,4.09,1.04,874.93,31.15
5058622,-0.04,-0.08,0.94,2.26,4.03,1.22,874.91,31.16
5058660,-0.04,-0.08,0.94,2.32,4.33,1.16,874.92,31.16
5058710,-0.02,-0.07,0.94,2.26,4.21,1.04,874.88,31.15
5058748,-0.02,-0.07,0.92,2.44,4.64,0.92,874.93,31.15
5058786,-0.02,-0.08,0.95,2.2,3.72,0.92,874.91,31.16
5058825,-0.02,-0.09,0.93,2.38,3.97,0.79,874.97,31.16
5058863,-0.04,-0.07,0.93,2.08,3.42,0.98,874.93,31.17
5058901,-0.03,-0.07,0.97,2.44,3.23,0.85,874.93,31.15
5058939,-0.02,-0.08,0.91,2.2,3.97,0.73,874.94,31.17
5058977,-0.04,-0.07,0.92,2.14,3.17,0.73,874.99,31.16
5059015,-0.04,-0.08,0.91,2.14,3.85,0.67,875.0,31.17
5059054,-0.03,-0.08,0.92,1.95,3.78,0.67,875.04,31.18
5059104,-0.04,-0.08,0.91,2.08,4.39,0.61,875.0,31.15
5059142,-0.05,-0.08,0.91,1.89,4.58,0.43,875.0,31.16
5059180,-0.03,-0.08,0.93,1.89,5.37,0.43,875.02,31.17
5059218,-0.04,-0.08,0.94,1.89,5.25,0.49,875.0,31.15
5059256,-0.04,-0.08,0.92,2.08,5.31,0.43,875.04,31.17
5059294,-0.04,-0.08,0.91,1.89,5.49,0.49,875.04,31.16
5059333,-0.03,-0.08,0.92,1.89,5.55,0.31,875.04,31.16
5059371,-0.04,-0.08,0.9,1.77,4.58,0.37,875.07,31.17
5059409,-0.05,-0.07,0.91,1.59,4.7,0.55,875.1,31.16
5059459,-0.03,-0.08,0.93,1.46,4.46,0.73,875.06,31.14
5059497,-0.04,-0.07,0.96,1.4,3.78,0.61,875.07,31.17
5059535,-0.04,-0.07,0.96,1.53,4.27,0.73,875.12,31.15
5059573,-0.03,-0.08,0.99,1.4,3.48,0.61,875.09,31.16
5059611,-0.03,-0.07,1.01,1.28,3.3,0.73,875.14,31.18
5059649,-0.04,-0.07,1.02,1.46,2.69,0.67,875.12,31.17
5059688,-0.05,-0.07,1.03,1.53,2.75,0.92,875.11,31.16
5059726,-0.04,-0.07,1.04,1.46,1.83,0.73,875.16,31.19
5059764,-0.04,-0.07,1.04,1.46,2.08,0.79,875.16,31.17
5059802,-0.03,-0.08,1.02,1.53,1.53,0.79,875.13,31.16
5059878,-0.04,-0.07,1.01,1.77,2.08,0.73,875.21,31.15
5059916,-0.04,-0.07,1.0,1.65,2.2,0.67,875.21,31.15
5059954,-0.05,-0.07,1.0,1.89,2.56,0.73,875.22,31.15
5060044,-0.04,-0.07,0.99,2.08,3.05,0.79,875.24,31.13
5060082,-0.03,-0.07,0.99,2.08,2.93,0.73,875.26,31.13
5060120,-0.04,-0.07,0.97,2.01,2.93,0.73,875.25,31.14
5060158,-0.04,-0.08,0.97,2.32,3.23,0.73,875.29,31.13
5060196,-0.04,-0.07,0.96,2.2,3.54,0.67,875.33,31.16
5060235,-0.04,-0.07,0.95,2.14,2.99,0.67,875.25,31.15
5060273,-0.04,-0.07,0.95,2.14,2.69,0.92,875.32,31.15
5060322,-0.04,-0.08,0.92,2.14,2.75,0.85,875.33,31.14
5060361,-0.04,-0.07,0.96,1.83,2.5,0.73,875.32,31.14
5060399,-0.03,-0.07,0.95,1.71,2.08,0.98,875.31,31.14
5060437,-0.03,-0.07,0.99,1.65,1.28,0.85,875.33,31.13
5060475,-0.04,-0.08,0.99,1.65,1.16,1.04,875.3,31.14
5060513,-0.04,-0.07,1.04,1.59,0.55,1.1,875.37,31.15
5060551,-0.04,-0.07,1.03,1.4,0.85,0.92,875.32,31.15
5060590,-0.04,-0.07,1.04,1.22,0.24,1.1,875.38,31.15
5060628,-0.04,-0.07,1.04,1.4,0.73,1.04,875.4,31.16
5060678,-0.04,-0.06,1.06,1.53,1.22,1.1,875.41,31.14
5060716,-0.04,-0.07,1.06,1.77,2.01,1.1,875.37,31.15
5060754,-0.04,-0.07,1.04,1.83,2.38,0.85,875.46,31.15
5060792,-0.03,-0.07,1.04,2.08,2.56,0.92,875.47,31.14
5060830,-0.04,-0.07,1.02,2.38,2.99,0.98,875.46,31.14
5060868,-0.03,-0.07,1.01,2.2,3.05,0.85,875.49,31.15
5060906,-0.04,-0.07,1.01,2.26,3.3,0.73,875.45,31.16
5060945,-0.04,-0.08,0.99,2.38,2.93,0.79,875.48,31.15
5060983,-0.04,-0.07,1.01,2.32,2.69,0.92,875.49,31.17
5061021,-0.04,-0.08,0.99,2.5,3.23,0.79,875.48,31.15
5061071,-0.04,-0.07,0.97,2.44,2.87,0.92,875.49,31.15
5061109,-0.04,-0.08,0.95,2.26,2.87,0.79,875.54,31.15
5061147,-0.04,-0.08,0.94,2.38,2.56,0.98,875.57,31.16
5061185,-0.04,-0.08,0.93,2.38,2.93,0.85,875.59,31.16
5061224,-0.03,-0.08,0.92,2.2,3.11,1.1,875.54,31.15
5061262,-0.04,-0.07,0.93,2.2,2.87,0.92,875.64,31.16
5061300,-0.03,-0.07,0.92,2.26,2.87,1.1,875.56,31.15
5061338,-0.03,-0.08,0.91,2.32,3.11,0.98,875.56,31.15
5061376,-0.04,-0.08,0.92,2.26,3.17,0.98,875.6,31.15
5061414,-0.04,-0.08,0.88,2.01,2.62,1.1,875.66,31.16
5061464,-0.04,-0.07,0.88,1.89,2.32,1.1,875.63,31.15
5061502,-0.04,-0.08,0.86,1.83,2.26,1.04,875.63,31.14
5061541,-0.03,-0.08,0.87,1.77,2.08,1.16,875.6,31.15
5061579,-0.05,-0.07,0.87,1.65,2.32,1.22,875.63,31.15
5061617,-0.04,-0.08,0.9,1.59,2.32,1.16,875.69,31.16
5061655,-0.04,-0.08,0.91,1.34,2.69,1.16,875.68,31.16
5061693,-0.04,-0.08,0.9,1.59,2.56,1.1,875.67,31.16
5061732,-0.04,-0.08,0.92,1.53,2.75,1.1,875.71,31.16
5061770,-0.03,-0.07,0.93,1.46,3.05,1.22,875.72,31.17
5061820,-0.04,-0.08,0.95,1.4,3.11,1.16,875.78,31.15
5061858,-0.04,-0.08,0.96,1.28,3.11,1.28,875.74,31.16
5061896,-0.04,-0.07,0.97,1.4,2.87,1.22,875.75,31.15
5061934,-0.04,-0.07,0.97,1.46,2.69,1.22,875.74,31.15
5061972,-0.04,-0.07,0.97,1.59,2.93,1.16,875.79,31.16
5062010,-0.03,-0.07,1.01,1.46,3.17,1.22,875.84,31.16
5062049,-0.04,-0.07,0.99,1.77,3.11,1.28,875.82,31.16
5062087,-0.04,-0.07,0.98,1.89,3.05,1.22,875.81,31.14
5062125,-0.04,-0.07,0.99,2.14,3.3,1.28,875.81,31.16
5062163,-0.04,-0.08,0.95,1.83,3.17,1.28,875.82,31.16
5062213,-0.03,-0.07,0.98,2.01,3.17,1.22,875.81,31.14
5062251,-0.03,-0.08,0.94,1.95,3.54,1.16,875.83,31.14
5062289,-0.03,-0.07,0.97,1.83,2.75,1.22,875.9,31.16
5062327,-0.03,-0.07,0.98,1.95,2.87,1.1,875.87,31.14
5062365,-0.04,-0.08,0.96,1.89,2.75,1.1,875.88,31.15
5062404,-0.03,-0.07,1.0,1.83,2.69,1.22,875.9,31.15
5062442,-0.04,-0.08,0.96,1.77,2.62,0.98,875.91,31.14
5062480,-0.04,-0.07,0.98,1.71,1.89,1.22,875.94,31.14
5062518,-0.03,-0.08,0.99,1.65,2.38,1.04,875.97,31.15
5062556,-0.04,-0.07,1.0,1.71,1.83,1.16,875.98,31.16
5062606,-0.03,-0.07,1.01,1.59,2.5,0.85,875.94,31.12
5062644,-0.03,-0.07,1.03,1.71,1.53,1.04,876.01,31.13
5062682,-0.04,-0.07,1.01,1.53,2.26,1.04,875.99,31.13
5062721,-0.04,-0.07,1.0,1.65,2.32,0.79,876.02,31.14
5062759,-0.04,-0.07,1.02,1.71,2.44,0.98,876.03,31.14
5062797,-0.03,-0.08,1.0,1.77,2.56,0.79,876.04,31.15
5062835,-0.04,-0.07,1.0,1.89,2.93,0.73,876.04,31.15
5062873,-0.04,-0.07,0.99,2.08,3.05,0.73,876.06,31.15
5062911,-0.03,-0.07,1.0,2.14,2.93,0.73,876.1,31.16
5062988,-0.04,-0.07,0.99,1.95,3.36,0.55,876.09,31.13
5063027,-0.03,-0.07,0.99,2.2,3.66,0.49,876.13,31.13
5063065,-0.05,-0.07,0.98,2.2,3.23,0.61,876.1,31.15
5063154,-0.03,-0.08,0.98,2.14,3.85,0.55,876.12,31.1
5063192,-0.04,-0.07,0.98,2.2,3.36,0.55,876.18,31.12
5063231,-0.04,-0.07,0.96,1.89,3.36,0.55,876.19,31.12
5063269,-0.04,-0.07,0.96,2.01,2.87,0.43,876.21,31.13
5063307,-0.05,-0.08,0.94,1.89,3.05,0.37,876.2,31.13
5063345,-0.04,-0.08,0.94,1.95,2.26,0.55,876.22,31.13
5063383,-0.04,-0.07,0.94,1.95,2.2,0.61,876.22,31.12
5063433,-0.03,-0.07,0.94,2.08,2.2,0.67,876.27,31.13
5063471,-0.03,-0.07,0.94,2.01,2.08,0.55,876.25,31.13
5063509,-0.04,-0.07,0.91,2.01,2.2,0.55,876.25,31.13
5063548,-0.05,-0.07,0.92,1.89,2.14,0.55,876.27,31.13
5063586,-0.04,-0.07,0.94,2.14,1.83,0.49,876.35,31.14
5063624,-0.05,-0.08,0.93,2.08,2.32,0.61,876.25,31.14
5063662,-0.05,-0.08,0.93,2.08,2.32,0.55,876.3,31.14
5063700,-0.04,-0.07,0.95,2.01,2.56,0.61,876.31,31.14
5063738,-0.05,-0.08,0.91,1.89,2.75,0.61,876.34,31.14
5063776,-0.04,-0.06,0.94,1.89,3.17,0.55,876.41,31.15
5063826,-0.06,-0.07,0.95,1.77,3.66,0.55,876.34,31.13
5063864,-0.04,-0.07,0.98,1.95,3.54,0.67,876.35,31.14
5063902,-0.05,-0.07,0.97,2.01,3.78,0.61,876.37,31.14
5063941,-0.05,-0.08,0.98,1.77,3.78,0.61,876.4,31.15
5063979,-0.04,-0.07,0.99,1.83,3.6,0.67,876.44,31.16
5064017,-0.06,-0.06,0.99,2.01,4.03,0.85,876.39,31.15
5064055,-0.05,-0.07,0.99,1.95,3.78,0.85,876.48,31.15
5064093,-0.05,-0.07,0.99,2.01,3.91,0.92,876.47,31.16
5064131,-0.03,-0.06,0.99,2.14,3.6,0.92,876.48,31.16
5064181,-0.06,-0.07,0.98,2.14,3.6,1.04,876.46,31.14
5064219,-0.05,-0.07,1.0,2.08,3.54,1.04,876.52,31.15
5064257,-0.05,-0.07,0.97,2.26,3.66,1.22,876.49,31.15
5064295,-0.05,-0.06,0.98,2.2,3.54,1.28,876.51,31.15
5064333,-0.05,-0.07,0.97,2.08,3.78,1.16,876.49,31.15
5064372,-0.05,-0.07,0.96,2.26,4.09,1.34,876.57,31.17
5064410,-0.06,-0.07,0.95,2.08,4.15,1.34,876.56,31.16
5064448,-0.05,-0.07,0.94,2.2,4.09,1.46,876.56,31.16
5064486,-0.05,-0.07,0.97,2.2,4.46,1.28,876.54,31.15
5064524,-0.05,-0.07,0.95,2.14,4.76,1.59,876.55,31.16
5064574,-0.05,-0.07,0.98,2.32,4.58,1.65,876.62,31.15
5064612,-0.05,-0.07,0.99,2.26,4.52,1.65,876.61,31.15
5064650,-0.05,-0.07,0.99,2.14,4.64,1.77,876.59,31.15
5064688,-0.05,-0.07,0.98,2.26,4.7,1.71,876.66,31.15
5064726,-0.05,-0.07,0.99,2.38,4.46,1.83,876.59,31.15
5064765,-0.05,-0.07,0.97,2.44,3.85,1.89,876.71,31.15
5064803,-0.06,-0.06,0.99,2.56,4.15,1.89,876.71,31.16
5064841,-0.05,-0.07,0.95,2.62,4.33,1.83,876.7,31.15
5064879,-0.05,-0.07,0.98,2.69,3.91,2.14,876.75,31.17
5064917,-0.05,-0.07,0.95,2.75,4.09,2.14,876.73,31.16
5064967,-0.04,-0.07,0.97,2.75,3.66,2.2,876.77,31.16
5065005,-0.05,-0.07,0.95,2.69,3.85,2.38,876.77,31.17
5065043,-0.05,-0.07,0.95,2.62,3.66,2.26,876.78,31.15
5065081,-0.04,-0.07,0.95,2.69,3.66,2.26,876.76,31.15
5065119,-0.04,-0.07,0.94,2.5,3.05,2.26,876.79,31.17
5065158,-0.03,-0.07,0.94,2.26,3.11,2.44,876.8,31.16
5065196,-0.04,-0.07,0.93,2.08,3.6,2.26,876.88,31.15
5065234,-0.03,-0.07,0.92,2.2,3.23,2.38,876.87,31.17
5065272,-0.04,-0.07,0.95,2.08,2.99,2.26,876.84,31.16
5065322,-0.05,-0.07,0.95,2.14,2.99,2.32,876.85,31.14
5065360,-0.03,-0.07,0.97,1.95,3.05,2.38,876.91,31.15
5065398,-0.03,-0.07,0.96,1.83,3.05,2.14,876.85,31.17
5065436,-0.04,-0.07,0.96,1.71,2.81,2.38,876.95,31.16
5065474,-0.04,-0.07,0.96,1.65,2.87,2.32,876.92,31.18
5065513,-0.03,-0.07,0.96,1.59,2.81,2.32,876.95,31.16
5065551,-0.04,-0.07,0.97,1.46,2.62,2.08,876.98,31.18
5065589,-0.03,-0.08,0.96,1.34,2.56,2.2,876.93,31.17
5065627,-0.03,-0.07,0.98,1.4,2.56,2.08,876.96,31.17
5065665,-0.03,-0.07,0.96,1.22,2.56,2.08,877.02,31.16
5065715,-0.03,-0.07,0.97,1.46,2.14,1.89,877.01,31.17
5065753,-0.02,-0.07,0.97,1.28,2.32,1.89,877.04,31.17
5065791,-0.03,-0.07,0.98,1.34,2.01,1.83,877.01,31.15
5065829,-0.02,-0.07,0.96,1.22,1.95,1.95,877.03,31.17
5065867,-0.03,-0.06,0.98,1.04,1.71,1.65,877.07,31.17
5065906,-0.04,-0.07,0.98,1.4,1.83,1.65,877.0,31.18
5065944,-0.03,-0.07,1.01,1.34,1.1,1.4,877.05,31.17
5065982,-0.03,-0.07,1.01,1.46,1.28,1.22,877.05,31.17
5066020,-0.04,-0.07,0.98,1.34,1.34,1.28,877.15,31.17
5066058,-0.03,-0.07,0.99,1.4,1.1,1.1,877.08,31.16
5066134,-0.04,-0.08,0.96,1.59,1.77,1.16,877.14,31.13
5066172,-0.04,-0.07,0.97,1.65,2.26,1.04,877.18,31.14
5066210,-0.03,-0.06,0.99,1.53,1.53,0.98,877.16,31.14
5066300,-0.04,-0.06,1.01,1.22,1.04,1.1,877.2,31.12
5066338,-0.04,-0.06,1.04,1.28,0.49,1.16,877.21,31.14
5066376,-0.04,-0.06,1.05,1.34,-0.31,1.1,877.23,31.13
5066414,-0.04,-0.05,1.1,1.4,-0.85,1.22,877.23,31.14
5066452,-0.04,-0.06,1.1,1.22,-0.92,1.22,877.27,31.15
5066490,-0.05,-0.06,1.14,1.16,-1.65,1.22,877.25,31.13
5066540,-0.04,-0.06,1.15,1.53,-0.85,1.22,877.3,31.13
5066578,-0.04,-0.06,1.14,1.59,-0.73,1.34,877.34,31.13
5066616,-0.05,-0.06,1.12,1.95,0.31,1.22,877.31,31.14
5066655,-0.06,-0.05,1.12,2.26,-0.49,1.1,877.36,31.15
5066693,-0.05,-0.07,1.07,2.81,0.24,1.1,877.4,31.15
5066731,-0.04,-0.07,1.08,2.81,0.61,1.04,877.42,31.15
5066769,-0.05,-0.06,1.06,2.99,1.77,0.98,877.41,31.15
5066807,-0.05,-0.06,1.07,2.93,1.1,1.04,877.44,31.15
5066845,-0.04,-0.06,1.08,3.05,1.89,0.92,877.35,31.15
5066883,-0.05,-0.07,1.03,3.11,2.08,1.1,877.4,31.15
5066933,-0.05,-0.06,1.03,2.62,2.81,1.22,877.51,31.14
5066971,-0.06,-0.05,1.02,2.62,2.44,1.16,877.46,31.15
5067010,-0.05,-0.06,1.03,2.44,3.3,1.16,877.48,31.15
5067048,-0.04,-0.07,1.02,2.5,4.03,1.22,877.55,31.15
5067086,-0.07,-0.06,1.03,2.56,4.7,1.28,877.48,31.15
5067124,-0.06,-0.06,0.98,2.56,4.76,1.22,877.53,31.14
5067162,-0.05,-0.05,0.99,2.44,4.82,1.4,877.57,31.15
5067200,-0.04,-0.06,0.96,2.5,5.13,1.28,877.55,31.15
5067239,-0.06,-0.07,0.95,2.2,4.46,1.53,877.52,31.15
5067288,-0.04,-0.07,0.94,2.26,5.19,1.59,877.53,31.14
5067326,-0.05,-0.06,0.95,1.89,4.82,1.77,877.58,31.13
5067365,-0.05,-0.07,0.96,1.71,5.62,1.65,877.56,31.14
5067403,-0.04,-0.07,0.96,1.65,5.68,1.77,877.58,31.13
5067441,-0.05,-0.06,0.98,1.71,6.29,1.89,877.59,31.14
5067479,-0.04,-0.07,0.97,1.77,5.8,1.83,877.63,31.15
5067517,-0.06,-0.06,0.99,1.89,5.55,1.95,877.67,31.15
5067555,-0.05,-0.07,0.97,1.77,6.1,2.2,877.65,31.15
5067593,-0.06,-0.07,0.98,1.95,5.43,2.2,877.71,31.15
5067632,-0.05,-0.06,0.99,1.77,5.07,2.44,877.71,31.15
5067681,-0.05,-0.06,0.97,1.65,4.15,2.5,877.71,31.15
5067720,-0.05,-0.06,0.97,1.59,4.21,2.5,877.75,31.16
5067758,-0.05,-0.07,0.97,1.46,3.85,2.69,877.72,31.16
5067796,-0.05,-0.07,0.98,1.53,3.48,2.75,877.78,31.16
5067834,-0.04,-0.06,0.98,1.59,2.81,2.87,877.72,31.15
5067872,-0.05,-0.06,1.0,1.53,3.78,2.87,877.81,31.16
5067910,-0.05,-0.06,1.01,1.65,3.36,3.05,877.78,31.15
5067948,-0.05,-0.06,1.04,1.53,3.23,2.99,877.81,31.15
5067986,-0.05,-0.05,1.05,1.46,3.78,3.11,877.73,31.15
5068025,-0.05,-0.06,1.08,1.46,3.3,3.3,877.89,31.16
5068074,-0.05,-0.05,1.09,1.34,3.05,3.11,877.76,31.13
5068112,-0.05,-0.06,1.1,1.65,2.99,3.23,877.86,31.16
5068151,-0.04,-0.06,1.11,1.59,2.87,3.36,877.82,31.15
5068189,-0.04,-0.06,1.11,1.95,2.99,3.3,877.87,31.15
5068227,-0.05,-0.05,1.09,1.83,3.11,3.3,877.81,31.16
5068265,-0.04,-0.05,1.1,2.2,3.48,3.3,877.88,31.15
5068303,-0.04,-0.06,1.08,2.26,3.54,3.17,877.93,31.17
5068341,-0.04,-0.06,1.08,2.38,4.15,3.23,877.89,31.16
5068379,-0.05,-0.06,1.06,2.14,4.15,3.23,877.9,31.16
5068429,-0.05,-0.06,1.06,2.56,4.52,3.17,877.92,31.15
5068467,-0.04,-0.07,1.03,2.69,4.52,3.17,877.95,31.15
5068505,-0.06,-0.06,1.02,2.75,4.52,3.23,877.98,31.17
5068543,-0.05,-0.07,1.0,2.62,4.58,3.11,878.0,31.15
5068582,-0.05,-0.06,1.0,2.69,4.46,3.3,878.01,31.16
5068620,-0.04,-0.07,0.95,2.62,4.7,3.42,878.03,31.15
5068658,-0.05,-0.07,0.92,2.56,4.94,3.42,878.02,31.15
5068696,-0.03,-0.08,0.9,2.44,5.07,3.42,878.06,31.15
5068734,-0.05,-0.08,0.85,2.32,4.33,3.6,878.08,31.15
5068772,-0.05,-0.07,0.85,2.44,4.03,3.42,878.05,31.15
5068822,-0.02,-0.08,0.81,2.08,4.27,3.48,878.08,31.14
5068860,-0.03,-0.07,0.81,1.4,3.78,3.54,878.04,31.15
5068898,-0.04,-0.08,0.8,1.59,3.54,3.42,878.06,31.15
5068936,-0.03,-0.08,0.85,1.34,3.23,3.3,878.05,31.15
5068975,-0.02,-0.07,0.9,0.98,4.03,3.36,878.11,31.15
5069013,-0.03,-0.08,0.88,0.98,4.09,3.17,878.11,31.16
5069051,-0.03,-0.07,0.93,0.73,3.78,2.99,878.1,31.15
5069089,-0.02,-0.07,0.95,0.73,4.52,3.11,878.14,31.16
5069127,-0.03,-0.07,0.97,0.79,4.52,2.99,878.17,31.15
5069165,-0.04,-0.07,0.96,0.98,4.94,2.75,878.15,31.14
5069241,-0.03,-0.08,0.96,1.22,5.13,2.75,878.16,31.11
5069279,-0.02,-0.07,0.94,0.92,4.46,2.81,878.17,31.12
5069317,-0.04,-0.07,0.97,1.04,4.82,2.69,878.31,31.14
5069407,-0.04,-0.07,1.01,1.04,4.46,2.56,878.28,31.1
5069445,-0.04,-0.07,1.01,1.04,4.27,2.38,878.26,31.12
5069483,-0.03,-0.07,1.06,1.16,4.27,2.62,878.27,31.11
5069521,-0.03,-0.07,1.07,1.28,4.09,2.44,878.24,31.13
5069559,-0.03,-0.07,1.09,1.34,3.48,2.32,878.28,31.12
5069598,-0.04,-0.06,1.09,1.22,3.72,2.32,878.33,31.13
5069647,-0.04,-0.06,1.11,1.4,3.91,2.32,878.3,31.12
5069685,-0.03,-0.06,1.15,1.59,3.23,2.5,878.36,31.13
5069724,-0.05,-0.06,1.15,1.77,3.11,2.38,878.33,31.13
5069762,-0.05,-0.06,1.16,1.71,2.81,2.62,878.33,31.13
5069800,-0.03,-0.06,1.17,1.89,2.93,2.5,878.4,31.14
5069838,-0.04,-0.06,1.16,1.83,2.93,2.38,878.34,31.14
5069876,-0.03,-0.06,1.18,1.83,3.23,2.5,878.39,31.14
5069914,-0.04,-0.06,1.16,1.89,2.81,2.62,878.39,31.15
5069953,-0.06,-0.06,1.15,1.89,2.69,2.56,878.38,31.13
5069991,-0.04,-0.06,1.15,2.01,2.32,2.62,878.44,31.15
5070040,-0.05,-0.06,1.17,1.89,2.2,2.69,878.43,31.12
5070079,-0.04,-0.06,1.16,2.08,2.32,2.75,878.45,31.13
5070117,-0.05,-0.05,1.18,2.14,2.14,2.87,878.46,31.13
5070155,-0.04,-0.07,1.16,2.2,2.26,2.87,878.47,31.13
5070193,-0.04,-0.05,1.15,2.32,2.14,2.69,878.5,31.14
5070231,-0.05,-0.05,1.14,2.2,2.44,2.69,878.52,31.14
5070269,-0.04,-0.07,1.13,2.08,2.81,2.75,878.51,31.13
5070308,-0.04,-0.07,1.12,2.14,2.99,2.62,878.54,31.14
5070346,-0.04,-0.09,1.08,2.14,2.08,2.69,878.56,31.16
5070384,-0.05,-0.06,1.05,2.26,1.71,2.75,878.55,31.13
5070434,-0.03,-0.06,1.05,1.95,1.28,3.05,878.54,31.14
5070472,-0.03,-0.07,1.05,2.14,0.37,2.81,878.56,31.14
5070510,-0.05,-0.07,1.01,1.95,-0.49,2.87,878.55,31.14
5070548,-0.04,-0.07,1.0,1.89,-0.67,2.99,878.58,31.13
5070586,-0.04,-0.07,0.97,2.01,-0.55,3.11,878.57,31.16
5070625,-0.07,-0.06,0.94,2.01,-1.28,2.99,878.6,31.15
5070663,-0.06,-0.07,0.91,2.2,-1.04,3.11,878.61,31.16
5070701,-0.04,-0.07,0.88,2.14,-0.92,3.05,878.59,31.14
5070739,-0.06,-0.07,0.83,2.08,-0.92,2.99,878.56,31.14
5070789,-0.07,-0.07,0.83,2.2,-0.18,2.99,878.62,31.15
5070827,-0.06,-0.08,0.8,1.83,1.65,2.87,878.62,31.15
5070865,-0.04,-0.07,0.88,2.08,1.71,2.87,878.59,31.14
5070903,-0.06,-0.08,0.84,1.71,4.09,2.81,878.64,31.14
5070941,-0.06,-0.06,0.91,1.71,5.0,2.93,878.64,31.15
5070979,-0.04,-0.07,0.95,2.14,7.45,2.87,878.62,31.14
5071017,-0.04,-0.07,0.98,1.95,6.71,3.11,878.69,31.15
5071056,-0.05,-0.07,1.03,2.08,7.39,3.23,878.68,31.15
5071094,-0.03,-0.07,1.02,1.95,7.51,3.11,878.68,31.15
5071132,-0.03,-0.06,1.06,2.01,6.47,3.3,878.71,31.16
5071182,-0.04,-0.07,1.05,2.2,5.31,3.36,878.69,31.14
5071220,-0.05,-0.07,1.04,2.32,4.39,3.42,878.69,31.15
5071258,-0.03,-0.07,1.01,2.14,4.09,3.48,878.72,31.16
5071296,-0.03,-0.06,1.03,2.08,3.66,3.36,878.72,31.15
5071334,-0.05,-0.07,1.02,2.2,3.85,3.23,878.78,31.16
5071372,-0.04,-0.08,1.01,2.14,4.33,3.17,878.76,31.16
5071410,-0.04,-0.08,1.02,2.32,5.07,3.17,878.8,31.16
5071449,-0.04,-0.07,0.95,2.5,5.13,3.23,878.76,31.15
5071487,-0.06,-0.06,0.92,2.62,5.68,3.17,878.81,31.16
5071525,-0.05,-0.08,0.89,2.81,7.02,3.11,878.8,31.16
5071575,-0.04,-0.08,0.87,2.81,7.39,3.11,878.8,31.13
5071613,-0.03,-0.08,0.83,2.81,8.12,3.36,878.82,31.16
5071651,-0.03,-0.08,0.81,2.38,8.54,3.23,878.82,31.15
5071689,-0.03,-0.08,0.79,2.44,8.24,3.36,878.84,31.15
5071727,-0.03,-0.08,0.78,2.2,7.57,3.42,878.81,31.16
5071765,-0.04,-0.08,0.77,1.83,7.32,3.48,878.85,31.16
5071804,-0.03,-0.08,0.82,1.53,5.86,3.54,878.86,31.15
5071842,-0.03,-0.08,0.84,1.28,5.19,3.48,878.85,31.15
5071880,-0.03,-0.08,0.87,0.79,4.76,3.72,878.84,31.16
5071930,-0.03,-0.08,0.89,0.37,4.58,3.66,878.89,31.14
5071968,-0.03,-0.07,0.93,0.49,3.66,3.48,878.94,31.16
5072006,-0.03,-0.07,0.95,0.24,3.23,3.66,878.93,31.14
5072044,-0.03,-0.07,0.97,0.31,3.17,3.6,878.98,31.16
5072083,-0.03,-0.07,0.99,0.43,2.93,3.6,878.96,31.16
5072121,-0.04,-0.07,1.01,0.24,2.2,3.54,878.9,31.14
5072159,-0.03,-0.07,1.05,0.31,2.08,3.54,878.97,31.13
5072197,-0.02,-0.07,1.05,0.24,1.95,3.42,878.94,31.13
5072235,-0.04,-0.06,1.13,0.67,1.34,3.36,878.98,31.15
5072273,-0.03,-0.07,1.12,0.98,2.32,3.36,878.99,31.15
5072349,-0.04,-0.05,1.12,1.28,3.66,3.05,879.09,31.12
5072387,-0.03,-0.08,0.99,1.53,5.07,2.93,879.07,31.14
5072426,-0.03,-0.07,1.02,2.01,4.39,2.93,879.11,31.13
5072515,-0.02,-0.06,0.89,2.81,6.04,2.75,879.05,31.09
5072553,-0.02,-0.08,0.85,2.99,6.71,2.5,879.04,31.11
5072591,-0.03,-0.08,0.9,2.93,5.43,2.69,879.09,31.12
5072630,-0.03,-0.08,0.95,2.87,5.68,2.75,879.08,31.12
5072668,-0.02,-0.08,0.97,2.69,6.1,2.81,879.11,31.12
5072706,-0.03,-0.07,1.02,2.56,5.98,2.62,879.14,31.12
5072744,-0.02,-0.07,1.02,2.38,5.68,2.81,879.14,31.12
5072794,-0.03,-0.07,1.02,2.56,6.1,2.5,879.11,31.11
5072832,-0.02,-0.07,1.01,2.56,6.23,2.5,879.19,31.12
5072870,-0.03,-0.07,1.03,2.5,5.62,2.62,879.15,31.13
5072908,-0.03,-0.07,1.04,2.5,5.37,2.56,879.18,31.13
5072947,-0.01,-0.07,1.06,2.32,5.43,2.32,879.18,31.12
5072985,-0.01,-0.07,1.06,2.44,5.49,2.56,879.18,31.12
5073023,-0.02,-0.07,1.07,2.62,4.88,2.56,879.27,31.13
5073061,-0.02,-0.07,1.07,2.56,5.62,2.38,879.19,31.13
5073099,-0.02,-0.07,1.06,2.62,5.92,2.26,879.29,31.13
5073149,-0.02,-0.07,1.05,2.56,6.16,2.32,879.26,31.11
5073187,-0.02,-0.07,1.04,2.62,6.65,2.14,879.28,31.13
5073225,-0.02,-0.07,1.02,2.81,7.39,1.95,879.24,31.12
5073264,-0.02,-0.07,1.01,2.93,7.45,1.95,879.3,31.13
5073302,-0.02,-0.08,1.0,2.75,7.75,1.65,879.28,31.14
5073340,-0.02,-0.07,0.99,2.81,7.93,1.59,879.35,31.15
5073378,-0.02,-0.07,0.98,2.69,8.12,1.71,879.33,31.14
5073416,-0.01,-0.07,0.98,2.87,8.48,1.65,879.32,31.15
5073455,-0.02,-0.07,0.97,2.62,8.24,1.53,879.34,31.13
5073493,-0.02,-0.07,0.97,2.5,8.73,1.4,879.38,31.14
5073543,-0.02,-0.08,0.95,2.38,8.36,1.4,879.37,31.13
5073581,-0.03,-0.07,0.96,2.5,8.12,1.28,879.35,31.14
5073619,-0.03,-0.08,0.94,2.62,8.24,1.46,879.37,31.13
5073657,-0.02,-0.07,0.97,2.38,7.81,1.22,879.34,31.12
5073695,-0.02,-0.08,0.93,2.38,8.06,1.28,879.36,31.14
5073734,-0.03,-0.08,0.93,2.14,7.51,1.34,879.37,31.15
5073772,-0.01,-0.08,0.91,1.65,7.57,1.28,879.47,31.15
5073810,-0.02,-0.07,0.93,1.59,6.59,1.34,879.43,31.15
5073848,-0.03,-0.09,0.91,1.59,7.14,1.22,879.4,31.15
5073886,-0.02,-0.08,0.89,1.65,6.23,1.1,879.5,31.15
5073936,-0.01,-0.08,0.97,1.34,5.37,0.98,879.4,31.14
5073974,-0.02,-0.08,0.94,0.73,3.97,1.04,879.51,31.15
5074013,-0.01,-0.07,0.99,0.67,3.91,1.04,879.51,31.15
5074051,-0.01,-0.08,0.95,0.55,2.81,0.79,879.49,31.15
5074089,-0.03,-0.08,0.99,0.37,2.2,0.98,879.56,31.14
5074127,-0.02,-0.08,0.97,0.49,2.2,0.92,879.53,31.14
5074165,-0.02,-0.07,1.01,0.49,1.71,0.85,879.52,31.15
5074203,-0.02,-0.08,1.03,0.37,1.04,0.67,879.54,31.15
5074242,-0.03,-0.07,1.03,0.31,0.49,0.55,879.59,31.15
5074291,-0.02,-0.07,1.06,0.18,1.04,0.37,879.6,31.14
5074330,-0.02,-0.07,1.06,0.24,0.0,0.43,879.58,31.14
5074368,-0.03,-0.07,1.06,0.37,-0.06,0.43,879.59,31.13
5074406,-0.02,-0.08,1.04,0.24,0.12,0.18,879.64,31.13
5074444,-0.03,-0.07,1.04,0.37,-0.12,0.12,879.59,31.13
5074482,-0.02,-0.06,1.07,0.37,-0.49,0.12,879.59,31.14
5074520,-0.03,-0.08,1.04,0.55,0.18,0.0,879.63,31.13
5074559,-0.04,-0.07,1.08,0.85,0.31,-0.12,879.65,31.16
5074597,-0.03,-0.06,1.13,1.04,0.98,-0.18,879.64,31.15
5074635,-0.03,-0.07,1.1,1.28,1.16,-0.18,879.64,31.14
5074685,-0.04,-0.07,1.13,1.28,1.59,-0.43,879.64,31.13
5074723,-0.03,-0.06,1.12,1.46,1.95,-0.55,879.68,31.14
5074761,-0.04,-0.06,1.13,1.53,2.2,-0.43,879.73,31.14
5074799,-0.04,-0.07,1.1,1.83,2.2,-0.43,879.7,31.14
5074837,-0.04,-0.06,1.1,1.83,1.95,-0.43,879.72,31.13
5074875,-0.04,-0.07,1.08,2.01,2.56,-0.43,879.76,31.13
5074914,-0.04,-0.07,1.07,2.14,2.44,-0.43,879.72,31.14
5074952,-0.05,-0.07,1.07,2.32,2.81,-0.49,879.78,31.15
5074990,-0.05,-0.07,1.06,2.5,2.62,-0.49,879.79,31.14
5075040,-0.04,-0.07,1.08,2.62,2.99,-0.49,879.77,31.12
5075078,-0.05,-0.07,1.04,2.44,3.3,-0.37,879.76,31.13
5075116,-0.05,-0.07,1.04,2.5,3.17,-0.37,879.75,31.13
5075154,-0.05,-0.07,0.99,2.56,3.66,-0.37,879.76,31.14
5075192,-0.05,-0.07,1.0,2.38,3.6,-0.31,879.8,31.14
5075230,-0.04,-0.07,0.99,2.32,4.52,-0.24,879.83,31.14
5075269,-0.06,-0.07,0.99,2.32,4.27,-0.18,879.8,31.14
5075307,-0.05,-0.07,0.99,2.2,4.7,-0.24,879.77,31.14
5075345,-0.05,-0.07,1.02,1.89,4.64,-0.18,879.82,31.14
5075383,-0.05,-0.07,1.05,1.89,5.0,-0.06,879.79,31.14
5075459,-0.05,-0.06,1.06,1.83,4.39,0.0,879.85,31.12
5075497,-0.05,-0.07,1.01,1.89,5.0,0.0,879.86,31.13
5075535,-0.05,-0.07,1.02,1.59,4.33,0.31,879.84,31.13
5075625,-0.06,-0.06,1.07,1.53,3.17,0.49,879.83,31.09
5075663,-0.06,-0.06,1.11,1.34,3.3,0.73,879.81,31.11
5075701,-0.06,-0.06,1.14,1.46,2.69,0.79,879.89,31.12
5075739,-0.07,-0.06,1.16,1.46,2.81,0.98,879.86,31.12
5075778,-0.07,-0.07,1.16,1.65,2.5,1.1,879.81,31.12
5075816,-0.06,-0.06,1.15,1.65,3.17,1.16,879.87,31.13
5075866,-0.06,-0.05,1.12,1.95,3.42,1.22,879.9,31.13
5075904,-0.08,-0.06,1.13,2.32,4.15,1.34,879.92,31.12
5075942,-0.06,-0.07,1.1,2.26,4.21,1.65,879.89,31.13
5075980,-0.07,-0.06,1.12,2.2,3.85,1.71,879.87,31.13
5076018,-0.07,-0.07,1.08,2.32,4.58,1.71,879.86,31.14
5076057,-0.06,-0.05,1.09,2.01,3.66,1.83,879.9,31.13
5076095,-0.07,-0.06,1.08,2.26,4.39,2.08,879.91,31.14
5076133,-0.05,-0.07,1.09,2.08,4.09,2.32,879.92,31.14
5076171,-0.06,-0.06,1.11,2.26,3.66,2.32,879.94,31.13
5076209,-0.06,-0.07,1.08,2.14,3.72,2.32,879.93,31.13
5076259,-0.06,-0.06,1.13,2.14,3.54,2.56,879.86,31.11
5076297,-0.05,-0.07,1.1,2.01,3.6,2.69,879.9,31.14
5076336,-0.05,-0.06,1.11,1.71,2.69,2.81,879.89,31.13
5076374,-0.04,-0.06,1.13,2.01,2.87,2.87,879.99,31.12
5076412,-0.02,-0.07,1.09,1.83,2.99,2.93,879.98,31.13
5076450,-0.04,-0.06,1.1,1.89,2.44,2.99,880.01,31.13
5076488,-0.05,-0.08,1.07,1.89,2.32,3.05,879.96,31.12
5076527,-0.04,-0.07,1.07,2.01,2.32,2.81,879.95,31.12
5076565,-0.04,-0.07,1.05,1.95,2.81,2.93,879.95,31.12
5076603,-0.04,-0.07,1.03,2.01,2.81,2.93,880.0,31.13
5076653,-0.04,-0.08,1.02,2.2,3.36,2.87,879.99,31.12
5076691,-0.05,-0.07,0.98,2.26,3.36,2.93,880.04,31.13
5076729,-0.04,-0.08,0.92,2.26,3.54,2.93,879.93,31.12
5076767,-0.04,-0.07,0.91,2.26,3.97,2.69,880.01,31.12
5076806,-0.03,-0.08,0.89,2.26,4.88,2.75,880.01,31.12
5076844,-0.02,-0.07,0.9,2.26,4.94,2.75,879.96,31.12
5076882,-0.04,-0.08,0.86,2.32,4.88,2.44,880.0,31.12
5076920,-0.04,-0.08,0.9,2.08,4.94,2.62,879.96,31.12
5076958,-0.03,-0.08,0.89,1.89,5.49,2.38,880.01,31.12
5077008,-0.03,-0.08,0.92,1.59,4.58,2.5,879.99,31.11
5077046,-0.03,-0.08,0.92,1.4,4.7,2.32,880.09,31.13
5077084,-0.02,-0.08,0.93,1.53,4.52,2.2,880.03,31.12
5077123,-0.04,-0.08,0.93,1.53,4.94,2.14,880.06,31.13
5077161,-0.04,-0.08,0.93,1.34,4.21,2.26,880.06,31.12
5077199,-0.05,-0.08,0.95,1.16,4.58,2.14,880.01,31.12
5077237,-0.02,-0.08,0.95,1.16,4.76,2.01,880.01,31.12
5077275,-0.02,-0.07,1.0,1.1,3.91,2.14,880.01,31.12
5077313,-0.03,-0.08,0.99,0.85,4.15,1.95,880.0,31.12
5077352,-0.03,-0.07,1.04,1.04,3.72,2.01,880.08,31.11
5077401,-0.04,-0.07,1.03,1.34,4.27,1.83,880.05,31.09
5077440,-0.05,-0.07,1.05,1.34,3.85,1.83,880.07,31.11
5077478,-0.04,-0.07,1.05,1.59,4.33,1.83,880.07,31.11
5077516,-0.03,-0.07,1.04,1.65,4.03,1.71,880.1,31.11
5077554,-0.04,-0.07,1.05,1.53,4.39,1.77,880.05,31.11
5077592,-0.02,-0.07,1.05,1.59,4.27,1.71,880.09,31.11
5077630,-0.04,-0.07,1.06,1.71,4.15,1.65,880.19,31.12
5077668,-0.05,-0.07,1.03,1.83,4.27,1.59,880.04,31.11
5077707,-0.03,-0.07,1.03,1.83,3.66,1.65,880.09,31.11
5077745,-0.02,-0.07,1.05,1.89,3.72,1.59,880.1,31.12
5077795,-0.03,-0.08,1.03,2.01,3.54,1.46,880.09,31.1
5077833,-0.03,-0.07,1.05,1.83,3.72,1.46,880.13,31.1
5077871,-0.03,-0.07,1.03,1.95,3.85,1.53,880.06,31.1
5077909,-0.04,-0.07,1.05,2.01,4.03,1.34,880.08,31.12
5077947,-0.03,-0.06,1.04,2.08,4.03,1.34,880.09,31.1
5077985,-0.03,-0.07,1.06,2.08,4.03,1.34,880.1,31.12
5078024,-0.02,-0.07,1.08,2.14,3.66,1.34,880.15,31.11
5078062,-0.04,-0.07,1.07,2.26,3.42,1.34,880.1,31.13
5078100,-0.05,-0.07,1.05,2.38,3.54,1.4,880.15,31.13
5078150,-0.02,-0.08,1.06,2.2,3.36,1.34,880.18,31.1
5078188,-0.05,-0.07,1.03,2.08,3.23,1.22,880.15,31.1
5078226,-0.03,-0.07,1.04,2.08,3.48,1.28,880.1,31.1
5078264,-0.03,-0.07,1.01,2.01,3.66,1.16,880.17,31.11
5078302,-0.03,-0.07,1.02,2.01,3.42,1.04,880.14,31.12
5078340,-0.04,-0.07,1.03,2.01,4.09,1.1,880.16,31.12
5078379,-0.03,-0.07,0.99,1.83,3.85,1.04,880.17,31.12
5078417,-0.03,-0.07,1.03,1.83,3.66,0.85,880.17,31.12
5078455,-0.02,-0.08,1.0,1.83,3.72,0.92,880.18,31.12
5078493,-0.04,-0.07,1.02,1.59,3.05,0.85,880.15,31.13
5078569,-0.03,-0.07,1.0,1.53,2.81,0.92,880.12,31.08
5078607,-0.02,-0.07,1.02,1.65,2.62,0.73,880.19,31.12
5078645,-0.03,-0.07,1.0,1.53,2.69,0.79,880.16,31.11
5078735,-0.03,-0.07,1.0,1.53,2.56,0.73,880.13,31.08
5078773,-0.04,-0.07,1.0,1.34,2.99,0.55,880.16,31.1
5078811,-0.03,-0.07,0.99,1.46,3.11,0.61,880.17,31.1
5078849,-0.02,-0.07,1.02,1.59,2.69,0.61,880.14,31.09
5078887,-0.04,-0.07,1.0,1.4,2.87,0.49,880.19,31.11
5078925,-0.04,-0.07,1.04,1.59,2.56,0.61,880.15,31.1
5078964,-0.03,-0.08,1.03,1.53,3.66,0.61,880.17,31.11
5079014,-0.04,-0.06,1.05,1.71,3.05,0.61,880.17,31.08
5079052,-0.04,-0.07,1.02,1.71,3.36,0.61,880.2,31.12
5079090,-0.03,-0.07,1.01,1.71,3.97,0.49,880.16,31.1
5079128,-0.04,-0.06,1.01,1.77,4.33,0.37,880.16,31.1
5079166,-0.04,-0.07,0.97,2.2,4.52,0.37,880.21,31.1
5079204,-0.04,-0.07,0.95,2.2,4.64,0.31,880.13,31.11
5079242,-0.04,-0.07,0.95,2.32,5.0,0.31,880.15,31.1
5079281,-0.04,-0.08,0.95,2.44,5.0,0.49,880.21,31.12
5079319,-0.04,-0.08,0.93,2.5,5.0,0.49,880.13,31.11
5079368,-0.04,-0.07,0.96,2.2,4.52,0.55,880.19,31.1
5079407,-0.04,-0.08,0.96,2.38,4.64,0.43,880.16,31.11
5079445,-0.04,-0.08,0.99,2.32,4.76,0.55,880.11,31.12
5079483,-0.05,-0.07,1.0,2.2,4.64,0.67,880.22,31.1
5079521,-0.04,-0.07,1.02,2.01,4.64,0.73,880.19,31.12
5079559,-0.04,-0.07,1.03,1.89,4.64,0.67,880.14,31.12
5079597,-0.05,-0.06,1.08,2.01,4.15,0.85,880.16,31.12
5079635,-0.05,-0.07,1.04,2.08,4.27,1.04,880.15,31.12
5079674,-0.05,-0.07,1.04,1.95,3.85,1.04,880.17,31.12
5079712,-0.06,-0.06,1.05,2.14,4.46,0.98,880.2,31.12
5079762,-0.05,-0.06,1.01,2.2,4.46,1.1,880.21,31.1
5079800,-0.06,-0.06,1.01,2.44,4.7,1.22,880.2,31.11
5079838,-0.06,-0.08,0.96,2.32,4.7,1.28,880.12,31.11
5079876,-0.05,-0.07,1.0,2.32,4.64,1.16,880.2,31.12
5079914,-0.05,-0.07,0.97,2.26,5.25,1.28,880.19,31.12
5079952,-0.05,-0.07,0.97,2.2,4.52,1.46,880.14,31.11
5079990,-0.06,-0.07,0.97,2.01,4.76,1.53,880.15,31.13
5080029,-0.05,-0.08,0.97,2.14,4.27,1.59,880.19,31.12
5080067,-0.05,-0.07,0.99,1.95,4.52,1.65,880.17,31.12
5080105,-0.05,-0.07,0.97,2.26,4.15,1.71,880.22,31.13
5080155,-0.05,-0.07,0.96,2.01,4.09,1.83,880.23,31.11
5080193,-0.06,-0.07,0.95,2.08,3.54,1.83,880.16,31.12
5080231,-0.05,-0.07,0.94,2.26,3.23,2.01,880.25,31.12
5080269,-0.05,-0.07,0.91,2.14,3.72,2.08,880.18,31.12
5080307,-0.05,-0.08,0.9,2.2,3.72,2.2,880.26,31.12
5080345,-0.06,-0.08,0.85,1.89,4.27,2.32,880.16,31.13
5080383,-0.03,-0.07,0.87,2.08,4.21,2.2,880.15,31.12
5080422,-0.04,-0.08,0.85,1.89,4.58,2.2,880.12,31.11
5080460,-0.05,-0.08,0.85,1.71,4.27,2.14,880.25,31.12
5080509,-0.04,-0.08,0.86,1.83,4.52,2.26,880.24,31.1
5080548,-0.03,-0.09,0.86,1.71,4.46,2.08,880.19,31.11
5080586,-0.05,-0.07,0.87,1.65,4.46,2.2,880.27,31.11
5080624,-0.03,-0.07,0.87,1.53,4.21,2.26,880.25,31.12
5080662,-0.03,-0.07,0.88,1.4,3.72,2.26,880.18,31.12
5080700,-0.04,-0.08,0.87,1.53,3.48,2.26,880.2,31.11
5080738,-0.05,-0.08,0.87,1.22,3.3,2.44,880.25,31.11
5080776,-0.04,-0.08,0.87,1.1,3.23,2.32,880.24,31.13
5080814,-0.03,-0.07,0.91,0.92,3.36,2.14,880.27,31.12
5080853,-0.04,-0.08,0.93,0.98,3.48,2.32,880.17,31.11
5080902,-0.04,-0.07,0.97,1.04,3.42,2.26,880.18,31.1
5080940,-0.04,-0.07,0.99,0.98,3.42,2.26,880.27,31.12
5080979,-0.04,-0.07,1.01,1.04,3.42,2.14,880.22,31.1
5081017,-0.03,-0.07,1.0,1.04,3.42,2.14,880.28,31.1
5081055,-0.04,-0.07,0.98,1.22,3.05,2.14,880.3,31.11
5081093,-0.04,-0.07,0.97,1.46,3.6,2.08,880.37,31.11
5081131,-0.03,-0.07,0.96,1.71,3.05,2.14,880.26,31.12
5081169,-0.03,-0.07,0.97,1.53,2.99,2.01,880.27,31.12
5081207,-0.04,-0.07,0.96,1.65,3.42,1.95,880.3,31.12
5081245,-0.04,-0.07,0.99,1.71,3.6,2.08,880.25,31.11
5081295,-0.02,-0.07,0.99,1.83,3.91,1.89,880.32,31.1
5081333,-0.04,-0.07,0.99,1.77,3.48,1.95,880.34,31.1
5081371,-0.04,-0.07,0.98,2.01,3.66,1.83,880.31,31.1
5081410,-0.03,-0.07,0.97,2.01,3.36,2.08,880.3,31.11
5081448,-0.04,-0.07,0.96,1.65,3.17,1.95,880.33,31.12
5081486,-0.04,-0.07,0.95,1.95,2.87,1.95,880.34,31.1
5081524,-0.04,-0.07,0.96,1.77,3.11,1.77,880.34,31.1
5081562,-0.04,-0.07,0.94,1.65,2.93,1.95,880.33,31.11
5081600,-0.03,-0.07,0.96,1.83,2.93,1.89,880.35,31.1
5081750,-0.04,-0.06,0.93,2.08,3.23,1.71,880.29,31.05
5081788,-0.03,-0.07,0.93,2.14,3.78,1.71,880.35,31.06
5081826,-0.03,-0.07,0.92,2.08,3.78,1.53,880.34,31.07
5081916,-0.03,-0.07,0.93,2.14,3.78,1.65,880.35,31.04
5081954,-0.04,-0.07,0.92,2.2,4.09,1.53,880.37,31.06
5081992,-0.03,-0.07,0.93,2.2,3.85,1.59,880.34,31.06
5082030,-0.04,-0.07,0.93,2.14,4.15,1.4,880.32,31.08
5082068,-0.04,-0.07,0.92,2.26,3.91,1.4,880.41,31.08
5082106,-0.03,-0.07,0.93,2.26,3.97,1.34,880.37,31.09
5082144,-0.04,-0.07,0.91,2.14,3.72,1.34,880.45,31.08
5082194,-0.02,-0.07,0.92,2.2,3.78,1.22,880.39,31.07
5082232,-0.04,-0.07,0.92,2.14,3.42,1.1,880.41,31.08
5082270,-0.04,-0.07,0.92,2.2,3.54,1.22,880.43,31.08
5082309,-0.03,-0.07,0.92,2.2,3.54,1.16,880.46,31.08
5082347,-0.03,-0.07,0.95,2.14,2.93,1.22,880.44,31.09
5082385,-0.02,-0.07,0.95,2.08,2.99,1.1,880.45,31.08
5082423,-0.03,-0.07,0.93,1.95,2.93,1.1,880.44,31.08
5082461,-0.03,-0.07,0.94,1.95,2.87,0.98,880.42,31.06
5082499,-0.03,-0.07,0.95,1.77,2.93,0.85,880.41,31.07
5082537,-0.03,-0.07,0.96,1.65,2.81,1.04,880.44,31.08
5082587,-0.03,-0.07,0.95,1.77,2.99,0.73,880.48,31.07
5082625,-0.04,-0.07,0.96,1.95,2.81,0.79,880.43,31.07
5082664,-0.04,-0.07,0.96,1.89,2.81,0.85,880.5,31.07
5082702,-0.04,-0.06,0.97,1.95,2.69,0.73,880.49,31.08
5082740,-0.04,-0.07,0.97,1.83,3.17,0.79,880.45,31.08
5082778,-0.04,-0.07,0.98,2.01,2.99,0.73,880.44,31.07
5082816,-0.04,-0.07,0.97,2.01,2.81,0.73,880.45,31.08
5082854,-0.04,-0.07,0.97,2.01,3.05,0.55,880.48,31.1
5082892,-0.03,-0.06,0.98,2.01,3.23,0.61,880.5,31.08
5082942,-0.04,-0.07,0.99,2.32,3.23,0.61,880.49,31.07
5082980,-0.04,-0.06,1.0,2.26,2.75,0.73,880.53,31.08
5083018,-0.03,-0.06,1.0,2.38,2.62,0.55,880.51,31.08
5083057,-0.04,-0.06,0.99,2.69,2.99,0.67,880.55,31.09
5083095,-0.04,-0.07,0.98,2.81,3.05,0.73,880.49,31.1
5083133,-0.04,-0.07,0.98,3.17,3.17,0.73,880.59,31.1
5083171,-0.04,-0.06,0.98,3.36,2.87,0.61,880.54,31.09
5083209,-0.02,-0.07,0.95,3.36,3.3,0.61,880.57,31.1
5083247,-0.04,-0.07,0.97,3.48,3.36,0.55,880.55,31.1
5083285,-0.04,-0.07,0.93,3.54,3.6,0.49,880.6,31.11
5083335,-0.03,-0.06,0.95,3.6,3.11,0.61,880.66,31.09
5083373,-0.05,-0.07,0.91,3.54,3.54,0.61,880.62,31.09
5083412,-0.04,-0.07,0.92,3.42,2.93,0.55,880.61,31.12
5083450,-0.03,-0.07,0.9,3.54,3.17,0.43,880.66,31.1
5083488,-0.03,-0.07,0.9,3.42,2.5,0.49,880.59,31.12
5083526,-0.04,-0.07,0.93,3.3,2.81,0.55,880.67,31.1
5083564,-0.03,-0.07,0.89,3.48,2.87,0.49,880.62,31.11
5083602,-0.05,-0.06,0.92,3.48,2.56,0.43,880.68,31.1
5083640,-0.04,-0.07,0.89,3.23,2.93,0.55,880.64,31.12
5083678,-0.04,-0.07,0.9,2.99,3.23,0.49,880.62,31.11
5083728,-0.04,-0.06,0.92,3.17,3.23,0.49,880.67,31.11
5083766,-0.05,-0.06,0.92,3.05,3.54,0.49,880.71,31.11
5083804,-0.05,-0.07,0.92,2.81,3.91,0.43,880.63,31.11
5083842,-0.04,-0.07,0.94,2.81,4.03,0.55,880.65,31.09
5083880,-0.05,-0.07,0.94,2.87,4.21,0.37,880.68,31.1
5083919,-0.05,-0.06,0.92,2.93,4.27,0.55,880.73,31.11
5083957,-0.04,-0.06,0.94,2.87,4.46,0.49,880.69,31.12
5083995,-0.05,-0.06,0.92,2.87,4.52,0.49,880.72,31.11
5084033,-0.05,-0.07,0.95,2.81,4.09,0.55,880.73,31.12
5084083,-0.03,-0.07,0.93,2.75,4.52,0.61,880.77,31.12
5084121,-0.04,-0.06,0.93,2.62,3.85,0.73,880.79,31.12
5084159,-0.04,-0.06,0.91,2.81,3.66,0.73,880.74,31.12
5084197,-0.05,-0.07,0.9,2.93,3.23,0.79,880.79,31.1
5084235,-0.04,-0.06,0.9,2.75,2.99,0.67,880.8,31.11
5084273,-0.05,-0.07,0.87,2.93,2.69,0.85,880.76,31.1
5084312,-0.05,-0.06,0.88,3.05,2.62,0.85,880.81,31.11
5084350,-0.04,-0.07,0.88,2.69,2.87,0.85,880.79,31.11
5084388,-0.04,-0.07,0.89,2.56,2.56,0.85,880.79,31.1
5084426,-0.05,-0.06,0.9,2.5,2.56,0.92,880.8,31.11
5084476,-0.06,-0.07,0.89,2.56,2.93,0.92,880.86,31.1
5084514,-0.05,-0.06,0.9,2.5,2.75,1.04,880.79,31.1
5084552,-0.05,-0.06,0.89,2.44,3.05,0.98,880.84,31.11
5084590,-0.05,-0.07,0.88,2.26,2.87,1.1,880.83,31.1
5084628,-0.04,-0.06,0.9,2.2,2.87,1.28,880.84,31.11
5084666,-0.05,-0.07,0.89,2.14,2.69,1.4,880.9,31.11
5084705,-0.06,-0.07,0.89,1.89,2.75,1.53,880.91,31.1
5084743,-0.06,-0.06,0.89,1.89,2.56,1.4,880.89,31.09
5084781,-0.05,-0.07,0.9,1.65,2.5,1.53,880.9,31.11
5084819,-0.05,-0.06,0.91,1.22,2.32,1.59,880.92,31.11
5084895,-0.04,-0.07,0.95,1.16,2.87,1.77,880.88,31.06
5084933,-0.05,-0.06,0.96,1.04,2.81,1.83,880.96,31.08
5084971,-0.05,-0.06,0.96,0.92,2.62,1.83,880.95,31.09
5085060,-0.04,-0.06,0.97,0.79,2.38,1.95,880.92,31.05
5085099,-0.04,-0.06,0.98,0.79,2.2,2.14,880.96,31.05
5085137,-0.04,-0.06,0.99,0.73,2.38,2.26,881.0,31.06
5085175,-0.04,-0.06,0.99,0.61,2.2,2.26,881.02,31.06
5085213,-0.05,-0.06,1.01,0.79,2.32,2.2,881.02,31.07
5085251,-0.04,-0.06,1.01,0.79,2.26,2.26,881.0,31.07
5085301,-0.05,-0.06,1.02,0.73,2.08,2.38,881.12,31.06
5085339,-0.05,-0.06,1.02,0.79,2.26,2.38,881.04,31.07
5085377,-0.04,-0.06,1.04,0.92,2.01,2.44,881.05,31.08
5085415,-0.04,-0.06,1.04,0.73,1.95,2.44,881.05,31.07
5085453,-0.04,-0.06,1.04,0.92,1.71,2.5,881.09,31.09
5085492,-0.04,-0.06,1.04,0.98,2.26,2.32,881.09,31.08
5085530,-0.04,-0.05,1.05,1.04,1.95,2.5,881.15,31.1
5085568,-0.04,-0.06,1.03,1.1,1.77,2.56,881.14,31.1
5085606,-0.05,-0.06,1.06,1.22,1.89,2.44,881.15,31.09
5085644,-0.04,-0.06,1.06,1.22,1.83,2.38,881.18,31.1
5085694,-0.04,-0.06,1.05,1.46,1.59,2.38,881.15,31.09
5085732,-0.04,-0.05,1.06,1.59,1.4,2.32,881.19,31.09
5085770,-0.03,-0.06,1.05,1.59,1.53,2.44,881.21,31.09
5085808,-0.04,-0.06,1.04,1.59,1.16,2.38,881.23,31.08
5085846,-0.05,-0.07,1.01,1.83,1.34,2.44,881.21,31.09
5085885,-0.04,-0.06,1.03,1.95,1.28,2.44,881.25,31.1
5085923,-0.04,-0.06,1.0,1.95,1.34,2.44,881.24,31.09
5085961,-0.04,-0.06,0.99,2.08,1.46,2.32,881.24,31.09
5085999,-0.04,-0.07,0.99,2.08,1.89,2.5,881.28,31.11
5086037,-0.04,-0.06,1.0,1.95,2.01,2.26,881.31,31.1
5086087,-0.05,-0.06,1.0,2.14,2.69,2.38,881.29,31.09
5086125,-0.04,-0.07,1.01,2.26,3.17,2.14,881.28,31.09
5086163,-0.04,-0.06,1.02,2.2,3.85,2.14,881.3,31.08
5086201,-0.03,-0.06,1.03,2.32,4.33,2.26,881.31,31.09
5086239,-0.04,-0.06,1.01,2.62,5.07,2.32,881.35,31.1
5086278,-0.05,-0.07,0.99,2.69,5.43,2.38,881.31,31.1
5086316,-0.04,-0.06,0.98,2.69,5.25,2.38,881.31,31.09
5086354,-0.04,-0.06,0.96,2.44,5.07,2.38,881.34,31.09
5086392,-0.04,-0.07,0.95,2.56,5.19,2.56,881.41,31.1
5086442,-0.04,-0.06,0.96,2.69,4.64,2.44,881.41,31.08
5086480,-0.04,-0.07,0.95,2.5,4.46,2.44,881.38,31.08
5086518,-0.03,-0.07,0.96,2.44,4.52,2.56,881.41,31.09
5086556,-0.04,-0.07,0.95,2.44,4.52,2.56,881.37,31.1
5086594,-0.04,-0.07,0.94,2.32,4.46,2.56,881.46,31.1
5086632,-0.04,-0.06,0.95,2.14,4.33,2.44,881.45,31.1
5086671,-0.03,-0.07,0.92,2.26,4.58,2.62,881.43,31.09
5086709,-0.04,-0.06,0.93,2.2,4.09,2.75,881.43,31.08
5086747,-0.04,-0.06,0.93,2.2,4.33,2.81,881.49,31.08
5086785,-0.03,-0.07,0.92,2.14,4.03,2.75,881.48,31.09
5086835,-0.04,-0.07,0.93,2.01,3.72,2.75,881.44,31.07
5086873,-0.03,-0.07,0.94,1.89,3.11,2.56,881.55,31.07
5086911,-0.04,-0.07,0.92,2.08,3.42,2.75,881.5,31.09
5086949,-0.04,-0.07,0.91,2.08,3.17,2.81,881.54,31.09
5086987,-0.04,-0.06,0.93,2.14,2.93,2.69,881.51,31.08
5087025,-0.03,-0.07,0.91,1.83,3.11,2.81,881.65,31.1
5087064,-0.03,-0.06,0.94,1.89,2.87,2.75,881.5,31.09
5087102,-0.03,-0.07,0.93,1.65,3.23,2.81,881.54,31.09
5087140,-0.03,-0.06,0.95,1.53,3.05,2.93,881.62,31.1
5087190,-0.04,-0.07,0.95,1.83,3.3,2.75,881.58,31.08
5087228,-0.03,-0.07,0.95,1.65,3.17,2.62,881.61,31.08
5087266,-0.03,-0.07,0.96,1.71,3.17,2.87,881.62,31.09
5087304,-0.03,-0.06,0.97,1.83,3.11,2.62,881.57,31.06
5087342,-0.03,-0.06,0.96,1.71,3.05,2.56,881.65,31.07
5087380,-0.03,-0.06,0.97,1.71,3.17,2.5,881.63,31.08
5087418,-0.03,-0.07,0.97,1.89,3.42,2.75,881.65,31.08
5087456,-0.04,-0.06,0.98,2.01,3.23,2.5,881.7,31.1
5087495,-0.04,-0.06,0.96,1.77,3.36,2.38,881.71,31.09
5087533,-0.04,-0.07,0.97,1.95,3.36,2.44,881.71,31.09
5087582,-0.03,-0.07,0.96,2.01,3.54,2.44,881.75,31.08
5087621,-0.03,-0.06,0.97,2.2,3.36,2.44,881.73,31.07
5087659,-0.04,-0.06,0.97,1.89,3.17,2.56,881.76,31.09
5087697,-0.03,-0.06,0.95,2.08,3.3,2.38,881.7,31.06
5087735,-0.03,-0.06,0.96,2.2,3.3,2.26,881.76,31.07
5087773,-0.03,-0.07,0.96,2.26,3.36,2.44,881.8,31.07
5087811,-0.03,-0.07,0.97,2.38,3.3,2.14,881.84,31.09
5087849,-0.03,-0.07,0.98,2.38,3.6,2.38,881.8,31.07
5087887,-0.03,-0.06,0.97,2.32,3.36,2.2,881.79,31.09
5087926,-0.04,-0.06,0.98,2.2,3.17,2.26,881.81,31.09
5088001,-0.03,-0.06,0.99,2.26,3.42,1.89,881.92,31.05
5088039,-0.03,-0.07,0.99,2.14,3.48,2.08,881.84,31.08
5088078,-0.04,-0.06,0.98,2.26,3.23,1.95,881.84,31.07
5088167,-0.03,-0.07,0.97,2.32,4.09,1.71,881.86,31.04
5088205,-0.03,-0.06,0.97,2.32,4.15,1.77,881.96,31.05
5088243,-0.03,-0.06,0.96,2.38,4.64,1.71,881.97,31.06
5088281,-0.03,-0.06,0.97,2.26,4.88,1.59,881.91,31.05
5088320,-0.02,-0.07,0.97,2.38,4.52,1.4,881.96,31.06
5088358,-0.03,-0.06,0.97,2.32,4.7,1.53,881.93,31.05
5088407,-0.05,-0.07,0.94,2.44,5.25,1.46,881.94,31.04
5088446,-0.03,-0.06,0.95,2.26,5.25,1.22,881.99,31.06
5088484,-0.03,-0.07,0.93,2.32,5.43,1.4,882.07,31.06
5088522,-0.04,-0.07,0.9,2.38,5.49,1.4,882.06,31.06
5088560,-0.03,-0.06,0.93,2.32,5.31,1.28,882.03,31.05
5088598,-0.03,-0.07,0.94,2.26,5.37,1.28,882.06,31.06
5088636,-0.04,-0.06,0.94,2.26,4.88,1.4,882.07,31.05
5088674,-0.04,-0.07,0.94,2.32,5.37,1.22,882.07,31.07
5088713,-0.03,-0.07,0.97,2.26,4.94,1.28,882.08,31.06
5088751,-0.03,-0.07,0.96,2.14,5.0,1.28,882.05,31.06
5088800,-0.04,-0.07,0.94,2.2,4.7,1.46,882.1,31.06
5088839,-0.03,-0.07,0.94,2.01,5.19,1.28,882.12,31.06
5088877,-0.03,-0.07,0.93,1.95,4.82,1.28,882.12,31.06
5088915,-0.03,-0.07,0.91,1.95,5.13,1.28,882.14,31.07
5088953,-0.03,-0.07,0.9,1.77,4.94,1.34,882.19,31.06
5088991,-0.04,-0.07,0.91,1.83,4.94,1.28,882.2,31.07
5089029,-0.04,-0.07,0.91,1.71,4.82,1.16,882.18,31.07
5089068,-0.03,-0.06,0.96,1.53,4.58,1.4,882.2,31.07
5089106,-0.03,-0.07,0.95,1.46,4.33,1.28,882.17,31.07
5089144,-0.03,-0.06,0.98,1.34,3.78,1.34,882.24,31.07
5089194,-0.04,-0.07,0.99,1.34,3.54,1.53,882.26,31.07
5089232,-0.05,-0.07,1.0,1.16,3.42,1.4,882.27,31.06
5089270,-0.04,-0.06,1.02,1.28,3.85,1.65,882.3,31.08
5089308,-0.04,-0.06,1.04,1.53,3.48,1.59,882.37,31.08
5089346,-0.04,-0.07,1.04,1.59,3.54,1.4,882.26,31.09
5089384,-0.04,-0.06,1.05,1.59,3.23,1.34,882.31,31.08
5089422,-0.05,-0.06,1.05,1.89,3.48,1.46,882.33,31.07
5089461,-0.05,-0.06,1.04,2.01,3.91,1.59,882.38,31.07
5089499,-0.04,-0.06,1.04,2.08,3.6,1.83,882.31,31.08
5089548,-0.04,-0.06,1.04,2.14,4.03,1.89,882.34,31.05
5089587,-0.04,-0.06,1.06,1.95,3.6,1.71,882.37,31.06
5089625,-0.04,-0.06,1.06,1.95,3.3,1.83,882.41,31.06
5089663,-0.03,-0.07,1.02,1.77,3.42,1.83,882.42,31.07
5089701,-0.04,-0.06,1.02,1.77,2.93,1.95,882.43,31.08
5089739,-0.04,-0.06,1.04,1.95,2.75,1.89,882.43,31.08
5089777,-0.04,-0.07,1.0,1.77,3.36,1.95,882.45,31.07
5089815,-0.04,-0.06,1.03,1.53,3.11,1.95,882.47,31.08
5089853,-0.04,-0.07,1.02,1.65,3.3,1.89,882.47,31.08
5089892,-0.04,-0.06,1.05,1.59,2.93,2.08,882.41,31.07
5089941,-0.04,-0.06,1.07,1.59,3.23,2.01,882.48,31.06
5089979,-0.03,-0.06,1.06,1.46,3.85,1.83,882.53,31.07
5090018,-0.03,-0.06,1.05,1.59,3.6,1.77,882.56,31.08
5090056,-0.02,-0.06,1.06,1.71,3.72,1.83,882.55,31.08
5090094,-0.02,-0.07,1.03,1.65,4.03,1.77,882.54,31.07
5090132,-0.04,-0.06,1.02,1.65,4.15,1.77,882.53,31.08
5090170,-0.03,-0.06,1.04,1.65,3.36,1.83,882.58,31.08
5090208,-0.03,-0.07,1.04,1.65,3.54,1.71,882.6,31.08
5090246,-0.02,-0.07,1.03,1.77,3.54,1.53,882.69,31.09
5090284,-0.04,-0.06,1.03,1.89,3.91,1.59,882.67,31.08
5090334,-0.04,-0.07,1.01,1.89,4.21,1.71,882.64,31.06
5090372,-0.03,-0.07,1.02,1.89,3.66,1.59,882.63,31.06
5090410,-0.03,-0.06,1.03,2.01,3.6,1.59,882.62,31.08
5090448,-0.03,-0.06,1.02,1.89,3.78,1.4,882.65,31.07
5090487,-0.02,-0.06,1.06,1.89,3.6,1.71,882.65,31.07
5090525,-0.02,-0.07,1.06,1.95,4.15,1.53,882.73,31.09
5090563,-0.03,-0.06,1.06,1.83,3.97,1.22,882.7,31.07
5090601,-0.03,-0.05,1.07,1.89,4.21,1.46,882.71,31.07
5090639,-0.01,-0.07,1.02,1.89,4.15,1.28,882.7,31.08
5090689,-0.02,-0.06,1.01,2.08,4.03,1.1,882.75,31.06
5090727,-0.03,-0.07,0.97,2.14,4.39,0.98,882.74,31.06
5090765,-0.03,-0.06,0.98,2.26,4.39,0.85,882.77,31.07
5090803,-0.02,-0.07,0.94,2.14,4.52,0.98,882.72,31.06
5090841,-0.03,-0.07,0.93,2.08,4.33,0.92,882.79,31.08
5090880,-0.04,-0.07,0.94,2.01,4.58,0.92,882.83,31.07
5090918,-0.03,-0.07,0.95,2.01,4.46,0.85,882.8,31.07
5090956,-0.02,-0.07,0.95,1.95,4.76,0.73,882.86,31.08
5090994,-0.04,-0.07,0.93,1.95,5.43,0.92,882.78,31.06
5091032,-0.03,-0.07,0.93,1.83,5.25,0.67,882.85,31.08
5091108,-0.03,-0.07,0.92,1.83,5.37,0.73,882.83,31.05
5091146,-0.03,-0.07,0.94,1.71,5.8,0.61,882.84,31.05
5091184,-0.03,-0.07,0.97,1.59,5.62,0.55,882.84,31.05
5091274,-0.04,-0.07,1.01,1.34,6.53,0.73,882.93,31.03
5091312,-0.03,-0.05,1.08,1.46,5.92,0.61,882.92,31.04
5091350,-0.02,-0.05,1.08,1.65,5.86,0.61,882.91,31.05
5091388,-0.02,-0.06,1.05,1.65,5.19,0.73,882.92,31.03
5091426,-0.04,-0.05,1.07,1.71,5.8,0.67,882.9,31.05
5091464,-0.04,-0.06,1.04,1.59,5.86,0.73,882.97,31.05
5091502,-0.02,-0.05,1.11,1.71,5.25,0.85,883.01,31.06
5091552,-0.03,-0.06,1.09,1.71,5.07,0.61,883.0,31.05
5091590,-0.04,-0.05,1.1,1.77,4.09,0.73,883.01,31.05
5091628,-0.03,-0.05,1.06,1.95,4.09,0.67,882.96,31.04
5091667,-0.02,-0.06,1.08,1.83,3.97,0.61,883.01,31.05
5091705,-0.04,-0.06,1.06,2.01,4.15,0.73,883.1,31.07
5091743,-0.05,-0.06,1.06,2.01,4.33,0.85,883.05,31.06
5091781,-0.02,-0.07,1.02,2.01,4.58,0.61,883.08,31.06
5091819,-0.02,-0.05,1.05,1.83,4.52,0.55,883.07,31.06
5091857,-0.02,-0.06,1.02,2.08,4.64,0.79,883.01,31.06
5091907,-0.03,-0.06,1.05,1.95,4.82,0.67,883.06,31.05
5091945,-0.04,-0.07,1.03,2.01,4.88,0.43,883.09,31.06
5091983,-0.04,-0.06,1.05,1.89,4.27,0.67,883.09,31.06
5092021,-0.04,-0.06,1.03,1.89,4.46,0.43,883.09,31.05
5092060,-0.03,-0.06,1.04,1.95,3.85,0.49,883.1,31.06
5092098,-0.03,-0.06,1.04,1.95,4.82,0.55,883.16,31.08
5092136,-0.04,-0.06,1.05,2.01,4.52,0.61,883.14,31.07
5092174,-0.05,-0.06,1.03,2.14,5.31,0.55,883.16,31.05
5092212,-0.04,-0.05,1.05,2.2,4.52,0.79,883.16,31.05
5092250,-0.04,-0.06,1.04,1.83,4.21,0.61,883.21,31.06
5092300,-0.04,-0.06,1.01,1.77,4.09,0.73,883.2,31.04
5092338,-0.04,-0.05,1.02,1.83,4.21,0.79,883.26,31.07
5092376,-0.04,-0.06,0.99,1.77,4.39,0.67,883.18,31.06
5092414,-0.03,-0.06,1.0,1.65,4.27,0.73,883.18,31.06
5092453,-0.04,-0.06,0.99,1.59,4.76,0.85,883.22,31.06
5092491,-0.03,-0.06,0.99,1.46,4.33,0.79,883.27,31.06
5092529,-0.03,-0.06,1.01,1.34,4.39,0.73,883.23,31.07
5092567,-0.04,-0.07,0.99,1.16,4.52,0.67,883.21,31.05
5092605,-0.03,-0.06,1.01,1.1,4.03,0.85,883.25,31.06
5092643,-0.03,-0.06,1.01,0.98,3.91,0.79,883.22,31.07
5092693,-0.04,-0.06,1.01,0.92,3.91,0.67,883.28,31.06
5092731,-0.03,-0.06,1.01,0.85,4.15,0.98,883.22,31.06
5092769,-0.03,-0.06,1.01,0.79,4.03,0.79,883.28,31.06
5092807,-0.03,-0.06,1.0,0.73,4.03,0.79,883.3,31.06
5092845,-0.03,-0.03,1.02,0.92,3.72,0.85,883.32,31.06
5092883,-0.03,-0.07,1.02,1.16,3.91,0.92,883.33,31.08
5092922,-0.02,-0.06,1.02,1.04,3.78,0.85,883.36,31.08
5092960,-0.03,-0.05,1.02,1.04,3.66,0.98,883.34,31.07
5092998,-0.05,-0.07,1.01,0.98,3.85,0.79,883.33,31.07
5093048,-0.04,-0.06,1.05,0.67,3.91,0.79,883.3,31.05
5093086,-0.03,-0.06,1.05,0.85,4.33,0.79,883.37,31.06
5093124,-0.03,-0.06,1.04,0.92,4.52,0.73,883.37,31.08
5093162,-0.03,-0.06,1.06,0.79,5.0,0.61,883.37,31.07
5093200,-0.03,-0.06,1.05,0.92,5.07,0.49,883.35,31.07
5093239,-0.03,-0.06,1.07,0.98,5.19,0.61,883.43,31.08
5093277,-0.04,-0.05,1.06,1.1,5.43,0.67,883.44,31.08
5093315,-0.04,-0.06,1.06,1.34,5.31,0.67,883.39,31.07
5093353,-0.03,-0.06,1.06,1.34,5.07,0.61,883.41,31.09
5093391,-0.04,-0.05,1.07,1.34,5.13,0.55,883.44,31.08
5093441,-0.03,-0.05,1.06,1.34,5.13,0.61,883.42,31.06
5093479,-0.03,-0.06,1.07,1.46,5.19,0.61,883.44,31.06
5093517,-0.04,-0.05,1.07,1.65,5.19,0.67,883.49,31.08
5093555,-0.04,-0.05,1.07,1.71,5.19,0.61,883.48,31.07
5093594,-0.03,-0.06,1.06,2.01,5.37,0.49,883.52,31.08
5093632,-0.04,-0.05,1.06,1.89,5.07,0.67,883.45,31.07
5093670,-0.03,-0.06,1.06,2.01,5.0,0.67,883.47,31.08
5093708,-0.04,-0.06,1.05,2.32,5.07,0.85,883.56,31.08
5093746,-0.03,-0.05,1.04,2.32,4.88,0.61,883.47,31.08
5093784,-0.03,-0.06,1.02,2.32,4.82,0.73,883.5,31.07
5093834,-0.03,-0.05,1.02,2.32,4.64,0.55,883.53,31.07
5093872,-0.03,-0.06,1.02,2.62,4.58,0.67,883.47,31.07
5093910,-0.03,-0.06,1.01,2.38,4.21,0.61,883.48,31.07
5093948,-0.04,-0.06,1.01,2.44,3.91,0.79,883.51,31.08
5093986,-0.03,-0.06,1.01,2.38,3.91,0.67,883.51,31.09
5094025,-0.03,-0.06,1.02,2.26,3.85,0.67,883.54,31.09
5094063,-0.04,-0.05,1.01,2.32,3.3,0.61,883.5,31.08
5094101,-0.04,-0.06,1.01,2.2,3.42,0.73,883.52,31.08
5094139,-0.04,-0.06,1.02,2.01,3.17,0.61,883.56,31.08
5094215,-0.03,-0.06,1.01,2.32,2.93,0.61,883.6,31.05
5094253,-0.04,-0.06,1.0,2.32,3.11,0.67,883.6,31.06
5094291,-0.04,-0.06,1.01,2.32,3.05,0.73,883.56,31.06
5094381,-0.04,-0.05,0.99,2.2,3.23,0.85,883.57,31.03
5094419,-0.04,-0.06,0.99,2.26,3.17,0.67,883.55,31.03
5094457,-0.04,-0.06,0.99,2.26,3.17,0.85,883.53,31.04
5094495,-0.04,-0.06,1.0,2.44,2.75,0.67,883.62,31.03
5094533,-0.05,-0.06,0.99,2.2,2.75,0.67,883.61,31.05
5094571,-0.04,-0.06,1.0,2.2,2.5,0.79,883.6,31.04
5094609,-0.04,-0.06,1.0,2.26,2.5,0.73,883.63,31.05
5094659,-0.04,-0.06,0.99,2.2,2.5,0.85,883.61,31.05
5094697,-0.04,-0.05,1.0,2.2,2.69,0.85,883.69,31.04
5094736,-0.04,-0.06,0.98,2.26,2.81,0.79,883.64,31.04
5094774,-0.03,-0.06,0.98,2.26,2.81,0.79,883.59,31.04
5094812,-0.04,-0.06,0.97,2.32,3.17,0.61,883.63,31.05
5094850,-0.04,-0.06,0.97,2.44,3.23,0.73,883.63,31.05
5094888,-0.03,-0.06,0.97,2.5,3.54,0.73,883.73,31.06
5094926,-0.04,-0.06,0.97,2.56,3.11,0.67,883.68,31.06
5094964,-0.04,-0.06,0.99,2.56,3.23,0.79,883.7,31.05
5095002,-0.04,-0.06,0.98,2.56,3.42,0.73,883.66,31.06
5095052,-0.04,-0.05,0.99,2.5,3.3,0.73,883.69,31.05
5095090,-0.03,-0.05,1.0,2.5,3.3,0.73,883.65,31.05
5095129,-0.04,-0.06,1.0,2.62,3.36,0.67,883.66,31.05
5095167,-0.04,-0.06,1.01,2.62,4.03,0.73,883.67,31.05
5095205,-0.04,-0.06,1.0,2.56,3.54,0.55,883.66,31.05
5095243,-0.04,-0.05,0.98,2.56,3.54,0.67,883.7,31.06
5095281,-0.03,-0.06,0.96,2.38,3.42,0.61,883.73,31.06
5095319,-0.04,-0.06,0.97,2.14,3.23,0.61,883.77,31.05
5095358,-0.04,-0.06,0.97,2.14,2.93,0.67,883.71,31.06
5095407,-0.04,-0.06,0.99,2.08,2.99,0.79,883.74,31.04
5095445,-0.04,-0.06,1.0,1.95,2.56,0.79,883.71,31.05
5095484,-0.04,-0.05,1.03,2.14,2.32,0.61,883.72,31.04
5095522,-0.04,-0.06,0.99,1.95,2.56,0.85,883.71,31.05
5095560,-0.04,-0.06,1.0,1.83,2.5,0.67,883.68,31.05
5095598,-0.03,-0.06,1.0,2.08,2.38,0.73,883.77,31.06
5095636,-0.04,-0.06,1.0,1.95,1.89,0.73,883.79,31.05
5095674,-0.04,-0.06,0.99,2.01,2.32,0.61,883.77,31.05
5095712,-0.04,-0.06,0.98,2.14,2.38,0.55,883.82,31.05
5095751,-0.03,-0.06,0.98,2.2,2.2,0.55,883.83,31.06
5095800,-0.03,-0.06,0.95,2.26,2.75,0.67,883.78,31.05
5095839,-0.03,-0.06,0.94,2.2,3.05,0.43,883.76,31.04
5095877,-0.03,-0.06,0.94,2.2,3.36,0.43,883.75,31.05
5095915,-0.04,-0.06,0.94,2.2,3.11,0.43,883.83,31.06
5095953,-0.04,-0.06,0.95,2.08,3.3,0.31,883.81,31.06
5095991,-0.04,-0.06,0.96,2.2,3.66,0.31,883.8,31.05
5096029,-0.04,-0.05,0.98,2.14,3.48,0.31,883.79,31.05
5096067,-0.04,-0.06,0.99,2.14,3.6,0.31,883.83,31.05
5096106,-0.03,-0.05,0.99,2.01,3.6,0.24,883.82,31.06
5096144,-0.04,-0.05,1.0,2.2,3.48,0.43,883.82,31.06
5096194,-0.04,-0.06,0.98,2.14,4.03,0.18,883.85,31.05
5096232,-0.05,-0.05,1.02,2.01,4.03,0.18,883.89,31.06
5096270,-0.04,-0.06,1.0,2.08,4.21,0.18,883.83,31.06
5096308,-0.04,-0.06,1.01,2.01,4.27,0.12,883.86,31.06
5096346,-0.04,-0.05,1.0,1.95,4.7,0.12,883.88,31.06
5096384,-0.05,-0.06,0.98,2.38,4.33,0.06,883.88,31.05
5096422,-0.05,-0.06,0.95,2.2,3.97,0.18,883.87,31.06
5096461,-0.05,-0.05,0.96,2.26,3.66,0.18,883.87,31.07
5096499,-0.04,-0.06,0.93,2.26,3.78,0.43,883.92,31.07
5096548,-0.04,-0.06,0.97,2.26,2.99,0.49,883.93,31.06
5096587,-0.04,-0.07,0.96,2.38,3.54,0.37,883.97,31.05
5096625,-0.04,-0.06,0.96,2.38,2.99,0.61,883.95,31.05
5096663,-0.04,-0.05,0.97,2.44,3.11,0.49,883.96,31.05
5096701,-0.04,-0.06,0.93,2.44,2.93,0.43,883.92,31.05
5096739,-0.03,-0.06,0.95,2.62,2.93,0.43,883.94,31.06
5096777,-0.03,-0.07,0.92,2.69,3.05,0.31,884.02,31.06
5096815,-0.03,-0.06,0.93,2.5,2.81,0.37,883.93,31.06
5096853,-0.04,-0.06,0.93,2.69,2.99,0.43,883.94,31.06
5096892,-0.05,-0.06,0.93,2.62,2.87,0.37,884.01,31.07
5096941,-0.04,-0.06,0.94,2.56,2.99,0.43,884.0,31.05
5096979,-0.04,-0.06,0.95,2.5,2.81,0.24,884.01,31.06
5097018,-0.05,-0.06,0.92,2.62,2.99,0.37,884.0,31.07
5097056,-0.04,-0.06,0.93,2.38,2.87,0.18,883.99,31.06
5097094,-0.04,-0.06,0.93,2.32,3.3,0.24,884.03,31.07
5097132,-0.04,-0.06,0.92,2.32,3.23,0.31,883.97,31.07
5097170,-0.05,-0.05,0.93,2.56,3.23,0.12,884.02,31.06
5097208,-0.04,-0.06,0.92,2.38,3.48,0.06,884.0,31.05
5097246,-0.04,-0.06,0.93,2.38,3.23,0.18,884.05,31.07
5097284,-0.04,-0.06,0.92,2.38,3.3,0.18,884.07,31.05
5097360,-0.04,-0.06,0.93,2.5,3.36,0.24,884.07,31.03
5097398,-0.04,-0.05,0.95,2.32,2.87,0.43,884.08,31.04
5097436,-0.05,-0.06,0.94,2.2,3.05,0.43,884.08,31.06
5097526,-0.04,-0.06,0.96,2.38,2.75,0.43,884.11,31.01
5097564,-0.04,-0.05,0.97,2.32,2.26,0.55,884.12,31.04
5097602,-0.04,-0.06,0.98,2.44,2.26,0.55,884.07,31.03
5097640,-0.05,-0.06,0.98,2.08,2.08,0.55,884.17,31.04
5097679,-0.04,-0.06,1.0,2.2,2.08,0.55,884.14,31.05
5097717,-0.03,-0.05,0.97,2.26,2.2,0.43,884.17,31.05
5097767,-0.05,-0.05,0.99,2.5,2.2,0.61,884.16,31.04
5097805,-0.04,-0.06,0.94,2.38,2.5,0.61,884.11,31.04
5097843,-0.04,-0.05,0.97,2.62,2.56,0.37,884.2,31.06
5097881,-0.04,-0.06,0.95,2.69,3.05,0.37,884.14,31.05
5097919,-0.04,-0.06,0.94,2.81,3.05,0.37,884.23,31.06
5097957,-0.04,-0.06,0.94,2.75,3.36,0.24,884.23,31.05
5097995,-0.05,-0.06,0.94,2.62,3.54,0.43,884.21,31.05
5098034,-0.04,-0.06,0.93,2.62,3.85,0.31,884.27,31.06
5098072,-0.04,-0.05,0.94,2.56,3.91,0.24,884.23,31.06
5098110,-0.04,-0.06,0.93,2.69,3.91,0.49,884.3,31.06
5098160,-0.03,-0.06,0.94,2.38,4.03,0.37,884.23,31.03
5098198,-0.04,-0.06,0.95,2.14,4.46,0.55,884.25,31.06
5098236,-0.05,-0.05,0.96,1.95,4.82,0.43,884.25,31.07
5098274,-0.05,-0.05,0.98,1.95,4.58,0.31,884.33,31.07
5098312,-0.04,-0.05,0.98,1.65,4.64,0.31,884.31,31.06
5098350,-0.03,-0.04,1.01,1.77,4.7,0.37,884.28,31.06
5098388,-0.03,-0.05,1.0,1.95,4.94,0.43,884.36,31.06
5098427,-0.04,-0.05,1.01,2.01,4.21,0.43,884.32,31.07
5098465,-0.04,-0.05,1.01,2.26,4.09,0.61,884.32,31.08
5098503,-0.04,-0.05,1.0,2.38,4.15,0.67,884.33,31.08
5098553,-0.04,-0.05,0.99,2.32,4.03,0.61,884.35,31.07
5098591,-0.04,-0.05,1.01,2.69,3.91,0.73,884.36,31.07
5098629,-0.05,-0.05,0.98,2.38,3.54,0.85,884.39,31.07
5098667,-0.04,-0.05,0.99,2.32,3.66,0.73,884.44,31.08
5098705,-0.04,-0.05,1.0,2.56,3.85,0.73,884.38,31.08
5098743,-0.04,-0.05,0.99,2.62,3.42,0.73,884.44,31.07
5098781,-0.04,-0.05,0.99,2.69,3.48,0.73,884.46,31.09
5098820,-0.03,-0.05,0.99,2.62,3.42,0.85,884.39,31.09
5098858,-0.03,-0.05,1.0,2.81,3.6,0.73,884.39,31.08
5098908,-0.05,-0.05,0.99,2.87,3.42,0.67,884.41,31.06
5098946,-0.03,-0.05,0.99,2.93,3.6,0.55,884.37,31.07
5098984,-0.04,-0.06,0.97,2.75,3.85,0.61,884.48,31.06
5099022,-0.05,-0.05,0.98,2.87,4.09,0.79,884.47,31.07
5099060,-0.04,-0.06,0.96,2.99,4.33,0.55,884.57,31.08
5099098,-0.04,-0.06,0.95,2.69,4.21,0.67,884.49,31.06
5099136,-0.04,-0.06,0.94,2.81,4.58,0.79,884.52,31.07
5099175,-0.05,-0.05,0.97,2.93,4.15,0.79,884.48,31.06
5099213,-0.04,-0.05,0.96,2.93,4.46,0.55,884.47,31.06
5099251,-0.04,-0.05,0.98,2.69,4.46,0.79,884.48,31.06
5099301,-0.04,-0.06,0.97,2.62,4.76,0.79,884.5,31.05
5099339,-0.05,-0.05,0.99,2.69,4.15,0.79,884.49,31.05
5099377,-0.05,-0.05,0.97,2.56,4.27,0.73,884.54,31.05
5099415,-0.04,-0.05,0.97,2.44,3.66,0.85,884.52,31.06
5099453,-0.05,-0.05,0.96,2.26,3.85,0.98,884.57,31.06
5099491,-0.04,-0.06,0.94,2.56,3.36,0.92,884.56,31.06
5099529,-0.04,-0.05,0.97,2.5,3.11,1.04,884.55,31.06
5099568,-0.06,-0.06,0.95,2.5,3.48,1.04,884.52,31.05
5099606,-0.05,-0.06,0.94,2.62,3.36,1.1,884.47,31.05
5099644,-0.04,-0.05,0.96,2.26,3.11,1.1,884.59,31.06
5099694,-0.05,-0.05,0.95,2.44,2.93,1.28,884.57,31.05
5099732,-0.05,-0.05,0.97,1.95,3.23,1.04,884.59,31.06
5099770,-0.06,-0.05,0.99,2.32,2.93,1.04,884.63,31.05
5099808,-0.06,-0.05,1.01,2.32,2.99,1.34,884.59,31.06
5099846,-0.05,-0.05,1.02,2.14,3.23,1.4,884.59,31.05
5099884,-0.04,-0.05,1.03,2.44,3.6,1.53,884.66,31.07
5099922,-0.04,-0.05,1.02,2.5,3.17,1.4,884.68,31.06
5099961,-0.06,-0.05,1.0,2.32,3.36,1.59,884.64,31.08
5099999,-0.04,-0.05,1.02,2.44,3.48,1.53,884.67,31.07
5100049,-0.04,-0.05,1.03,2.44,4.15,1.53,884.68,31.07
5100087,-0.06,-0.05,1.02,2.44,3.72,1.65,884.7,31.06
5100125,-0.05,-0.05,1.06,2.44,4.21,1.59,884.7,31.06
5100163,-0.04,-0.06,1.04,2.32,4.7,1.53,884.71,31.08
5100201,-0.05,-0.05,1.06,2.26,4.39,1.71,884.75,31.08
5100240,-0.04,-0.05,1.06,2.5,4.46,1.65,884.74,31.07
5100278,-0.04,-0.05,1.05,2.26,3.78,1.59,884.7,31.07
5100316,-0.04,-0.05,1.07,2.2,3.72,1.71,884.78,31.08
5100354,-0.05,-0.06,1.02,2.08,3.17,2.01,884.83,31.08
5100392,-0.05,-0.06,1.01,2.32,2.32,1.95,884.77,31.08
5100468,-0.03,-0.06,1.0,2.26,1.65,2.08,884.82,31.06
5100506,-0.05,-0.06,0.97,1.89,1.59,2.08,884.8,31.06
5100544,-0.05,-0.06,0.97,1.59,1.28,2.01,884.82,31.06
5100634,-0.03,-0.06,0.98,1.22,0.98,2.14,884.88,31.03
5100672,-0.04,-0.06,1.0,1.1,1.65,2.08,884.86,31.04
5100710,-0.03,-0.07,0.96,1.16,1.28,2.08,884.91,31.05
5100748,-0.03,-0.06,0.97,0.98,0.92,2.14,884.89,31.05
5100786,-0.04,-0.06,0.93,0.73,0.92,2.14,884.88,31.04
5100824,-0.04,-0.06,0.95,0.61,0.67,2.01,884.85,31.06
5100862,-0.03,-0.08,0.93,0.49,0.79,2.08,884.9,31.06
5100912,-0.04,-0.06,0.96,0.24,0.49,1.89,884.87,31.03
5100950,-0.03,-0.06,0.95,0.12,0.85,1.95,884.95,31.05
5100988,-0.02,-0.06,0.98,0.0,0.98,1.95,884.9,31.05
5101026,-0.03,-0.07,0.99,0.06,0.67,1.65,884.93,31.05
5101065,-0.04,-0.07,0.98,-0.37,0.67,1.89,884.92,31.05
5101103,-0.04,-0.06,1.03,-0.43,1.16,1.65,884.98,31.05
5101141,-0.03,-0.06,1.02,-0.37,1.83,1.59,884.97,31.04
5101179,-0.03,-0.06,1.04,-0.12,1.77,1.53,884.97,31.05
5101217,-0.03,-0.07,1.04,0.0,2.2,1.4,885.03,31.05
5101267,-0.05,-0.05,1.05,0.43,3.05,1.4,885.06,31.04
5101305,-0.03,-0.05,1.06,0.61,4.21,1.53,885.02,31.06
5101343,-0.02,-0.06,1.07,0.73,4.46,1.4,885.0,31.05
5101381,-0.04,-0.06,1.04,1.22,5.0,1.53,885.05,31.05
5101419,-0.03,-0.06,1.03,1.28,5.49,1.28,885.1,31.05
5101457,-0.02,-0.06,1.02,1.53,5.37,1.53,885.05,31.05
5101496,-0.02,-0.06,1.0,1.46,4.94,1.46,885.08,31.05
5101534,-0.03,-0.06,0.98,1.53,5.13,1.53,885.1,31.06
5101572,-0.03,-0.06,0.97,1.53,4.76,1.59,885.1,31.06
5101610,-0.03,-0.06,0.99,1.59,4.39,1.46,885.03,31.06
5101660,-0.03,-0.07,0.95,1.77,4.52,1.46,885.11,31.04
5101698,-0.02,-0.06,0.97,1.89,5.19,1.34,885.09,31.05
5101736,-0.03,-0.07,0.93,1.83,5.86,1.34,885.15,31.06
5101774,-0.03,-0.05,0.98,2.08,5.92,1.22,885.16,31.05
5101812,-0.02,-0.07,0.96,2.2,6.59,1.28,885.08,31.05
5101850,-0.02,-0.06,0.99,2.38,6.1,1.22,885.07,31.05
5101888,-0.03,-0.07,0.99,2.69,6.84,1.28,885.11,31.06
5101926,-0.02,-0.06,0.99,2.93,6.96,1.16,885.14,31.06
5101965,-0.02,-0.06,0.99,3.05,7.63,1.1,885.18,31.05
5102003,-0.02,-0.07,0.98,3.3,7.75,1.04,885.13,31.05
5102052,-0.04,-0.06,0.96,3.42,8.48,1.04,885.17,31.06
5102091,-0.02,-0.07,0.98,3.42,8.61,0.85,885.2,31.06
5102129,-0.02,-0.06,1.0,3.36,8.18,0.85,885.18,31.06
5102167,-0.01,-0.07,0.99,3.36,8.24,0.79,885.17,31.05
5102205,-0.03,-0.07,1.01,3.36,8.36,0.85,885.15,31.05
5102243,-0.03,-0.07,0.98,3.23,8.54,0.67,885.21,31.06
5102281,-0.03,-0.06,1.0,3.05,7.45,0.55,885.22,31.05
5102319,-0.03,-0.07,0.95,3.17,7.69,0.79,885.26,31.06
5102357,-0.03,-0.07,0.95,2.93,7.32,0.55,885.25,31.06
5102407,-0.02,-0.06,0.97,2.81,7.14,0.73,885.26,31.06
5102445,-0.02,-0.07,0.96,2.62,6.23,0.49,885.26,31.08
5102483,-0.03,-0.06,0.99,2.38,6.41,0.43,885.28,31.06
5102522,-0.02,-0.07,0.97,2.44,6.1,0.49,885.27,31.07
5102560,-0.03,-0.07,0.98,2.14,6.16,0.49,885.31,31.07
5102598,-0.02,-0.07,0.98,2.01,6.29,0.37,885.26,31.06
5102636,-0.02,-0.07,0.97,1.89,5.74,0.49,885.33,31.07
5102674,-0.03,-0.06,0.98,1.89,5.49,0.31,885.26,31.06
5102712,-0.03,-0.07,0.96,1.71,5.98,0.37,885.25,31.07
5102750,-0.03,-0.07,0.98,1.65,5.92,0.31,885.35,31.06
5102800,-0.02,-0.07,0.98,1.65,5.98,0.06,885.36,31.06
5102838,-0.02,-0.07,0.98,1.22,6.04,0.12,885.34,31.06
5102876,-0.02,-0.06,0.99,1.16,5.92,0.06,885.33,31.05
5102914,-0.04,-0.06,1.0,1.34,6.1,0.12,885.38,31.07
5102952,-0.03,-0.06,1.0,1.22,6.23,0.12,885.36,31.06
5102991,-0.03,-0.06,1.03,1.22,6.04,0.06,885.34,31.06
5103029,-0.02,-0.06,1.04,1.16,6.59,-0.06,885.4,31.06
5103067,-0.02,-0.06,1.06,1.28,6.47,-0.12,885.35,31.06
5103105,-0.03,-0.06,1.08,1.34,6.65,-0.12,885.34,31.05
5103155,-0.03,-0.06,1.09,1.46,7.02,-0.31,885.4,31.06
5103193,-0.04,-0.05,1.13,1.46,6.41,-0.24,885.41,31.06
5103231,-0.05,-0.06,1.11,1.59,6.29,-0.24,885.41,31.04
5103269,-0.04,-0.06,1.12,1.59,6.84,-0.24,885.41,31.07
5103307,-0.03,-0.05,1.13,1.53,6.65,-0.24,885.44,31.06
5103345,-0.04,-0.05,1.11,1.83,6.59,-0.18,885.43,31.06
5103384,-0.04,-0.05,1.12,1.77,6.53,-0.12,885.47,31.06
5103422,-0.03,-0.06,1.09,1.95,6.77,-0.24,885.51,31.07
5103460,-0.04,-0.05,1.08,2.01,6.41,-0.12,885.47,31.07
5103498,-0.04,-0.06,1.04,2.14,6.1,-0.12,885.47,31.07
5103575,-0.04,-0.06,1.05,2.08,5.86,0.0,885.46,31.03
5103613,-0.04,-0.06,1.01,1.83,5.8,0.0,885.44,31.04
5103651,-0.05,-0.06,1.01,1.89,5.37,0.0,885.54,31.06
5103740,-0.04,-0.06,0.96,1.77,5.92,0.06,885.53,31.02
5103779,-0.04,-0.06,0.93,1.65,5.86,-0.06,885.53,31.03
5103817,-0.05,-0.06,0.96,1.4,5.31,0.0,885.51,31.04
5103855,-0.04,-0.07,0.96,1.1,5.62,0.0,885.46,31.04
5103893,-0.03,-0.07,0.98,0.85,5.62,-0.06,885.53,31.04
5103931,-0.03,-0.06,0.99,0.85,5.8,-0.12,885.55,31.04
5103969,-0.04,-0.07,0.93,0.73,5.25,-0.06,885.55,31.03
5104019,-0.04,-0.06,0.97,0.67,5.07,-0.18,885.59,31.01
5104057,-0.01,-0.07,0.97,0.67,4.27,-0.12,885.55,31.04
5104095,-0.04,-0.06,0.95,0.49,4.03,-0.06,885.66,31.04
5104133,-0.03,-0.06,0.97,0.79,4.52,0.0,885.56,31.03
5104171,-0.02,-0.07,0.99,0.61,3.78,-0.18,885.66,31.05
5104209,-0.03,-0.06,1.05,0.37,3.66,-0.24,885.57,31.04
5104248,-0.03,-0.06,1.05,0.24,4.21,-0.18,885.61,31.04
5104286,-0.02,-0.05,1.09,0.24,3.78,-0.37,885.69,31.05
5104324,-0.03,-0.05,1.09,0.55,4.03,-0.37,885.66,31.05
5104374,-0.03,-0.06,1.13,0.49,3.17,-0.37,885.59,31.02
5104412,-0.03,-0.06,1.1,0.61,3.54,-0.37,885.65,31.05
5104450,-0.04,-0.05,1.12,0.98,2.38,-0.43,885.65,31.05
5104488,-0.02,-0.05,1.09,1.04,2.26,-0.37,885.68,31.05
5104526,-0.04,-0.05,1.07,1.1,1.83,-0.43,885.72,31.05
5104564,-0.05,-0.06,1.03,1.16,1.34,-0.61,885.62,31.05
5104602,-0.03,-0.06,1.02,1.22,1.28,-0.55,885.71,31.05
5104640,-0.05,-0.06,0.98,1.04,1.71,-0.55,885.67,31.05
5104679,-0.06,-0.05,1.02,1.16,1.89,-0.49,885.67,31.05
5104728,-0.04,-0.06,1.0,1.1,1.1,-0.55,885.66,31.03
5104766,-0.05,-0.06,1.04,0.92,1.16,-0.55,885.71,31.05
5104805,-0.04,-0.06,1.06,0.92,0.98,-0.31,885.65,31.04
5104843,-0.04,-0.05,1.07,0.79,0.85,-0.37,885.67,31.03
5104881,-0.04,-0.04,1.05,0.55,0.61,-0.24,885.69,31.05
5104919,-0.04,-0.04,1.1,0.67,-0.18,-0.24,885.64,31.04
5104957,-0.03,-0.07,1.1,0.73,0.12,-0.31,885.74,31.04
5104995,-0.01,-0.06,1.09,0.61,0.24,-0.43,885.69,31.04
5105033,-0.03,-0.05,1.07,1.1,-0.12,-0.24,885.77,31.04
5105071,-0.04,-0.06,1.03,1.04,-0.92,-0.31,885.69,31.05
5105121,-0.03,-0.05,1.03,1.34,-1.1,-0.37,885.78,31.04
5105159,-0.03,-0.06,1.01,1.34,-1.22,-0.55,885.7,31.04
5105197,-0.04,-0.06,0.99,1.28,-1.1,-0.43,885.74,31.03
5105236,-0.03,-0.05,0.99,1.46,-1.22,-0.61,885.77,31.05
5105274,-0.03,-0.05,0.98,1.71,-1.46,-0.79,885.76,31.04
5105312,-0.03,-0.06,0.95,1.4,-1.59,-0.55,885.78,31.05
5105350,-0.04,-0.06,0.96,1.4,-1.71,-0.67,885.75,31.03
5105388,-0.03,-0.07,0.93,1.53,-1.46,-0.79,885.75,31.05
5105426,-0.04,-0.06,0.91,1.28,-1.77,-0.73,885.76,31.04
5105476,-0.04,-0.06,0.9,1.59,-1.22,-0.73,885.73,31.02
5105514,-0.04,-0.07,0.88,1.71,-1.1,-0.98,885.76,31.03
5105552,-0.04,-0.06,0.88,1.34,-0.61,-0.98,885.81,31.04
5105590,-0.06,-0.06,0.88,1.34,0.12,-0.98,885.78,31.05
5105628,-0.06,-0.06,0.88,1.34,1.16,-0.92,885.82,31.05
5105667,-0.05,-0.06,0.92,1.28,2.26,-1.16,885.77,31.04
5105705,-0.05,-0.06,0.91,1.28,3.42,-1.1,885.82,31.05
5105743,-0.05,-0.05,0.91,1.46,3.97,-1.16,885.77,31.04
5105781,-0.05,-0.04,0.94,1.53,5.19,-1.1,885.77,31.04
5105819,-0.05,-0.05,0.95,1.59,6.47,-1.04,885.77,31.04
5105869,-0.06,-0.05,0.98,1.89,7.02,-1.1,885.89,31.02
5105907,-0.07,-0.04,1.02,2.32,8.12,-1.04,885.84,31.03
5105945,-0.04,-0.04,1.05,2.26,7.93,-1.16,885.93,31.05
5105983,-0.05,-0.04,1.09,2.87,7.75,-0.79,885.82,31.04
5106021,-0.06,-0.04,1.08,3.17,7.2,-0.67,885.87,31.03
5106060,-0.05,-0.03,1.12,3.3,6.96,-0.67,885.86,31.03
5106098,-0.05,-0.03,1.13,3.6,6.16,-0.55,885.8,31.03
5106136,-0.06,-0.04,1.12,3.72,4.15,-0.43,885.9,31.03
5106174,-0.05,-0.04,1.12,3.72,4.64,-0.24,885.91,31.03
5106224,-0.04,-0.04,1.1,3.72,3.42,-0.18,885.88,31.03
5106262,-0.03,-0.04,1.09,3.72,4.03,-0.18,885.86,31.03
5106300,-0.05,-0.05,1.06,3.72,3.66,-0.12,885.91,31.03
5106338,-0.05,-0.04,1.04,3.6,3.97,-0.24,885.83,31.03
5106376,-0.05,-0.06,1.0,3.42,3.97,-0.24,885.87,31.03
5106415,-0.04,-0.05,1.03,3.6,4.33,-0.18,885.88,31.04
5106453,-0.04,-0.05,0.94,3.48,5.55,-0.31,885.94,31.04
5106491,-0.04,-0.04,0.99,3.66,3.97,-0.37,885.9,31.04
5106529,-0.04,-0.06,0.97,3.78,4.64,-0.31,885.96,31.06
5106567,-0.04,-0.07,0.9,3.3,3.78,-0.31,886.0,31.05
5106643,-0.03,-0.08,0.9,2.87,2.99,-0.31,885.91,31.01
5106681,-0.03,-0.06,0.97,2.32,1.04,-0.24,885.95,31.02
5106719,-0.05,-0.07,0.94,2.08,2.14,-0.24,885.91,31.02
5106808,-0.04,-0.05,0.94,1.28,0.12,-0.24,885.87,30.98
5106847,-0.06,-0.05,0.95,0.85,-1.1,-0.24,885.89,30.99
5106885,-0.03,-0.06,1.01,0.61,-1.16,-0.55,885.93,31.01
5106923,-0.04,-0.06,0.98,0.24,-1.53,-0.43,885.87,31.01
5106961,-0.04,-0.05,1.03,0.12,-1.71,-0.37,885.95,31.01
5106999,-0.05,-0.05,1.0,0.0,-1.16,-0.49,885.94,31.01
5107049,-0.06,-0.04,1.09,0.06,-0.55,-0.49,885.97,30.99
5107087,-0.05,-0.06,1.06,-0.18,0.67,-0.49,885.95,31.02
5107125,-0.07,-0.04,1.1,0.06,1.04,-0.67,886.01,31.03
5107163,-0.06,-0.04,1.1,0.37,2.2,-0.61,886.01,31.02
5107202,-0.05,-0.04,1.11,0.67,2.75,-0.55,885.96,31.03
5107240,-0.06,-0.04,1.11,1.16,3.48,-0.49,886.02,31.03
5107278,-0.05,-0.05,1.06,1.4,3.36,-0.43,885.94,31.02
5107316,-0.04,-0.05,1.06,1.71,3.78,-0.43,886.04,31.04
5107354,-0.05,-0.06,1.01,2.01,4.39,-0.24,886.02,31.03
5107404,-0.05,-0.04,1.03,1.95,3.17,-0.24,886.05,31.03
5107442,-0.05,-0.06,0.99,2.14,3.23,-0.24,886.06,31.04
5107480,-0.05,-0.06,1.0,2.26,2.81,-0.18,886.04,31.04
5107518,-0.05,-0.05,1.0,2.01,2.87,-0.18,886.02,31.03
5107556,-0.04,-0.06,1.0,1.89,2.44,-0.06,886.05,31.03
5107594,-0.05,-0.05,1.04,1.77,2.81,0.0,885.99,31.03
5107633,-0.04,-0.04,1.08,1.77,2.5,0.06,886.01,31.03
5107671,-0.05,-0.04,1.15,1.53,2.93,-0.06,886.0,31.04
5107709,-0.04,-0.05,1.16,1.53,3.3,0.12,886.0,31.04
5107747,-0.03,-0.04,1.16,1.34,2.08,0.31,886.03,31.05
5107797,-0.06,-0.05,1.17,1.77,3.17,0.12,886.02,31.05
5107835,-0.03,-0.06,1.2,1.95,1.22,0.06,886.01,31.03
5107873,-0.02,-0.04,1.21,1.89,1.59,-0.06,886.05,31.05
5107911,-0.02,-0.05,1.16,1.71,1.04,0.06,886.01,31.04
5107949,-0.06,-0.04,1.16,1.65,2.2,0.0,886.06,31.04
5107987,-0.05,-0.04,1.11,1.83,2.38,-0.24,886.09,31.05
5108025,-0.05,-0.04,1.14,1.83,1.46,-0.18,886.04,31.04
5108063,-0.04,-0.06,1.09,1.77,1.71,-0.12,886.08,31.05
5108102,-0.06,-0.05,1.07,1.71,1.89,-0.18,886.01,31.04
5108140,-0.05,-0.05,1.05,1.95,2.5,-0.18,886.12,31.05
5108190,-0.07,-0.05,1.06,1.89,2.01,0.0,886.1,31.03
5108228,-0.06,-0.06,1.02,1.77,2.44,-0.12,886.03,31.05
5108266,-0.05,-0.05,1.04,1.65,3.05,-0.12,886.12,31.05
5108304,-0.04,-0.05,1.06,1.77,3.11,-0.24,886.05,31.04
5108342,-0.04,-0.05,1.05,1.77,2.38,-0.12,886.06,31.04
5108380,-0.06,-0.04,1.08,1.53,2.5,-0.12,886.09,31.04
5108418,-0.05,-0.05,1.04,1.59,3.91,0.12,886.04,31.05
5108456,-0.05,-0.04,1.13,1.59,2.56,0.0,886.04,31.05
5108494,-0.06,-0.06,1.1,1.65,2.99,-0.06,886.0,31.05
5108544,-0.05,-0.04,1.13,1.46,3.72,0.0,886.01,31.04
5108582,-0.05,-0.04,1.11,1.46,4.33,-0.06,886.02,31.05
5108621,-0.07,-0.05,1.11,1.65,3.6,0.12,886.04,31.04
5108659,-0.06,-0.05,1.1,1.65,4.58,0.12,885.99,31.03
5108697,-0.06,-0.05,1.12,1.83,5.25,0.18,886.08,31.05
5108735,-0.07,-0.05,1.09,2.08,5.8,0.37,886.05,31.04
5108773,-0.06,-0.04,1.11,2.01,4.15,0.37,886.02,31.04
5108811,-0.05,-0.04,1.14,1.95,4.94,0.31,886.05,31.05
5108849,-0.05,-0.06,1.11,1.83,5.62,0.43,886.0,31.04
5108887,-0.07,-0.05,1.17,2.01,4.94,0.55,886.06,31.05
5108937,-0.06,-0.05,1.1,2.14,5.8,0.67,886.02,31.02
5108975,-0.07,-0.05,1.12,1.77,5.86,0.61,886.04,31.03
5109013,-0.05,-0.05,1.07,2.14,6.59,0.55,886.07,31.05
5109052,-0.05,-0.05,1.06,1.95,6.16,0.61,885.97,31.03
5109090,-0.06,-0.04,1.13,2.26,5.31,0.85,886.02,31.05
5109128,-0.07,-0.05,1.09,2.26,5.8,0.92,886.03,31.03
5109166,-0.06,-0.04,1.13,2.26,4.33,0.79,886.02,31.04
5109204,-0.05,-0.05,1.14,2.14,5.49,0.98,886.03,31.04
5109242,-0.05,-0.06,1.08,1.95,5.43,1.04,886.0,31.04
5109292,-0.04,-0.05,1.08,1.95,5.92,1.16,886.07,31.04
5109330,-0.04,-0.06,1.03,1.46,4.94,1.16,886.05,31.04
5109368,-0.05,-0.04,1.08,1.28,5.19,0.98,886.01,31.03
5109406,-0.06,-0.06,1.0,1.1,5.37,1.16,886.0,31.03
5109445,-0.05,-0.05,1.04,1.1,4.33,1.1,886.03,31.04
5109483,-0.03,-0.05,1.05,0.92,4.09,1.04,885.96,31.04
5109521,-0.04,-0.06,1.04,0.73,3.91,1.22,885.92,31.03
5109559,-0.04,-0.06,1.03,0.49,3.97,1.16,885.96,31.03
5109597,-0.05,-0.06,1.03,0.55,3.48,1.16,885.99,31.03
5109635,-0.04,-0.05,1.03,0.37,2.99,1.34,885.98,31.03
5109711,-0.05,-0.05,1.05,0.31,2.5,1.28,885.96,31.01
5109749,-0.04,-0.05,1.07,0.49,2.5,1.28,885.93,31.0
5109787,-0.04,-0.06,1.06,0.67,2.2,1.16,885.98,31.01
5109877,-0.06,-0.04,1.06,1.16,2.08,1.4,885.95,30.97
5109915,-0.05,-0.05,1.04,1.16,2.32,1.34,885.95,30.99
5109953,-0.05,-0.05,1.04,1.1,1.65,1.28,885.95,31.0
5109991,-0.04,-0.05,1.03,1.46,1.83,1.22,885.97,31.01
5110029,-0.04,-0.05,1.02,1.28,1.95,1.34,885.91,31.01
5110068,-0.04,-0.05,1.03,1.53,1.83,1.34,885.92,31.0
5110106,-0.06,-0.05,1.03,1.71,1.77,1.34,885.97,31.0
5110155,-0.06,-0.05,0.99,1.83,2.2,1.34,885.88,30.99
5110194,-0.05,-0.05,1.0,1.95,2.2,1.22,885.9,30.99
5110232,-0.04,-0.05,0.98,1.83,2.08,1.34,885.92,31.0
5110270,-0.05,-0.05,0.95,1.71,2.14,1.28,885.89,31.0
5110308,-0.05,-0.06,0.95,1.65,2.44,1.4,885.87,30.98
5110346,-0.05,-0.06,0.93,1.65,2.14,1.46,885.94,31.0
5110384,-0.05,-0.05,0.93,1.4,2.14,1.4,885.88,30.99
5110423,-0.05,-0.05,0.94,1.71,2.26,1.4,885.9,31.0
5110461,-0.03,-0.06,0.93,1.46,2.56,1.28,885.89,30.99
5110510,-0.05,-0.05,0.95,1.46,2.44,1.4,885.86,30.99
5110549,-0.04,-0.06,0.93,1.59,2.81,1.46,885.82,30.98
5110587,-0.04,-0.06,0.94,1.28,3.11,1.22,885.87,31.0
5110625,-0.03,-0.05,0.93,1.34,3.48,1.04,885.9,30.99
5110663,-0.04,-0.05,0.95,1.46,3.42,1.16,885.83,31.0
5110701,-0.04,-0.06,0.95,1.71,3.85,1.1,885.83,31.0
5110739,-0.04,-0.06,0.96,1.83,4.21,0.92,885.91,31.01
5110778,-0.04,-0.05,0.95,1.83,4.39,1.04,885.87,31.0
5110816,-0.05,-0.05,0.96,1.89,4.03,0.98,885.82,31.0
5110854,-0.04,-0.06,0.94,1.83,4.21,0.79,885.87,31.0
5110904,-0.03,-0.05,0.97,1.83,4.52,0.85,885.82,30.99
5110942,-0.03,-0.06,0.95,1.95,4.7,0.79,885.79,31.0
5110980,-0.04,-0.05,0.97,2.2,4.46,0.73,885.83,31.0
5111018,-0.05,-0.05,0.97,2.26,4.94,0.61,885.78,31.0
5111056,-0.04,-0.05,0.97,2.2,4.76,0.49,885.84,31.01
5111094,-0.03,-0.05,1.0,2.32,4.88,0.61,885.87,31.01
5111132,-0.04,-0.05,0.96,2.38,4.76,0.55,885.84,31.0
5111171,-0.04,-0.05,0.97,2.44,4.27,0.43,885.82,31.01
5111209,-0.04,-0.05,0.95,2.44,4.15,0.61,885.76,31.01
5111247,-0.03,-0.04,0.95,2.26,3.78,0.49,885.72,31.01
5111297,-0.05,-0.05,0.93,2.26,3.72,0.43,885.78,30.99
5111335,-0.04,-0.05,0.94,2.5,3.17,0.55,885.76,31.01
5111373,-0.04,-0.06,0.95,2.56,2.87,0.43,885.73,31.0
5111411,-0.04,-0.05,0.95,2.32,2.75,0.49,885.78,31.01
5111449,-0.04,-0.05,0.96,2.38,3.05,0.24,885.76,31.02
5111487,-0.04,-0.05,0.95,2.44,2.99,0.43,885.7,31.01
5111525,-0.04,-0.05,0.96,2.32,2.75,0.37,885.77,31.01
5111564,-0.04,-0.05,0.96,2.56,2.81,0.37,885.73,31.02
5111602,-0.04,-0.05,0.96,2.56,3.05,0.24,885.75,31.02
5111651,-0.04,-0.05,0.95,2.75,2.75,0.37,885.74,31.01
5111690,-0.04,-0.05,0.96,2.69,2.75,0.18,885.74,31.01
5111728,-0.04,-0.05,0.94,2.69,2.56,0.37,885.69,31.01
5111766,-0.04,-0.05,0.96,2.93,2.62,0.24,885.74,31.01
5111804,-0.04,-0.05,0.94,2.93,2.87,0.43,885.66,31.01
5111842,-0.04,-0.05,0.95,2.93,2.56,0.37,885.7,31.01
5111880,-0.05,-0.05,0.94,3.17,2.75,0.43,885.71,31.01
5111918,-0.04,-0.05,0.94,3.17,2.75,0.31,885.7,31.01
5111956,-0.04,-0.05,0.94,3.36,2.87,0.24,885.66,31.02
5111995,-0.05,-0.05,0.92,3.23,3.11,0.43,885.69,31.01
5112044,-0.04,-0.05,0.92,3.3,3.11,0.37,885.73,31.0
5112082,-0.03,-0.05,0.92,3.42,2.99,0.37,885.66,31.02
5112121,-0.05,-0.05,0.92,3.42,3.05,0.24,885.66,31.02
5112159,-0.04,-0.05,0.92,3.54,3.11,0.31,885.65,31.02
5112197,-0.05,-0.05,0.92,3.66,2.99,0.37,885.67,31.03
5112235,-0.05,-0.05,0.92,3.54,3.05,0.24,885.61,31.01
5112273,-0.04,-0.05,0.91,3.3,3.23,0.31,885.69,31.03
5112311,-0.04,-0.05,0.93,3.54,3.17,0.24,885.63,31.01
5112349,-0.04,-0.05,0.89,3.54,3.48,0.12,885.64,31.02
5112388,-0.04,-0.05,0.89,3.6,3.66,0.24,885.68,31.02
5112437,-0.04,-0.05,0.88,3.54,3.85,0.18,885.69,31.01
5112475,-0.06,-0.05,0.88,3.42,3.97,0.31,885.62,31.01
5112514,-0.05,-0.05,0.88,3.36,4.15,0.43,885.63,31.02
5112552,-0.05,-0.06,0.89,3.17,4.27,0.24,885.67,31.02
5112590,-0.04,-0.05,0.89,3.05,4.39,0.31,885.65,31.02
5112628,-0.04,-0.05,0.89,2.93,4.76,0.37,885.66,31.02
5112666,-0.05,-0.05,0.91,2.75,4.64,0.37,885.64,31.02
5112704,-0.05,-0.05,0.91,2.56,4.52,0.55,885.69,31.03
5112742,-0.06,-0.05,0.92,2.62,4.33,0.61,885.61,31.02
5112818,-0.05,-0.05,0.92,2.56,4.46,0.73,885.62,30.99
5112856,-0.04,-0.05,0.95,2.62,4.21,0.79,885.57,31.0
5112894,-0.04,-0.05,0.94,2.44,4.21,0.92,885.64,31.01
5112984,-0.05,-0.05,0.94,2.56,4.21,1.04,885.59,30.98
5113022,-0.05,-0.05,0.94,2.5,4.03,1.16,885.58,30.99
5113060,-0.04,-0.05,0.93,2.5,3.97,1.04,885.59,31.0
5113098,-0.04,-0.05,0.94,2.56,4.03,0.92,885.6,31.01
5113136,-0.04,-0.05,0.94,2.38,3.97,1.28,885.62,31.01
5113174,-0.04,-0.04,0.95,2.5,3.72,1.22,885.63,31.02
5113212,-0.05,-0.04,0.95,2.5,3.97,1.16,885.7,31.03
5113262,-0.04,-0.05,0.95,2.14,4.21,1.28,885.66,31.0
5113300,-0.05,-0.05,0.95,2.32,4.03,1.34,885.65,31.01
5113338,-0.05,-0.04,0.96,2.14,4.27,1.34,885.63,31.01
5113377,-0.04,-0.05,0.96,2.38,4.15,1.4,885.6,31.01
5113415,-0.04,-0.05,0.97,2.32,4.39,1.34,885.62,31.02
5113453,-0.05,-0.05,0.97,2.32,4.15,1.4,885.6,31.0
5113491,-0.04,-0.04,0.96,2.2,4.58,1.46,885.61,31.02
5113529,-0.04,-0.05,0.97,2.32,4.7,1.4,885.58,31.01
5113567,-0.04,-0.05,0.96,2.14,4.7,1.4,885.68,31.02
5113605,-0.04,-0.04,0.97,2.26,4.82,1.4,885.64,31.03
5113655,-0.03,-0.05,0.97,2.32,5.0,1.53,885.59,31.0
5113693,-0.04,-0.04,0.99,2.2,4.82,1.53,885.62,31.01
5113732,-0.05,-0.05,0.97,2.38,5.13,1.53,885.59,31.01
5113770,-0.04,-0.04,0.98,2.38,4.88,1.46,885.66,31.03
5113808,-0.04,-0.04,0.97,2.56,5.37,1.22,885.59,31.03
5113846,-0.04,-0.04,0.97,2.5,5.31,1.4,885.59,31.03
5113884,-0.05,-0.04,0.99,2.44,5.49,1.4,885.63,31.04
5113922,-0.04,-0.05,0.97,2.32,5.98,1.4,885.58,31.03
5113960,-0.04,-0.04,0.99,2.5,5.62,1.34,885.6,31.03
5114010,-0.04,-0.04,0.97,2.44,5.74,1.34,885.61,31.03
5114048,-0.03,-0.04,0.98,2.5,5.74,1.34,885.6,31.03
5114086,-0.05,-0.04,0.98,2.5,5.98,1.34,885.6,31.03
5114124,-0.05,-0.04,0.98,2.69,6.41,1.22,885.62,31.04
5114163,-0.04,-0.04,0.99,2.81,6.47,1.22,885.63,31.04
5114201,-0.04,-0.04,1.0,2.81,6.65,1.34,885.63,31.04
5114239,-0.04,-0.04,0.99,2.81,6.65,1.4,885.65,31.04
5114277,-0.04,-0.04,0.99,2.81,6.96,1.22,885.63,31.04
5114315,-0.04,-0.04,0.98,2.93,6.59,1.34,885.66,31.05
5114353,-0.04,-0.04,1.0,2.69,6.29,1.4,885.61,31.03
5114403,-0.04,-0.04,1.0,2.62,6.77,1.16,885.65,31.03
5114441,-0.04,-0.04,1.02,2.81,6.23,1.22,885.58,31.03
5114479,-0.04,-0.04,1.02,2.93,6.47,1.34,885.62,31.03
5114518,-0.03,-0.04,1.01,3.17,6.47,1.22,885.58,31.02
5114556,-0.04,-0.04,1.0,2.99,5.98,1.16,885.62,31.03
5114594,-0.03,-0.04,0.99,2.93,5.19,1.28,885.61,31.04
5114632,-0.04,-0.04,0.99,2.87,4.52,1.16,885.64,31.03
5114670,-0.05,-0.04,1.0,2.93,4.27,1.22,885.62,31.02
5114708,-0.04,-0.04,1.02,2.99,3.6,1.1,885.61,31.02
5114747,-0.04,-0.04,1.01,3.17,4.21,0.98,885.59,31.02
5114796,-0.03,-0.04,1.02,3.42,3.72,0.92,885.67,31.01
5114834,-0.04,-0.05,1.0,3.91,3.91,0.79,885.7,31.02
5114873,-0.04,-0.05,0.98,4.15,3.23,0.92,885.62,31.03
5114911,-0.03,-0.05,0.96,4.27,2.99,1.1,885.64,31.02
5114949,-0.04,-0.05,0.92,4.15,2.62,0.85,885.62,31.02
5114987,-0.02,-0.05,0.9,3.97,2.44,0.79,885.66,31.03
5115025,-0.02,-0.05,0.89,3.97,2.2,0.67,885.66,31.02
5115063,-0.03,-0.06,0.88,3.66,2.01,0.55,885.65,31.03
5115102,-0.02,-0.06,0.88,3.17,1.65,0.49,885.69,31.03
5115151,-0.03,-0.05,0.87,2.87,2.14,0.18,885.6,31.02
5115189,-0.03,-0.05,0.89,2.56,2.01,0.18,885.65,31.02
5115228,-0.02,-0.06,0.88,2.2,2.08,0.06,885.63,31.02
5115266,-0.03,-0.05,0.91,2.01,2.2,-0.12,885.62,31.03
5115304,-0.03,-0.06,0.91,1.77,2.5,-0.12,885.6,31.02
5115342,-0.02,-0.05,0.93,1.46,2.2,-0.12,885.62,31.02
5115380,-0.03,-0.05,0.94,1.71,2.14,-0.24,885.65,31.01
5115418,-0.03,-0.05,0.93,1.46,2.08,-0.37,885.62,31.02
5115456,-0.03,-0.05,0.94,1.28,2.5,-0.49,885.64,31.02
5115494,-0.03,-0.06,0.95,1.46,1.95,-0.61,885.68,31.02
5115544,-0.02,-0.06,0.95,1.46,1.59,-0.61,885.63,31.01
5115582,-0.03,-0.05,0.95,1.53,1.77,-0.67,885.62,31.01
5115620,-0.03,-0.05,0.97,1.34,1.77,-0.73,885.63,31.01
5115659,-0.03,-0.06,0.97,1.46,1.53,-0.73,885.66,31.03
5115697,-0.04,-0.05,0.96,1.28,1.22,-0.98,885.6,31.03
5115735,-0.03,-0.04,0.96,1.1,1.65,-0.92,885.7,31.02
5115773,-0.03,-0.03,0.98,1.46,2.01,-0.92,885.64,31.04
5115811,-0.04,-0.05,0.96,1.4,2.08,-0.79,885.63,31.01
5115849,-0.05,-0.04,1.01,1.71,2.44,-0.92,885.69,31.03
5115925,-0.04,-0.06,0.99,2.44,3.17,-0.79,885.69,30.99
5115963,-0.04,-0.05,0.95,2.5,3.42,-0.79,885.67,31.01
5116001,-0.04,-0.05,0.91,2.69,2.81,-0.73,885.65,31.01
5116091,-0.04,-0.04,0.86,2.44,2.56,-0.55,885.71,30.98
5116129,-0.05,-0.06,0.84,2.69,2.99,-0.43,885.67,30.99
5116167,-0.06,-0.06,0.84,2.56,2.75,-0.49,885.66,31.01
5116205,-0.04,-0.06,0.87,2.44,2.44,-0.49,885.7,31.02
5116243,-0.04,-0.06,0.84,2.26,2.69,-0.49,885.76,31.01
5116282,-0.03,-0.05,0.86,2.08,2.56,-0.43,885.66,31.01
5116320,-0.04,-0.06,0.83,2.26,2.81,-0.37,885.67,31.01
5116369,-0.06,-0.05,0.84,1.89,2.5,-0.37,885.67,31.0
5116408,-0.05,-0.05,0.85,1.89,2.32,-0.12,885.69,31.01
5116446,-0.04,-0.05,0.87,1.71,2.44,-0.43,885.77,31.03
5116484,-0.03,-0.06,0.89,1.4,2.2,-0.37,885.72,31.01
5116522,-0.03,-0.05,0.91,1.4,2.14,-0.24,885.73,31.01
5116560,-0.04,-0.05,0.89,1.34,2.44,-0.31,885.73,31.03
5116598,-0.05,-0.05,0.9,1.22,2.08,-0.24,885.69,31.03
5116637,-0.05,-0.05,0.9,1.28,1.95,-0.37,885.72,31.01
5116675,-0.04,-0.05,0.93,1.16,1.59,-0.37,885.76,31.03
5116725,-0.05,-0.04,0.93,0.98,1.34,-0.37,885.73,31.0
5116763,-0.05,-0.05,0.94,1.34,1.65,-0.37,885.72,31.03
5116801,-0.04,-0.05,0.97,1.4,1.34,-0.31,885.8,31.01
5116839,-0.05,-0.04,0.97,1.34,0.67,-0.31,885.73,31.02
5116877,-0.05,-0.04,0.98,1.4,0.61,-0.24,885.7,31.02
5116915,-0.06,-0.04,0.98,1.77,0.98,-0.37,885.72,31.02
5116953,-0.04,-0.04,0.99,1.65,0.79,-0.24,885.81,31.03
5116992,-0.05,-0.03,1.0,1.77,0.67,-0.12,885.77,31.03
5117030,-0.06,-0.04,0.99,2.2,1.46,-0.12,885.76,31.02
5117068,-0.04,-0.05,1.01,2.26,1.46,-0.12,885.82,31.02
5117118,-0.06,-0.05,1.01,2.32,1.65,0.0,885.82,31.01
5117156,-0.05,-0.05,0.98,2.44,1.71,-0.06,885.83,31.02
5117194,-0.05,-0.04,1.01,2.5,1.59,-0.06,885.82,31.03
5117232,-0.06,-0.05,0.99,2.69,1.89,0.0,885.84,31.02
5117270,-0.04,-0.04,0.99,2.5,1.34,0.24,885.81,30.99
5117309,-0.05,-0.03,1.06,2.81,1.95,0.12,885.91,31.01
5117347,-0.04,-0.06,0.97,2.69,3.11,0.12,885.86,31.01
5117385,-0.04,-0.04,1.02,2.75,2.2,0.12,885.87,31.01
5117423,-0.06,-0.06,0.97,2.87,2.62,0.31,885.9,31.02
5117473,-0.03,-0.05,0.94,2.62,2.08,0.43,885.92,31.01
5117511,-0.04,-0.04,0.97,2.81,3.11,0.24,885.9,31.01
5117549,-0.03,-0.06,0.94,2.99,1.77,0.43,885.87,31.01
5117587,-0.03,-0.05,1.02,2.81,1.46,0.37,885.9,31.0
5117625,-0.03,-0.06,1.02,2.75,2.14,0.06,885.84,31.0
5117664,-0.04,-0.05,1.02,2.26,2.32,0.31,885.93,31.0
5117702,-0.03,-0.05,1.03,1.83,2.26,0.18,885.93,31.01
5117740,-0.03,-0.05,1.04,1.89,2.56,0.0,885.91,31.0
5117778,-0.03,-0.06,0.98,1.77,3.05,0.06,885.91,31.01
5117816,-0.04,-0.05,1.0,1.83,2.44,0.0,885.95,31.01
5117866,-0.04,-0.06,0.98,1.4,3.66,-0.24,885.93,30.98
5117904,-0.03,-0.05,1.0,1.34,3.3,-0.24,885.94,31.0
5117942,-0.04,-0.06,1.01,1.1,4.03,-0.18,885.94,31.0
5117980,-0.03,-0.06,1.01,1.1,3.6,-0.18,885.99,31.01
5118018,-0.03,-0.06,0.98,1.1,3.66,-0.24,886.01,31.01
5118056,-0.03,-0.06,0.89,0.92,3.72,-0.18,885.97,31.02
5118095,-0.04,-0.07,0.88,0.67,3.78,-0.12,886.0,31.01
5118133,-0.03,-0.07,0.85,0.55,3.78,-0.31,886.03,31.01
5118171,-0.04,-0.05,0.9,0.43,3.48,-0.06,886.06,31.02
5118209,-0.04,-0.07,0.89,0.43,3.78,-0.12,886.01,31.03
5118259,-0.04,-0.06,0.97,0.0,3.05,-0.18,886.01,31.0
5118297,-0.05,-0.07,0.98,0.18,3.48,-0.06,886.05,31.01
5118335,-0.04,-0.06,1.03,0.12,2.87,-0.12,886.04,31.01
5118373,-0.05,-0.06,1.0,-0.06,3.97,-0.06,886.0,31.01
5118411,-0.05,-0.05,1.01,0.12,3.42,-0.18,886.05,31.01
5118449,-0.04,-0.06,1.01,-0.12,3.66,-0.06,886.05,31.01
5118487,-0.04,-0.05,1.0,-0.06,3.23,-0.06,886.09,31.0
5118526,-0.05,-0.04,1.06,-0.12,3.17,0.0,886.11,31.02
5118564,-0.04,-0.05,1.06,-0.06,3.36,-0.06,886.02,31.01
5118613,-0.05,-0.04,1.13,0.06,3.17,0.0,886.0,31.0
5118652,-0.04,-0.05,1.12,0.18,3.36,0.0,886.0,31.01
5118690,-0.05,-0.04,1.2,0.12,3.23,0.12,886.07,31.01
5118728,-0.04,-0.04,1.18,0.43,3.78,0.18,886.04,31.0
5118766,-0.04,-0.03,1.21,0.67,2.75,0.37,886.02,31.01
5118804,-0.05,-0.03,1.19,1.04,3.23,0.43,886.08,31.01
5118842,-0.05,-0.04,1.17,1.1,3.11,0.31,886.05,31.02
5118881,-0.04,-0.04,1.18,1.22,3.11,0.31,886.08,31.03
5118919,-0.05,-0.04,1.16,1.53,2.38,0.49,886.06,31.02
5118957,-0.05,-0.04,1.18,1.46,2.62,0.43,886.02,31.02
5119033,-0.04,-0.04,1.18,1.59,2.69,0.37,886.08,31.0
5119071,-0.05,-0.05,1.18,1.89,2.5,0.43,886.07,30.99
5119109,-0.05,-0.04,1.17,1.77,2.81,0.55,886.07,31.01
5119198,-0.06,-0.05,1.16,2.08,3.11,0.73,886.08,30.98
5119237,-0.06,-0.05,1.13,1.95,3.42,0.67,886.1,30.99
5119275,-0.05,-0.05,1.1,2.14,3.23,0.67,886.11,31.0
5119313,-0.06,-0.05,1.09,2.26,3.05,0.79,886.08,30.99
5119351,-0.06,-0.05,1.04,1.89,3.3,0.79,886.15,31.0
5119389,-0.05,-0.06,1.07,1.89,3.23,0.67,886.13,31.0
5119439,-0.05,-0.06,1.05,1.71,3.66,0.98,886.13,30.99
5119477,-0.04,-0.04,1.1,1.28,3.3,1.1,886.06,31.0
5119515,-0.04,-0.06,1.11,1.16,3.11,0.92,886.08,31.0
5119553,-0.05,-0.06,1.11,1.1,3.05,0.98,886.08,31.0
5119591,-0.05,-0.06,1.12,0.79,3.6,1.16,886.07,31.0
5119629,-0.03,-0.05,1.1,0.98,3.48,1.1,886.12,31.01
5119668,-0.05,-0.05,1.09,0.92,3.36,1.1,886.14,31.01
5119706,-0.04,-0.06,1.09,1.22,3.85,1.1,886.1,31.0
5119744,-0.04,-0.08,1.07,1.46,3.85,0.98,886.12,31.0
5119782,-0.04,-0.07,1.08,1.28,4.27,0.98,886.09,30.99
5119832,-0.04,-0.07,1.05,1.28,5.19,0.79,886.09,30.99
5119870,-0.05,-0.06,1.04,1.04,5.13,0.73,886.13,31.0
5119908,-0.05,-0.06,1.04,1.04,5.86,0.85,886.17,31.0
5119946,-0.05,-0.07,1.01,0.98,5.55,0.85,886.07,31.01
5119984,-0.05,-0.06,1.04,1.16,5.37,0.98,886.15,31.01
5120022,-0.05,-0.07,1.02,1.22,5.74,0.92,886.14,31.01
5120060,-0.04,-0.06,1.03,1.28,5.19,1.1,886.11,31.0
5120099,-0.03,-0.07,1.02,0.85,4.82,0.92,886.14,31.01
5120137,-0.05,-0.07,1.01,0.79,5.13,1.1,886.11,31.0
5120175,-0.04,-0.06,1.02,0.55,4.88,1.46,886.12,31.0
5120225,-0.04,-0.07,1.03,0.49,4.46,1.16,886.08,30.97
5120263,-0.04,-0.06,1.04,0.31,4.33,1.28,886.12,30.99
5120301,-0.05,-0.07,1.03,0.24,4.46,1.34,886.06,30.99
5120339,-0.04,-0.07,1.05,0.24,4.88,1.22,886.09,30.99
5120377,-0.04,-0.06,1.05,0.18,4.7,1.34,886.1,30.99
5120415,-0.05,-0.06,1.05,0.24,4.64,1.22,886.09,30.99
5120454,-0.04,-0.07,1.05,0.37,4.82,1.16,886.14,31.0
5120492,-0.04,-0.07,1.06,0.24,4.52,1.16,886.12,30.99
5120530,-0.04,-0.07,1.05,0.18,4.21,1.46,886.08,30.98
5120580,-0.03,-0.06,1.06,0.18,4.46,1.4,886.07,30.98
5120618,-0.04,-0.06,1.08,0.24,4.03,1.4,886.08,31.0
5120656,-0.04,-0.07,1.09,0.0,3.48,1.59,886.13,30.99
5120694,-0.03,-0.07,1.09,0.18,3.23,1.22,886.08,30.99
5120732,-0.04,-0.07,1.09,-0.12,3.78,1.46,886.04,30.99
5120770,-0.04,-0.06,1.06,0.06,3.54,1.4,886.08,30.99
5120808,-0.04,-0.06,1.09,0.18,3.17,1.34,886.09,30.98
5120847,-0.03,-0.07,1.06,0.31,3.97,1.28,886.06,30.99
5120885,-0.05,-0.06,1.09,0.18,3.91,1.4,886.09,31.0
5120923,-0.05,-0.06,1.12,0.73,3.97,1.22,886.08,30.99
5120973,-0.04,-0.07,1.11,0.67,3.48,1.28,886.07,30.97
5121011,-0.04,-0.06,1.1,0.67,3.85,1.4,886.04,30.98
5121049,-0.04,-0.06,1.1,0.67,4.33,1.22,886.1,31.0
5121087,-0.04,-0.07,1.09,0.98,4.58,1.34,886.11,30.99
5121125,-0.04,-0.06,1.07,1.04,4.39,1.16,886.01,30.98
5121163,-0.04,-0.06,1.08,1.22,4.46,1.4,886.05,31.0
5121201,-0.04,-0.06,1.08,1.28,4.21,1.16,886.02,30.99
5121239,-0.05,-0.07,1.08,1.28,4.15,1.16,886.04,30.99
5121277,-0.03,-0.06,1.08,1.16,4.27,1.16,886.06,30.99
5121316,-0.02,-0.06,1.08,1.4,4.03,1.16,886.0,30.99
5121365,-0.04,-0.07,1.08,1.53,4.64,1.04,886.01,30.98
5121403,-0.04,-0.06,1.1,1.59,5.13,0.79,886.0,30.99
5121442,-0.05,-0.06,1.08,1.65,4.82,0.98,886.01,30.99
5121480,-0.06,-0.05,1.1,1.28,4.82,1.04,885.97,30.98
