timestamp,acc_x,acc_y,acc_z,rot_x,rot_y,rot_z,qfe,temp
2676513,-0.01,-0.06,1.01,2.5,7.57,1.34,906.28,33.41
2676551,-0.03,-0.06,0.98,2.26,7.45,1.22,906.25,33.4
2676640,0.0,-0.06,0.96,2.69,6.96,1.28,906.24,33.37
2676678,-0.02,-0.06,0.95,2.75,7.02,1.22,906.22,33.4
2676717,-0.03,-0.07,0.83,2.26,8.67,1.34,906.22,33.39
2676755,-0.01,-0.05,0.9,2.69,8.06,1.04,906.13,33.4
2676793,-0.02,-0.08,0.83,2.44,9.46,1.22,906.09,33.38
2676831,-0.02,-0.07,0.81,2.32,8.42,1.22,906.2,33.39
2676869,-0.02,-0.07,0.79,2.2,10.31,0.85,906.13,33.41
2676919,-0.02,-0.07,0.77,2.44,10.01,0.92,906.06,33.39
2676957,-0.02,-0.08,0.72,1.77,10.68,1.16,906.06,33.39
2676995,-0.01,-0.08,0.74,2.14,10.8,0.92,906.03,33.41
2677033,-0.0,-0.06,0.69,1.89,10.56,0.92,906.08,33.39
2677071,-0.01,-0.07,0.63,1.83,10.07,1.22,906.03,33.41
2677109,0.01,-0.08,0.58,1.77,7.51,1.04,905.99,33.4
2677147,0.0,-0.07,0.57,2.14,5.25,1.04,905.9,33.41
2677186,0.02,-0.07,0.46,1.77,3.97,1.1,905.99,33.41
2677224,0.02,-0.05,0.51,2.5,1.22,1.1,905.92,33.4
2677273,0.01,-0.09,0.5,2.44,0.55,1.16,905.95,33.4
2677311,0.03,-0.07,0.58,3.36,-2.5,0.92,905.93,33.41
2677350,0.06,-0.09,0.62,3.23,-1.95,0.24,905.9,33.4
2677388,0.02,-0.06,0.68,3.11,-2.01,0.12,905.98,33.41
2677426,0.02,-0.05,0.78,3.78,-2.38,0.12,905.93,33.41
2677464,0.01,-0.08,0.82,3.11,-1.4,-0.06,905.95,33.4
2677502,-0.0,-0.06,0.91,3.17,-2.14,-0.24,905.97,33.42
2677540,-0.01,-0.06,0.93,2.81,-0.49,-0.43,905.98,33.4
2677578,0.03,-0.06,1.0,2.99,-0.73,-0.67,905.99,33.41
2677616,0.03,-0.07,1.0,2.38,1.34,-0.85,905.99,33.41
2677666,-0.0,-0.05,1.07,2.99,-0.61,-0.92,906.03,33.41
2677704,-0.01,-0.07,1.04,2.32,2.56,-0.79,905.98,33.4
2677742,-0.02,-0.04,1.05,2.08,0.06,-1.04,906.03,33.41
2677780,-0.01,-0.04,1.1,2.08,0.85,-1.16,906.01,33.4
2677818,-0.03,-0.06,1.0,2.08,2.01,-1.22,906.06,33.41
2677856,0.0,-0.05,1.08,2.56,0.67,-1.28,906.06,33.41
2677895,-0.02,-0.06,1.02,2.38,1.95,-1.22,906.05,33.41
2677933,-0.04,-0.04,1.04,2.99,0.92,-0.98,906.07,33.41
2677971,-0.02,-0.05,1.04,2.87,3.17,-1.1,906.04,33.42
2678021,-0.03,-0.06,0.99,2.69,2.5,-1.22,906.01,33.4
2678059,-0.05,-0.06,0.93,2.14,3.05,-1.1,906.1,33.41
2678097,-0.02,-0.05,0.95,2.32,2.93,-1.16,906.05,33.41
2678135,-0.01,-0.06,0.9,1.83,4.88,-1.1,906.04,33.4
2678173,-0.04,-0.05,0.88,1.95,4.27,-0.79,906.09,33.41
2678211,-0.05,-0.06,0.9,2.01,4.21,-0.67,906.06,33.41
2678249,-0.04,-0.07,0.86,1.4,5.55,-0.85,906.05,33.41
2678287,-0.03,-0.05,0.92,1.34,4.76,-0.92,906.06,33.42
2678326,-0.03,-0.06,0.92,1.04,5.98,-0.73,906.03,33.4
2678364,-0.02,-0.07,0.89,0.43,5.68,-0.73,905.99,33.42
2678413,-0.03,-0.05,0.98,0.18,6.41,-0.61,906.02,33.4
2678452,-0.02,-0.06,0.97,-0.55,6.04,-0.49,906.06,33.4
2678490,-0.03,-0.05,1.04,-0.92,4.88,-0.55,905.99,33.41
2678528,-0.03,-0.05,1.02,-1.28,6.29,-0.55,906.07,33.42
2678566,-0.01,-0.05,1.05,-1.34,5.49,-0.49,906.1,33.41
2678604,-0.01,-0.04,1.07,-1.04,4.58,-0.55,906.05,33.4
2678642,-0.05,-0.04,1.05,-0.61,4.82,-0.24,906.05,33.41
2678680,-0.02,-0.03,1.07,-0.49,5.25,-0.18,906.08,33.41
2678718,-0.0,-0.04,1.12,0.43,4.64,-0.49,906.05,33.4
2678768,-0.04,-0.05,1.05,1.1,4.58,-0.18,906.1,33.41
2678806,-0.03,-0.04,1.05,1.71,3.78,-0.31,906.03,33.41
2678844,-0.01,-0.04,1.04,1.71,4.82,-0.43,906.1,33.42
2678882,-0.03,-0.04,1.06,2.08,3.6,-0.31,906.08,33.41
2678920,-0.04,-0.05,1.03,2.08,3.6,-0.06,906.06,33.42
2678958,-0.03,-0.05,1.06,2.81,3.11,-0.37,906.04,33.42
2678996,-0.04,-0.04,1.03,2.99,3.42,-0.24,906.02,33.42
2679034,-0.03,-0.04,1.03,3.66,2.38,-0.18,906.08,33.41
2679072,-0.02,-0.04,1.02,3.78,2.93,-0.24,906.09,33.4
2679111,-0.03,-0.05,1.0,4.52,2.81,-0.12,906.06,33.41
2679160,-0.04,-0.05,0.96,5.07,2.26,0.0,906.08,33.39
2679198,-0.04,-0.05,0.94,4.82,2.32,0.12,906.09,33.42
2679237,-0.02,-0.05,0.91,4.64,1.83,0.12,906.1,33.4
2679275,-0.02,-0.05,0.88,4.03,1.71,0.0,906.02,33.42
2679313,-0.01,-0.06,0.89,3.54,0.98,-0.06,906.06,33.41
2679351,-0.01,-0.06,0.87,2.69,1.1,0.0,906.05,33.41
2679389,-0.03,-0.05,0.88,2.75,-0.06,0.24,906.09,33.4
2679427,-0.03,-0.06,0.86,2.32,0.61,0.06,906.06,33.42
2679465,-0.03,-0.06,0.79,1.95,0.61,-0.06,906.13,33.41
2679541,-0.04,-0.07,0.77,1.77,0.37,0.49,906.07,33.37
2679579,-0.02,-0.05,0.79,1.71,-0.12,0.12,906.08,33.39
2679617,-0.03,-0.05,0.82,1.83,0.18,0.31,906.1,33.4
2679706,-0.04,-0.06,0.85,1.77,1.71,0.49,906.11,33.35
2679744,-0.04,-0.05,0.84,1.59,1.89,0.31,906.1,33.37
2679783,-0.04,-0.05,0.81,1.4,3.36,0.49,906.12,33.37
2679821,-0.04,-0.05,0.8,1.4,4.76,0.43,906.16,33.38
2679859,-0.04,-0.05,0.82,1.59,5.68,0.37,906.07,33.37
2679897,-0.05,-0.05,0.8,1.34,7.39,0.55,906.07,33.39
2679935,-0.03,-0.05,0.82,1.22,8.91,0.61,906.16,33.39
2679985,-0.04,-0.05,0.88,1.4,10.07,0.67,906.06,33.37
2680023,-0.03,-0.05,0.87,1.16,10.74,0.79,906.12,33.39
2680061,-0.01,-0.05,0.91,1.16,9.64,1.1,906.1,33.39
2680099,-0.03,-0.05,0.87,1.16,10.07,1.22,906.12,33.41
2680137,-0.03,-0.05,0.86,1.22,8.18,1.4,906.1,33.4
2680175,-0.02,-0.05,0.96,1.95,7.51,1.53,906.08,33.39
2680214,-0.01,-0.05,0.92,1.53,7.39,1.71,906.1,33.41
2680252,-0.03,-0.03,1.01,2.26,4.58,1.77,906.13,33.39
2680290,-0.04,-0.04,1.0,1.95,5.31,1.77,906.08,33.39
2680328,-0.01,-0.03,1.09,1.89,3.3,2.01,906.15,33.41
2680378,-0.02,-0.04,1.07,2.01,3.85,2.01,906.11,33.4
2680416,-0.02,-0.03,1.09,2.87,2.32,2.2,906.12,33.4
2680454,-0.01,-0.03,1.06,2.99,3.6,2.01,906.14,33.41
2680492,-0.02,-0.03,1.05,3.85,2.2,1.77,906.14,33.4
2680530,-0.02,-0.03,1.02,3.97,2.62,1.95,906.11,33.41
2680568,-0.04,-0.05,0.97,4.82,2.44,1.71,906.15,33.41
2680606,-0.02,-0.04,0.99,5.13,2.5,1.71,906.12,33.41
2680645,-0.01,-0.04,0.96,5.31,2.32,1.77,906.15,33.42
2680683,-0.02,-0.04,0.96,5.49,2.14,2.01,906.16,33.41
2680733,-0.02,-0.05,0.91,5.19,2.32,1.89,906.13,33.39
2680771,-0.02,-0.04,0.93,5.13,1.28,1.65,906.12,33.39
2680809,-0.01,-0.04,0.92,4.64,1.53,1.95,906.11,33.39
2680847,-0.02,-0.04,0.87,3.85,1.34,1.71,906.07,33.4
2680885,-0.01,-0.04,0.92,3.78,1.1,1.77,906.15,33.41
2680923,-0.03,-0.05,0.9,2.87,1.34,1.89,906.13,33.4
2680961,-0.01,-0.05,0.94,3.23,-0.31,1.71,906.16,33.41
2680999,-0.02,-0.05,0.9,2.56,0.43,1.77,906.13,33.4
2681037,-0.02,-0.04,0.93,2.56,-0.24,1.77,906.17,33.41
2681076,-0.01,-0.05,0.92,2.38,-0.24,1.77,906.19,33.41
2681125,-0.03,-0.03,0.94,2.69,-1.28,2.01,906.2,33.39
2681163,-0.03,-0.05,0.94,2.81,-1.22,1.89,906.2,33.41
2681202,-0.04,-0.05,0.89,2.93,-1.22,2.01,906.24,33.42
2681240,-0.02,-0.04,0.92,3.36,-1.95,1.77,906.19,33.41
2681278,-0.03,-0.05,0.85,3.11,-1.1,1.77,906.18,33.39
2681316,-0.03,-0.05,0.85,3.6,-1.28,1.83,906.27,33.41
2681354,-0.04,-0.05,0.8,3.54,-0.92,1.71,906.2,33.4
2681392,-0.04,-0.06,0.79,3.91,-1.22,1.83,906.18,33.39
2681430,-0.05,-0.05,0.77,3.97,-0.85,1.83,906.25,33.42
2681480,-0.03,-0.05,0.76,3.78,-0.55,1.95,906.23,33.4
2681518,-0.04,-0.05,0.78,3.78,-0.37,2.08,906.22,33.4
2681556,-0.05,-0.06,0.76,3.85,0.12,2.26,906.24,33.42
2681594,-0.05,-0.05,0.79,3.85,0.55,2.5,906.2,33.41
2681632,-0.04,-0.05,0.78,3.72,1.4,2.5,906.27,33.41
2681671,-0.04,-0.05,0.8,3.72,1.53,2.56,906.26,33.4
2681709,-0.05,-0.05,0.8,3.66,2.08,2.75,906.28,33.41
2681747,-0.03,-0.05,0.82,3.91,2.38,2.81,906.33,33.4
2681785,-0.04,-0.05,0.83,4.21,2.32,2.99,906.33,33.41
2681823,-0.04,-0.05,0.84,4.27,2.32,3.17,906.28,33.41
2681873,-0.05,-0.05,0.84,4.76,2.32,3.3,906.37,33.4
2681911,-0.05,-0.05,0.84,5.19,1.89,3.42,906.38,33.41
2681949,-0.05,-0.05,0.82,5.43,1.59,3.66,906.31,33.4
2681987,-0.05,-0.05,0.81,5.74,1.1,3.97,906.36,33.41
2682025,-0.04,-0.05,0.77,5.62,1.04,3.97,906.35,33.42
2682063,-0.04,-0.05,0.79,5.98,0.37,4.21,906.33,33.41
2682101,-0.05,-0.06,0.76,5.49,0.67,4.52,906.32,33.42
2682140,-0.04,-0.05,0.78,5.62,-0.55,4.39,906.32,33.41
2682178,-0.05,-0.05,0.78,5.49,0.06,4.46,906.34,33.4
2682216,-0.04,-0.05,0.8,5.25,-0.79,4.76,906.37,33.41
2682266,-0.05,-0.06,0.78,5.07,-0.79,4.82,906.32,33.41
2682304,-0.06,-0.05,0.78,5.07,-0.98,5.0,906.33,33.4
2682342,-0.04,-0.04,0.81,5.19,-1.34,5.19,906.38,33.41
2682380,-0.04,-0.05,0.8,5.07,-1.65,5.25,906.4,33.41
2682418,-0.04,-0.06,0.8,5.19,-2.32,5.19,906.41,33.42
2682456,-0.04,-0.05,0.79,5.07,-2.81,5.25,906.39,33.4
2682495,-0.04,-0.06,0.82,5.31,-3.54,5.43,906.37,33.4
2682533,-0.03,-0.06,0.8,5.13,-4.21,5.49,906.4,33.41
2682571,-0.06,-0.05,0.82,5.0,-4.82,5.43,906.37,33.41
2682647,-0.04,-0.05,0.78,4.46,-5.25,5.68,906.44,33.38
2682685,-0.05,-0.05,0.8,4.46,-5.55,5.49,906.5,33.39
2682723,-0.04,-0.06,0.77,4.21,-5.62,5.62,906.5,33.4
2682812,-0.05,-0.05,0.79,3.97,-6.23,5.8,906.52,33.36
2682850,-0.05,-0.05,0.79,3.97,-6.16,5.74,906.51,33.37
2682889,-0.04,-0.06,0.79,3.66,-6.35,5.8,906.59,33.39
2682927,-0.04,-0.05,0.81,3.72,-6.35,5.86,906.53,33.4
2682965,-0.04,-0.05,0.79,3.54,-5.92,5.68,906.51,33.39
2683003,-0.04,-0.05,0.8,3.54,-6.04,5.62,906.66,33.41
2683041,-0.04,-0.06,0.81,3.23,-5.62,5.68,906.62,33.39
2683091,-0.05,-0.05,0.84,3.05,-5.68,5.55,906.62,33.38
2683129,-0.04,-0.06,0.81,2.75,-5.13,5.55,906.67,33.39
2683167,-0.04,-0.05,0.85,2.87,-5.43,5.31,906.66,33.39
2683205,-0.05,-0.06,0.83,2.56,-5.49,5.49,906.65,33.4
2683243,-0.05,-0.06,0.87,2.69,-5.74,5.43,906.64,33.4
2683282,-0.05,-0.06,0.87,2.62,-5.31,5.25,906.69,33.42
2683320,-0.04,-0.05,0.88,2.5,-5.55,5.19,906.76,33.42
2683358,-0.05,-0.05,0.88,2.44,-5.55,5.25,906.7,33.41
2683396,-0.06,-0.05,0.91,2.26,-5.62,5.25,906.67,33.4
2683446,-0.05,-0.06,0.91,1.95,-5.25,5.07,906.75,33.38
2683484,-0.05,-0.05,0.91,1.53,-5.49,5.07,906.75,33.4
2683522,-0.06,-0.05,0.95,1.65,-6.16,5.07,906.8,33.4
2683560,-0.05,-0.05,0.94,1.16,-5.07,4.94,906.85,33.4
2683598,-0.05,-0.04,0.95,1.04,-5.55,4.82,906.9,33.39
2683637,-0.06,-0.05,0.95,0.79,-4.94,5.13,906.94,33.4
2683675,-0.05,-0.05,0.98,0.73,-5.25,5.0,906.96,33.41
2683713,-0.08,-0.05,0.97,0.92,-4.33,5.19,907.0,33.39
2683751,-0.07,-0.04,1.0,0.85,-3.85,5.13,907.0,33.41
2683801,-0.06,-0.04,1.0,0.85,-2.5,5.07,907.01,33.39
2683839,-0.07,-0.04,1.02,0.55,-2.62,5.31,907.04,33.39
2683877,-0.06,-0.05,1.01,0.31,-1.83,5.31,907.03,33.4
2683915,-0.07,-0.04,1.01,0.24,-2.2,5.49,907.09,33.41
2683953,-0.07,-0.04,1.02,0.06,-2.08,5.74,907.05,33.4
2683991,-0.07,-0.04,1.01,-0.18,-2.69,5.68,907.09,33.4
2684029,-0.07,-0.04,1.06,-0.18,-2.87,6.04,907.16,33.41
2684068,-0.08,-0.04,1.02,-0.73,-2.69,6.41,907.18,33.42
2684106,-0.07,-0.04,1.07,-0.24,-3.66,6.41,907.22,33.4
2684144,-0.08,-0.04,1.02,-1.04,-2.93,6.65,907.22,33.41
2684194,-0.08,-0.04,1.08,-1.04,-3.23,6.9,907.19,33.39
2684232,-0.08,-0.05,1.03,-1.46,-2.93,7.08,907.26,33.4
2684270,-0.09,-0.03,1.05,-1.89,-3.42,7.14,907.33,33.39
2684308,-0.07,-0.04,1.05,-2.14,-2.81,7.39,907.29,33.39
2684346,-0.05,-0.05,1.07,-2.56,-2.81,7.57,907.33,33.4
2684384,-0.07,-0.04,1.1,-2.5,-2.2,7.75,907.36,33.39
2684422,-0.07,-0.05,1.09,-2.56,-1.65,7.93,907.41,33.4
2684461,-0.07,-0.04,1.11,-2.81,-1.65,8.0,907.44,33.39
2684499,-0.08,-0.04,1.1,-2.87,-1.28,8.06,907.48,33.41
2684548,-0.05,-0.06,1.11,-2.87,-0.73,8.36,907.53,33.39
2684587,-0.06,-0.04,1.07,-3.17,-1.16,8.42,907.6,33.39
2684625,-0.06,-0.05,1.08,-2.81,-1.34,8.67,907.59,33.4
2684663,-0.05,-0.05,1.05,-3.48,-0.92,8.79,907.57,33.39
2684701,-0.07,-0.04,1.1,-3.3,-0.85,8.79,907.68,33.4
2684739,-0.07,-0.06,1.05,-3.72,0.67,8.79,907.71,33.39
2684777,-0.05,-0.05,1.08,-3.85,0.92,8.67,907.69,33.4
2684815,-0.05,-0.04,1.1,-4.03,1.71,8.79,907.69,33.4
2684854,-0.06,-0.05,1.1,-4.21,2.75,9.03,907.71,33.39
2684892,-0.06,-0.04,1.14,-4.03,2.81,9.22,907.71,33.39
2684941,-0.05,-0.04,1.16,-4.46,3.72,9.34,907.76,33.39
2684980,-0.06,-0.03,1.19,-4.39,3.36,9.34,907.78,33.4
2685018,-0.05,-0.04,1.2,-4.88,4.15,9.64,907.81,33.39
2685056,-0.04,-0.04,1.21,-5.19,4.33,9.7,907.82,33.39
2685094,-0.05,-0.03,1.24,-5.25,4.15,9.89,907.9,33.39
2685132,-0.03,-0.02,1.29,-5.37,4.33,10.07,907.89,33.41
2685170,-0.04,-0.03,1.3,-5.55,3.91,10.19,907.88,33.39
2685208,-0.05,-0.03,1.32,-5.25,3.48,10.19,907.94,33.41
2685246,-0.03,-0.03,1.32,-5.37,4.33,10.25,907.91,33.4
2685296,-0.03,-0.02,1.36,-5.43,3.42,10.31,907.94,33.39
2685334,-0.05,-0.03,1.34,-5.43,3.66,10.56,907.98,33.39
2685373,-0.04,-0.02,1.39,-5.25,2.99,10.8,907.94,33.38
2685411,-0.03,-0.02,1.41,-5.07,3.3,10.68,907.99,33.41
2685449,-0.04,-0.03,1.4,-5.31,2.69,10.8,908.06,33.39
2685487,-0.04,-0.01,1.42,-5.0,2.5,10.74,907.99,33.39
2685525,-0.03,-0.03,1.42,-5.13,2.32,10.93,908.02,33.41
2685563,-0.04,-0.02,1.42,-5.25,1.77,11.05,908.07,33.4
2685601,-0.04,-0.02,1.43,-4.88,1.4,11.35,908.05,33.4
2685677,-0.04,-0.02,1.43,-4.88,0.61,11.29,908.1,33.37
2685715,-0.01,-0.02,1.41,-5.13,1.04,11.23,908.13,33.39
2685753,-0.02,-0.03,1.43,-4.82,0.61,11.23,908.14,33.39
2685843,-0.04,-0.03,1.43,-4.39,0.18,11.29,908.18,33.35
2685881,-0.02,-0.04,1.36,-4.94,1.1,11.23,908.22,33.36
2685919,-0.04,-0.03,1.37,-4.46,-0.67,11.17,908.29,33.37
2685957,-0.05,-0.04,1.34,-4.76,0.31,11.17,908.28,33.37
2685995,-0.03,-0.04,1.35,-4.64,-0.67,11.05,908.31,33.37
2686034,-0.03,-0.04,1.39,-4.58,-0.31,11.05,908.35,33.38
2686072,-0.03,-0.04,1.33,-5.19,0.31,11.17,908.3,33.38
2686121,-0.03,-0.04,1.37,-5.19,0.79,10.99,908.29,33.37
2686160,-0.06,-0.04,1.33,-5.25,0.61,11.11,908.38,33.38
2686198,-0.03,-0.04,1.37,-5.07,0.98,11.05,908.32,33.39
2686236,-0.02,-0.04,1.35,-5.49,1.1,11.11,908.37,33.38
2686274,-0.03,-0.03,1.39,-5.43,0.92,11.23,908.36,33.38
2686312,-0.03,-0.05,1.36,-5.49,1.77,11.11,908.41,33.38
2686350,-0.03,-0.04,1.41,-5.74,1.53,11.05,908.4,33.37
2686388,-0.03,-0.04,1.38,-5.68,1.83,10.99,908.39,33.37
2686427,-0.03,-0.04,1.4,-5.92,1.1,11.11,908.41,33.39
2686476,-0.01,-0.04,1.39,-5.98,2.2,11.05,908.41,33.37
2686515,-0.01,-0.03,1.42,-5.74,1.46,11.05,908.45,33.38
2686553,-0.04,-0.04,1.39,-5.68,2.14,10.99,908.46,33.38
2686591,-0.03,-0.04,1.39,-5.55,1.71,10.99,908.47,33.37
2686629,-0.03,-0.03,1.41,-5.62,1.77,11.05,908.48,33.38
2686667,-0.02,-0.04,1.39,-5.8,1.95,11.23,908.49,33.39
2686705,-0.03,-0.03,1.39,-5.62,1.83,11.05,908.48,33.38
2686743,-0.03,-0.04,1.38,-5.8,2.56,10.93,908.53,33.39
2686782,-0.03,-0.03,1.39,-5.43,2.69,11.23,908.5,33.39
2686832,-0.03,-0.04,1.39,-5.55,3.05,11.11,908.47,33.37
2686870,-0.03,-0.03,1.39,-5.37,3.05,11.05,908.45,33.39
2686908,-0.03,-0.04,1.4,-5.49,3.42,10.93,908.53,33.38
2686946,-0.02,-0.04,1.41,-5.43,3.54,10.93,908.54,33.39
2686984,-0.02,-0.05,1.39,-5.62,4.03,10.99,908.48,33.37
2687022,-0.02,-0.04,1.37,-5.43,4.58,10.99,908.53,33.37
2687060,-0.02,-0.04,1.36,-5.07,4.76,10.99,908.59,33.39
2687098,-0.03,-0.04,1.34,-5.0,5.13,10.8,908.53,33.37
2687137,-0.03,-0.04,1.34,-5.13,5.0,10.93,908.53,33.37
2687186,-0.01,-0.04,1.38,-4.94,6.1,10.86,908.52,33.36
2687224,-0.0,-0.05,1.38,-5.07,5.98,10.86,908.54,33.37
2687263,-0.02,-0.04,1.38,-4.94,5.92,10.99,908.54,33.38
2687301,-0.03,-0.05,1.38,-4.7,5.62,10.99,908.6,33.38
2687339,-0.0,-0.04,1.36,-4.88,5.0,10.99,908.6,33.38
2687377,-0.02,-0.04,1.36,-4.88,4.15,10.99,908.54,33.37
2687415,-0.02,-0.04,1.34,-5.19,4.33,11.11,908.49,33.39
2687453,-0.01,-0.04,1.37,-5.25,4.58,10.99,908.46,33.38
2687491,-0.0,-0.04,1.36,-5.62,4.7,10.99,908.61,33.4
2687530,-0.01,-0.03,1.38,-5.49,5.13,10.99,908.52,33.39
2687579,-0.01,-0.03,1.36,-5.68,4.7,10.86,908.54,33.38
2687617,-0.01,-0.04,1.36,-5.68,4.46,10.86,908.58,33.38
2687656,-0.01,-0.03,1.36,-5.68,4.64,11.11,908.56,33.38
2687694,-0.01,-0.05,1.38,-5.55,4.39,10.99,908.5,33.39
2687732,-0.01,-0.04,1.35,-5.98,4.39,10.99,908.56,33.39
2687770,-0.01,-0.03,1.39,-5.86,3.78,10.8,908.52,33.37
2687808,0.0,-0.04,1.39,-5.86,4.39,10.8,908.53,33.39
2687846,0.01,-0.04,1.36,-5.98,4.64,10.68,908.52,33.38
2687885,-0.0,-0.02,1.41,-5.62,4.15,10.44,908.53,33.39
2687934,-0.0,-0.03,1.39,-5.68,4.21,10.74,908.53,33.38
2687973,0.02,-0.02,1.46,-5.13,3.17,10.38,908.5,33.37
2688011,0.0,-0.03,1.45,-5.43,3.42,10.56,908.49,33.37
2688049,-0.0,-0.02,1.48,-5.13,2.26,10.5,908.47,33.38
2688087,0.0,-0.02,1.5,-5.07,2.69,10.44,908.48,33.38
2688125,0.0,-0.01,1.5,-4.94,2.38,10.5,908.52,33.38
2688163,0.0,-0.0,1.54,-4.76,2.44,10.25,908.51,33.4
2688201,-0.0,-0.02,1.55,-4.58,2.93,10.13,908.5,33.39
2688239,0.0,-0.0,1.56,-4.15,3.3,9.89,908.44,33.39
2688278,-0.0,-0.01,1.55,-3.78,3.54,9.7,908.45,33.39
2688327,-0.01,-0.01,1.51,-3.78,3.97,9.52,908.47,33.38
2688365,-0.01,-0.02,1.49,-3.54,3.66,9.46,908.48,33.39
2688404,-0.01,-0.02,1.46,-2.99,4.15,9.4,908.47,33.38
2688442,0.0,-0.03,1.42,-3.17,3.85,9.28,908.45,33.39
2688480,0.0,-0.03,1.41,-2.87,3.72,9.09,908.49,33.39
2688518,-0.01,-0.04,1.37,-3.05,4.15,9.03,908.47,33.39
2688556,-0.01,-0.04,1.39,-3.05,5.13,8.85,908.42,33.38
2688594,-0.0,-0.04,1.35,-3.78,5.49,8.97,908.39,33.39
2688632,-0.0,-0.03,1.35,-3.3,4.88,8.73,908.37,33.39
2688708,0.01,-0.04,1.35,-3.42,6.16,8.54,908.41,33.37
2688746,0.01,-0.03,1.38,-3.54,5.43,8.61,908.37,33.37
2688784,-0.01,-0.05,1.35,-3.54,5.07,8.48,908.41,33.38
2688874,0.01,-0.04,1.32,-3.72,3.78,8.67,908.27,33.34
2688912,0.01,-0.04,1.26,-3.6,3.66,8.42,908.29,33.35
2688950,0.01,-0.04,1.3,-3.3,2.93,8.24,908.28,33.37
2688988,0.03,-0.05,1.32,-3.36,2.69,8.06,908.25,33.37
2689026,0.01,-0.04,1.34,-3.05,2.01,8.0,908.25,33.37
2689064,-0.0,-0.03,1.39,-2.56,2.44,7.87,908.28,33.38
2689102,0.01,-0.03,1.36,-2.5,2.5,7.69,908.26,33.38
2689152,0.01,-0.05,1.41,-2.2,2.32,7.51,908.27,33.37
2689190,0.0,-0.05,1.36,-1.89,1.59,7.32,908.24,33.37
2689228,0.0,-0.04,1.37,-1.34,1.95,7.14,908.26,33.38
2689266,0.01,-0.06,1.25,-1.46,1.89,7.14,908.24,33.37
2689305,-0.03,-0.05,1.24,-0.73,-0.55,7.02,908.22,33.37
2689343,-0.01,-0.06,1.17,-1.22,0.43,7.08,908.28,33.37
2689381,0.0,-0.07,1.14,-0.92,-0.73,7.02,908.23,33.39
2689419,0.01,-0.05,1.15,-0.67,-0.98,6.84,908.24,33.38
2689457,-0.02,-0.06,1.09,-1.04,-0.79,6.9,908.29,33.39
2689507,-0.01,-0.06,1.07,-0.67,-0.49,6.96,908.19,33.37
2689545,-0.02,-0.07,1.02,-0.92,-0.43,7.02,908.21,33.38
2689583,-0.03,-0.07,0.93,-0.98,-0.79,6.96,908.22,33.37
2689621,0.0,-0.07,0.86,-0.98,0.37,6.96,908.18,33.39
2689659,-0.03,-0.07,0.82,-0.67,1.22,6.59,908.22,33.38
2689697,-0.02,-0.09,0.73,-1.28,2.38,6.77,908.19,33.39
2689736,-0.02,-0.08,0.75,-1.46,2.99,6.35,908.19,33.39
2689774,-0.02,-0.08,0.73,-2.26,5.55,6.41,908.13,33.39
2689812,-0.02,-0.06,0.8,-2.26,4.7,6.35,908.11,33.39
2689850,-0.02,-0.07,0.82,-2.69,6.71,6.23,908.17,33.38
2689900,-0.03,-0.07,0.9,-2.32,6.59,6.35,908.15,33.39
2689938,-0.02,-0.07,0.91,-2.5,8.24,6.41,908.14,33.4
2689976,-0.02,-0.06,0.97,-2.26,8.06,6.16,908.14,33.39
2690014,-0.03,-0.07,0.96,-2.69,9.46,6.47,908.09,33.38
2690052,-0.04,-0.06,1.0,-2.75,8.61,6.65,908.04,33.38
2690090,-0.04,-0.06,1.01,-2.75,9.83,6.65,908.07,33.39
2690128,-0.02,-0.06,1.03,-2.62,9.03,6.65,908.15,33.39
2690167,-0.04,-0.05,1.04,-2.5,8.61,6.96,908.08,33.39
2690205,-0.04,-0.06,1.04,-2.26,8.18,7.32,908.1,33.39
2690254,-0.04,-0.04,1.1,-2.08,7.81,7.57,908.09,33.38
2690293,-0.04,-0.05,1.08,-2.2,7.45,7.93,908.06,33.37
2690331,-0.04,-0.04,1.12,-1.95,6.84,8.0,908.05,33.39
2690369,-0.04,-0.04,1.12,-2.08,7.51,8.18,908.07,33.41
2690407,-0.03,-0.04,1.16,-1.89,6.84,8.48,908.05,33.39
2690445,-0.04,-0.04,1.15,-2.14,7.57,8.54,908.04,33.39
2690483,-0.05,-0.04,1.15,-1.83,7.51,8.67,908.01,33.38
2690521,-0.04,-0.04,1.19,-1.65,8.24,8.85,908.04,33.4
2690559,-0.02,-0.04,1.18,-1.65,7.69,9.09,908.04,33.39
2690598,-0.04,-0.03,1.18,-1.22,7.2,9.16,908.03,33.39
2690647,-0.03,-0.03,1.16,-1.04,7.63,9.34,908.07,33.38
2690685,-0.03,-0.04,1.15,-0.92,7.75,9.4,908.03,33.39
2690724,-0.02,-0.04,1.12,-1.22,6.96,9.64,907.97,33.39
2690762,-0.04,-0.03,1.15,-1.04,6.9,9.64,908.0,33.39
2690800,-0.02,-0.04,1.13,-1.1,7.45,9.83,907.96,33.41
2690838,-0.02,-0.03,1.15,-1.16,6.59,9.64,908.01,33.4
2690876,-0.02,-0.04,1.14,-1.34,7.45,10.01,907.97,33.38
2690914,-0.03,-0.03,1.17,-1.34,7.32,10.13,908.01,33.39
2690952,-0.02,-0.04,1.19,-1.34,7.57,10.25,907.93,33.37
2691002,-0.02,-0.04,1.16,-1.22,7.08,10.5,908.0,33.39
2691040,-0.02,-0.03,1.16,-1.16,6.47,10.5,907.94,33.38
2691079,-0.02,-0.04,1.13,-1.34,6.77,10.31,907.92,33.38
2691117,-0.01,-0.04,1.13,-1.1,6.1,10.5,907.93,33.39
2691155,-0.01,-0.04,1.11,-1.04,5.8,10.56,907.92,33.38
2691193,-0.01,-0.04,1.11,-0.79,5.8,10.68,907.9,33.39
2691231,-0.01,-0.04,1.1,-1.1,5.49,10.74,907.88,33.39
2691269,-0.02,-0.04,1.1,-1.22,5.74,10.62,907.83,33.37
2691307,-0.02,-0.05,1.1,-1.22,5.49,10.74,907.84,33.38
2691357,-0.01,-0.05,1.08,-1.22,5.86,10.62,907.89,33.38
2691395,-0.01,-0.04,1.09,-1.22,6.1,10.5,907.83,33.38
2691434,-0.01,-0.04,1.09,-1.28,6.1,10.56,907.85,33.38
2691472,-0.02,-0.05,1.1,-1.22,5.98,10.5,907.82,33.38
2691510,-0.02,-0.05,1.11,-1.28,6.04,10.5,907.83,33.38
2691548,-0.02,-0.04,1.09,-1.28,6.29,10.5,907.84,33.38
2691586,-0.01,-0.05,1.09,-1.28,5.8,10.5,907.8,33.39
2691624,-0.01,-0.05,1.09,-1.22,5.37,10.44,907.85,33.39
2691662,-0.02,-0.05,1.07,-1.22,5.74,10.56,907.87,33.39
2691700,-0.02,-0.05,1.07,-1.46,5.43,10.56,907.81,33.39
2691776,-0.01,-0.05,1.09,-1.59,5.25,10.56,907.8,33.35
2691814,-0.01,-0.05,1.09,-1.77,4.64,10.56,907.8,33.36
2691852,0.0,-0.04,1.12,-1.53,5.13,10.56,907.74,33.37
2691942,0.0,-0.04,1.14,-1.71,5.43,10.44,907.72,33.32
2691980,0.0,-0.04,1.14,-1.83,4.88,10.56,907.73,33.35
2692018,-0.01,-0.05,1.15,-1.77,4.21,10.31,907.73,33.35
2692056,-0.0,-0.05,1.14,-1.83,4.58,10.38,907.71,33.35
2692094,-0.01,-0.04,1.15,-1.83,4.58,10.13,907.74,33.34
2692133,-0.0,-0.03,1.15,-1.83,4.88,10.07,907.72,33.36
2692182,-0.0,-0.03,1.2,-1.53,3.85,10.07,907.64,33.34
2692220,-0.0,-0.04,1.17,-1.65,4.7,10.01,907.73,33.36
2692259,0.0,-0.04,1.18,-1.28,4.33,10.01,907.64,33.36
2692297,0.0,-0.04,1.16,-1.34,4.39,9.83,907.61,33.36
2692335,0.0,-0.03,1.16,-1.4,3.54,9.95,907.63,33.35
2692373,0.0,-0.04,1.15,-1.22,3.85,9.77,907.63,33.36
2692411,-0.0,-0.04,1.13,-1.4,3.91,9.58,907.63,33.37
2692449,0.0,-0.04,1.14,-1.4,3.54,9.77,907.63,33.37
2692487,0.01,-0.04,1.14,-1.46,4.15,9.58,907.63,33.37
2692525,0.0,-0.04,1.13,-1.16,4.94,9.52,907.6,33.38
2692575,0.01,-0.04,1.11,-1.04,5.49,9.52,907.61,33.36
2692613,0.0,-0.04,1.1,-0.92,6.41,9.16,907.53,33.36
2692651,0.0,-0.04,1.06,-0.79,7.14,9.09,907.61,33.38
2692689,0.01,-0.04,1.04,-0.73,8.0,8.97,907.57,33.37
2692727,0.0,-0.04,1.03,-0.67,8.24,8.85,907.51,33.38
2692765,0.01,-0.05,1.02,-0.31,8.91,8.61,907.53,33.37
2692804,0.01,-0.04,1.01,-0.06,9.89,8.73,907.51,33.37
2692842,0.01,-0.04,1.05,-0.24,10.44,8.36,907.47,33.37
2692880,0.01,-0.05,1.05,0.0,11.23,8.42,907.46,33.37
2692929,-0.0,-0.04,1.06,-0.06,11.6,8.18,907.48,33.37
2692968,0.01,-0.04,1.07,0.0,11.96,8.3,907.47,33.38
2693006,0.03,-0.04,1.06,-0.18,12.51,8.24,907.46,33.37
2693044,0.01,-0.04,1.06,-0.06,12.45,8.54,907.33,33.37
2693082,0.01,-0.04,1.05,0.18,13.37,8.36,907.47,33.38
2693120,0.02,-0.04,1.07,0.24,13.12,8.18,907.44,33.39
2693158,0.02,-0.05,1.03,0.06,14.16,8.24,907.42,33.38
2693196,0.01,-0.05,1.01,0.31,13.92,8.12,907.37,33.38
2693234,0.01,-0.04,1.0,0.61,15.2,8.12,907.34,33.38
2693273,0.02,-0.05,0.96,0.43,15.14,7.93,907.38,33.39
2693322,0.02,-0.05,0.97,0.85,15.08,7.81,907.31,33.38
2693360,0.03,-0.06,0.96,0.79,15.26,7.75,907.35,33.38
2693399,0.04,-0.05,1.01,0.61,14.95,7.63,907.37,33.39
2693437,0.05,-0.05,0.99,0.49,15.14,7.51,907.24,33.37
2693475,0.02,-0.05,1.01,0.43,14.83,7.45,907.28,33.39
2693513,0.04,-0.05,1.04,0.55,15.69,7.32,907.29,33.39
2693551,0.04,-0.05,1.03,0.55,15.81,7.45,907.26,33.38
2693589,0.03,-0.04,1.05,0.73,15.14,7.14,907.32,33.38
2693627,0.03,-0.04,1.04,0.49,15.26,7.2,907.22,33.35
2693677,0.04,-0.04,1.05,0.61,15.32,7.08,907.25,33.37
2693715,0.03,-0.05,1.05,0.37,15.38,6.96,907.22,33.37
2693753,0.04,-0.05,1.07,0.67,15.08,6.96,907.23,33.38
2693791,0.04,-0.04,1.06,0.55,15.32,6.59,907.28,33.39
2693830,0.03,-0.03,1.07,0.73,14.95,6.65,907.23,33.38
2693868,0.03,-0.04,1.08,1.16,14.95,6.53,907.21,33.37
2693906,0.04,-0.04,1.1,0.98,14.83,6.47,907.24,33.39
2693944,0.04,-0.04,1.11,1.16,15.08,6.23,907.18,33.38
2693982,0.04,-0.03,1.13,1.59,14.34,6.16,907.25,33.38
2694020,0.05,-0.04,1.12,2.01,15.08,6.29,907.25,33.38
2694070,0.06,-0.03,1.15,2.75,13.43,6.1,907.24,33.37
2694108,0.04,-0.05,1.09,3.11,14.04,5.74,907.19,33.38
2694146,0.05,-0.05,1.05,3.54,12.82,5.68,907.16,33.37
2694184,0.06,-0.05,1.02,4.21,13.67,5.43,907.17,33.38
2694223,0.05,-0.06,0.92,4.15,13.92,5.07,907.11,33.36
2694261,0.04,-0.05,0.94,4.88,12.76,5.07,907.14,33.39
2694299,0.04,-0.07,0.88,5.07,13.85,4.76,907.12,33.38
2694337,0.05,-0.06,0.89,5.25,12.76,4.33,907.12,33.37
2694375,0.03,-0.06,0.89,5.19,13.55,4.21,907.07,33.37
2694413,0.04,-0.07,0.83,5.19,12.94,3.72,907.1,33.37
2694463,0.06,-0.05,0.85,5.0,12.82,3.36,907.1,33.35
2694501,0.05,-0.07,0.81,4.58,12.45,3.11,907.17,33.37
2694539,0.05,-0.06,0.83,4.33,10.93,2.93,907.1,33.38
2694578,0.05,-0.07,0.83,3.97,10.68,2.56,907.13,33.38
2694616,0.05,-0.06,0.87,3.48,9.03,2.32,907.11,33.39
2694654,0.06,-0.05,0.93,3.17,7.26,2.01,907.14,33.38
2694692,0.06,-0.07,0.91,2.62,6.47,1.83,907.13,33.37
2694730,0.05,-0.03,0.95,2.69,5.25,1.34,907.11,33.38
2694768,0.05,-0.06,0.98,2.75,4.46,1.22,907.15,33.38
2694806,0.04,-0.05,1.0,2.87,3.72,0.85,907.18,33.38
2694883,0.05,-0.06,1.01,4.21,2.99,0.0,907.24,33.35
2694921,0.05,-0.06,1.0,4.82,2.32,-0.18,907.29,33.37
2694960,0.03,-0.05,0.97,5.43,2.5,-0.43,907.24,33.37
2695049,0.04,-0.06,0.92,6.77,2.93,-1.71,907.24,33.34
2695087,0.04,-0.07,0.83,7.26,3.97,-1.83,907.21,33.35
2695125,0.03,-0.06,0.84,7.87,4.39,-2.32,907.18,33.35
2695163,0.02,-0.07,0.79,7.75,5.43,-2.69,907.19,33.36
2695201,0.01,-0.07,0.77,8.0,5.49,-2.93,907.28,33.36
2695240,0.01,-0.07,0.74,7.87,6.23,-3.17,907.22,33.37
2695289,0.03,-0.07,0.71,7.39,6.53,-3.66,907.2,33.35
2695327,0.02,-0.07,0.69,7.02,6.29,-3.72,907.17,33.36
2695366,0.03,-0.07,0.66,6.04,6.71,-3.85,907.17,33.36
2695404,0.01,-0.07,0.66,5.13,5.92,-4.21,907.15,33.37
2695442,0.01,-0.07,0.69,4.46,5.43,-4.27,907.14,33.37
2695480,0.01,-0.07,0.7,3.3,5.07,-4.46,907.17,33.37
2695518,0.0,-0.06,0.74,2.75,3.78,-4.64,907.14,33.36
2695556,0.01,-0.06,0.73,1.83,3.97,-4.7,907.12,33.37
2695594,0.01,-0.06,0.76,1.1,3.48,-5.25,907.15,33.37
2695632,0.0,-0.07,0.79,0.67,3.85,-5.31,907.2,33.37
2695682,-0.01,-0.06,0.82,-0.18,4.46,-5.37,907.22,33.35
2695720,-0.02,-0.06,0.84,-0.31,5.25,-5.68,907.26,33.38
2695758,-0.01,-0.07,0.82,-0.98,6.16,-5.8,907.25,33.37
2695797,-0.02,-0.05,0.89,-1.4,5.74,-6.04,907.22,33.36
2695835,-0.02,-0.06,0.89,-1.77,7.14,-6.04,907.19,33.37
2695873,-0.01,-0.05,0.97,-1.95,6.71,-6.23,907.25,33.38
2695911,-0.02,-0.06,1.0,-2.26,7.08,-6.16,907.2,33.37
2695949,-0.03,-0.05,1.02,-2.38,6.59,-5.92,907.25,33.37
2695987,-0.04,-0.04,1.04,-2.69,6.9,-5.86,907.21,33.37
2696037,-0.03,-0.03,1.05,-2.56,6.84,-5.86,907.23,33.35
2696075,-0.05,-0.03,1.1,-2.32,5.92,-5.74,907.21,33.37
2696113,-0.04,-0.03,1.09,-2.26,5.86,-5.55,907.22,33.37
2696151,-0.05,-0.03,1.13,-1.77,5.13,-5.49,907.25,33.37
2696189,-0.04,-0.03,1.12,-1.89,6.1,-5.37,907.19,33.38
2696227,-0.04,-0.02,1.16,-1.34,5.13,-5.37,907.25,33.37
2696266,-0.06,-0.03,1.14,-1.16,5.62,-5.13,907.21,33.37
2696304,-0.06,-0.02,1.14,-0.98,5.25,-4.82,907.24,33.37
2696342,-0.06,-0.02,1.16,-0.79,5.68,-4.94,907.2,33.38
2696380,-0.05,-0.02,1.15,-0.92,5.37,-4.52,907.21,33.35
2696430,-0.06,-0.02,1.16,-0.24,5.19,-4.33,907.21,33.36
2696468,-0.05,-0.02,1.15,0.12,5.37,-4.15,907.19,33.38
2696506,-0.07,-0.02,1.16,0.85,4.94,-4.15,907.17,33.37
2696544,-0.07,-0.02,1.12,1.4,5.0,-3.78,907.21,33.37
2696582,-0.07,-0.02,1.12,2.01,4.88,-3.66,907.17,33.37
2696620,-0.06,-0.02,1.1,2.5,4.46,-3.54,907.22,33.38
2696658,-0.08,-0.02,1.07,2.44,3.78,-2.99,907.1,33.36
2696697,-0.09,-0.02,1.07,2.75,3.6,-2.99,907.12,33.37
2696735,-0.08,-0.03,1.05,2.56,4.33,-2.75,907.15,33.36
2696784,-0.08,-0.03,1.03,2.69,3.54,-2.32,907.14,33.35
2696823,-0.1,-0.03,0.98,2.26,4.27,-2.26,907.11,33.37
2696861,-0.08,-0.03,0.99,2.62,3.97,-2.08,907.09,33.35
2696899,-0.09,-0.04,0.96,2.44,3.97,-1.65,907.09,33.37
2696937,-0.09,-0.04,0.94,2.38,3.42,-1.28,907.1,33.36
2696975,-0.09,-0.03,0.94,2.32,3.42,-1.04,907.08,33.37
2697013,-0.08,-0.04,0.92,2.2,4.09,-0.79,907.14,33.37
2697051,-0.07,-0.04,0.91,1.95,3.66,-0.73,907.08,33.37
2697089,-0.08,-0.04,0.94,1.77,4.03,-0.55,907.03,33.37
2697139,-0.07,-0.04,0.94,1.28,4.21,-0.43,907.15,33.36
2697177,-0.08,-0.03,0.97,0.79,4.39,-0.24,907.05,33.36
2697215,-0.09,-0.03,0.95,0.55,5.0,0.0,907.06,33.37
2697253,-0.07,-0.03,1.0,0.49,4.88,0.0,907.08,33.37
2697291,-0.07,-0.03,1.01,0.24,5.86,0.0,907.11,33.36
2697329,-0.07,-0.02,1.02,0.12,5.19,0.24,907.06,33.36
2697368,-0.07,-0.02,1.05,-0.06,5.43,0.31,907.1,33.37
2697406,-0.06,-0.02,1.07,-0.31,5.92,0.61,907.06,33.36
2697444,-0.07,-0.02,1.09,-0.18,5.43,0.79,907.07,33.37
2697482,-0.08,-0.02,1.08,-0.31,5.37,1.16,907.08,33.36
2697532,-0.07,-0.01,1.1,-0.06,5.43,1.04,907.06,33.36
2697570,-0.06,-0.02,1.1,-0.31,5.31,1.34,907.07,33.36
2697608,-0.06,-0.02,1.11,-0.18,4.7,1.65,907.16,33.37
2697646,-0.07,-0.02,1.1,0.18,4.94,1.89,907.06,33.37
2697684,-0.07,-0.01,1.13,0.31,4.15,1.95,907.08,33.37
2697722,-0.06,-0.01,1.13,0.92,3.97,2.32,907.11,33.37
2697760,-0.06,-0.01,1.1,1.16,3.72,2.32,907.1,33.35
2697799,-0.07,-0.01,1.11,2.01,3.11,2.38,907.12,33.37
2697837,-0.06,-0.02,1.08,2.38,3.11,2.62,907.1,33.37
2697875,-0.06,-0.02,1.07,2.81,2.32,2.69,907.1,33.37
2697951,-0.06,-0.03,1.02,3.3,2.2,3.11,907.09,33.34
2697989,-0.06,-0.03,1.02,3.6,1.95,3.17,907.13,33.36
2698027,-0.06,-0.03,0.99,3.78,1.89,3.05,907.12,33.36
2698116,-0.06,-0.03,0.92,3.91,1.83,3.42,907.1,33.32
2698154,-0.06,-0.05,0.88,3.97,1.83,3.36,907.06,33.34
2698193,-0.06,-0.04,0.85,3.91,1.65,3.48,907.04,33.34
2698231,-0.05,-0.04,0.85,3.66,1.46,3.85,907.08,33.35
2698269,-0.05,-0.05,0.81,2.99,2.08,3.78,907.05,33.36
2698307,-0.06,-0.05,0.83,2.93,1.77,3.72,907.08,33.35
2698357,-0.05,-0.05,0.82,2.75,2.38,3.97,907.11,33.34
2698395,-0.05,-0.04,0.87,2.69,2.32,4.03,907.1,33.34
2698433,-0.05,-0.04,0.88,2.38,2.75,3.97,907.1,33.35
2698471,-0.06,-0.04,0.91,2.56,2.56,4.03,907.09,33.34
2698509,-0.05,-0.04,0.93,2.75,2.99,4.15,907.11,33.36
2698547,-0.05,-0.04,0.95,3.05,2.81,4.27,907.1,33.34
2698585,-0.05,-0.03,0.95,3.72,2.93,4.39,907.14,33.37
2698624,-0.04,-0.04,0.96,3.97,2.81,4.7,907.16,33.36
2698662,-0.04,-0.04,0.93,4.46,2.93,4.7,907.12,33.35
2698700,-0.04,-0.03,0.92,4.52,2.44,4.88,907.17,33.35
2698750,-0.03,-0.04,0.9,4.82,2.93,4.94,907.05,33.35
2698788,-0.03,-0.04,0.89,4.76,2.5,4.76,907.13,33.36
2698826,-0.04,-0.04,0.89,4.88,2.62,5.0,907.11,33.35
2698864,-0.03,-0.04,0.87,4.58,2.62,5.19,907.1,33.36
2698902,-0.03,-0.04,0.88,4.76,2.26,5.19,907.07,33.37
2698940,-0.03,-0.05,0.85,4.52,2.5,4.94,907.07,33.35
2698978,-0.03,-0.05,0.86,4.46,2.32,5.07,907.14,33.35
2699016,-0.03,-0.05,0.85,4.33,3.05,4.94,907.15,33.38
2699055,-0.03,-0.04,0.85,4.46,2.69,4.94,907.14,33.37
2699093,-0.02,-0.04,0.87,4.33,3.05,5.0,907.11,33.37
2699143,-0.02,-0.05,0.87,4.94,2.81,4.82,907.19,33.37
2699181,-0.03,-0.05,0.86,5.0,3.11,4.88,907.15,33.37
2699219,-0.02,-0.05,0.84,5.13,3.17,4.76,907.13,33.36
2699257,-0.03,-0.05,0.83,5.25,3.3,4.88,907.15,33.36
2699295,-0.02,-0.05,0.79,5.37,3.36,4.82,907.19,33.36
2699333,-0.02,-0.06,0.79,5.62,2.87,4.88,907.16,33.36
2699371,-0.02,-0.06,0.76,5.55,2.62,4.64,907.16,33.37
2699409,-0.03,-0.05,0.76,5.8,2.38,4.58,907.21,33.36
2699448,-0.01,-0.06,0.75,5.74,2.87,4.7,907.18,33.37
2699497,-0.02,-0.06,0.77,5.74,2.5,4.52,907.15,33.35
2699535,-0.04,-0.06,0.77,5.86,2.38,4.46,907.18,33.38
2699574,-0.02,-0.05,0.79,6.16,2.62,4.39,907.18,33.37
2699612,-0.02,-0.05,0.77,6.04,3.23,4.21,907.18,33.35
2699650,-0.02,-0.05,0.8,6.16,3.23,4.27,907.18,33.36
2699688,-0.01,-0.06,0.79,6.04,3.91,4.09,907.16,33.35
2699726,-0.01,-0.06,0.77,5.86,3.97,3.91,907.13,33.37
2699764,-0.02,-0.06,0.79,5.8,4.21,4.03,907.25,33.37
2699802,-0.02,-0.06,0.78,5.62,5.0,4.03,907.2,33.37
2699840,-0.02,-0.05,0.79,5.68,4.39,3.91,907.22,33.37
2699890,-0.01,-0.06,0.77,5.43,4.64,3.85,907.22,33.35
2699928,-0.01,-0.06,0.75,5.49,4.88,3.54,907.28,33.37
2699966,-0.01,-0.05,0.75,5.62,4.52,3.36,907.24,33.36
2700004,-0.01,-0.06,0.77,5.43,4.88,3.54,907.2,33.37
2700043,-0.0,-0.06,0.75,5.49,3.85,3.48,907.27,33.37
2700081,-0.02,-0.06,0.78,5.43,3.17,3.23,907.28,33.37
2700119,-0.01,-0.06,0.73,5.07,3.48,3.36,907.27,33.36
2700157,-0.01,-0.05,0.77,5.68,2.01,3.36,907.33,33.36
2700195,-0.01,-0.07,0.71,5.74,2.44,3.3,907.38,33.37
2700233,-0.01,-0.06,0.68,5.98,0.98,3.05,907.34,33.36
2700283,-0.02,-0.06,0.65,5.92,1.46,2.93,907.29,33.36
2700321,-0.02,-0.06,0.66,6.1,0.49,2.99,907.31,33.37
2700359,-0.02,-0.07,0.66,5.55,0.73,3.11,907.33,33.37
2700397,-0.02,-0.07,0.65,5.49,1.1,2.81,907.42,33.38
2700436,-0.02,-0.06,0.68,5.49,1.04,2.81,907.39,33.36
2700474,0.0,-0.07,0.65,5.13,1.04,2.69,907.35,33.37
2700512,-0.03,-0.06,0.7,5.37,0.55,2.62,907.39,33.36
2700550,-0.01,-0.07,0.65,5.13,1.83,2.32,907.41,33.37
2700588,-0.02,-0.06,0.7,5.43,1.04,2.26,907.46,33.38
2700638,-0.03,-0.07,0.69,5.19,2.2,2.32,907.5,33.35
2700676,-0.01,-0.06,0.7,5.43,1.95,2.14,907.47,33.36
2700714,-0.03,-0.06,0.72,5.49,2.75,2.08,907.51,33.37
2700752,-0.01,-0.07,0.73,5.62,2.32,2.08,907.52,33.36
2700790,-0.02,-0.06,0.74,5.86,3.23,2.08,907.48,33.36
2700828,-0.02,-0.06,0.71,6.1,2.75,2.08,907.58,33.38
2700866,-0.03,-0.06,0.71,6.35,2.14,2.14,907.64,33.37
2700905,-0.02,-0.07,0.67,6.29,2.01,2.14,907.63,33.38
2700943,-0.02,-0.07,0.66,6.47,1.77,2.08,907.6,33.36
2700981,-0.01,-0.06,0.61,6.23,1.65,1.95,907.59,33.37
2701057,-0.01,-0.07,0.58,6.1,1.71,2.08,907.69,33.34
2701095,-0.02,-0.07,0.55,5.8,1.59,1.95,907.68,33.35
2701133,-0.02,-0.07,0.57,5.68,0.73,1.89,907.7,33.34
2701222,-0.01,-0.07,0.61,3.6,0.43,2.01,907.65,33.33
2701260,-0.02,-0.08,0.59,2.56,0.98,1.83,907.71,33.34
2701299,-0.03,-0.07,0.68,2.56,0.92,1.83,907.78,33.35
2701337,-0.01,-0.07,0.67,2.08,2.69,1.71,907.73,33.34
2701375,-0.02,-0.06,0.74,2.08,1.4,1.71,907.81,33.34
2701413,-0.02,-0.07,0.74,1.77,2.56,2.08,907.79,33.33
2701451,-0.04,-0.07,0.78,1.46,1.77,1.83,907.88,33.35
2701501,-0.03,-0.06,0.83,1.28,2.5,2.08,907.87,33.34
2701539,-0.01,-0.06,0.87,1.1,2.26,2.01,907.93,33.35
2701577,-0.02,-0.06,0.91,1.1,3.17,2.14,907.93,33.34
2701615,-0.03,-0.06,0.9,0.85,3.6,2.2,907.9,33.35
2701653,-0.04,-0.05,0.95,1.1,4.21,2.14,907.91,33.35
2701691,-0.02,-0.06,0.92,0.92,5.25,2.38,907.98,33.33
2701729,-0.04,-0.04,0.95,1.4,4.33,2.26,908.03,33.34
2701767,-0.03,-0.05,0.93,1.4,5.13,2.44,908.03,33.36
2701805,-0.02,-0.05,0.94,1.53,4.76,2.44,908.06,33.35
2701855,-0.03,-0.06,0.93,1.89,4.94,2.69,908.12,33.34
2701893,-0.03,-0.05,0.99,2.32,4.27,2.87,908.09,33.35
2701931,-0.02,-0.05,1.02,2.26,5.74,2.75,908.2,33.36
2701970,-0.03,-0.05,1.02,2.5,5.0,2.93,908.15,33.35
2702008,-0.02,-0.04,1.07,2.5,5.19,3.17,908.18,33.36
2702046,-0.02,-0.04,1.05,2.5,5.13,3.42,908.23,33.35
2702084,-0.03,-0.04,1.07,2.69,5.19,3.36,908.28,33.37
2702122,-0.01,-0.05,1.09,2.87,5.25,3.72,908.25,33.35
2702160,-0.01,-0.05,1.08,3.11,5.19,3.72,908.32,33.35
2702198,-0.01,-0.06,1.06,3.48,5.0,3.85,908.34,33.36
2702248,-0.01,-0.06,1.04,3.54,5.8,3.6,908.38,33.34
2702286,-0.0,-0.05,1.03,3.78,5.55,3.66,908.39,33.36
2702324,-0.01,-0.06,1.0,3.97,5.55,3.72,908.45,33.36
2702362,-0.01,-0.07,0.99,3.97,5.49,3.48,908.48,33.37
2702400,-0.01,-0.06,0.96,3.42,5.13,3.48,908.52,33.37
2702438,-0.01,-0.05,0.97,3.48,4.39,3.36,908.52,33.36
2702476,0.0,-0.07,0.95,3.36,4.46,3.3,908.56,33.35
2702515,0.01,-0.07,0.94,3.05,4.03,3.11,908.54,33.36
2702553,-0.01,-0.06,0.94,3.3,3.54,3.05,908.61,33.37
2702591,-0.01,-0.07,0.91,2.99,3.36,3.17,908.64,33.37
2702641,-0.0,-0.06,0.93,3.17,2.99,2.87,908.65,33.36
2702679,-0.01,-0.08,0.92,2.81,3.17,2.81,908.71,33.36
2702717,0.0,-0.08,0.92,2.87,2.99,2.56,908.77,33.36
2702755,-0.01,-0.07,0.91,2.87,2.75,2.5,908.72,33.35
2702793,-0.03,-0.06,0.9,2.62,2.44,2.44,908.79,33.35
2702831,-0.0,-0.07,0.91,2.87,2.56,2.2,908.83,33.35
2702869,-0.0,-0.08,0.9,2.81,1.95,2.08,908.85,33.35
2702908,-0.01,-0.07,0.9,2.62,1.59,2.08,908.89,33.36
2702946,-0.02,-0.07,0.89,2.62,1.28,1.71,908.88,33.36
2702996,-0.01,-0.07,0.89,2.26,1.53,1.77,908.89,33.35
2703034,-0.0,-0.08,0.89,2.38,1.89,1.65,908.96,33.37
2703072,-0.01,-0.07,0.9,2.2,2.08,1.53,909.03,33.36
2703110,-0.03,-0.07,0.9,2.32,2.75,1.4,908.95,33.34
2703148,-0.01,-0.07,0.94,2.26,3.17,1.4,909.01,33.37
2703186,-0.02,-0.08,0.95,2.01,3.72,1.28,909.04,33.37
2703224,-0.02,-0.07,0.97,2.01,4.15,1.1,909.07,33.37
2703262,-0.02,-0.07,0.99,1.89,4.82,1.22,909.13,33.37
2703300,-0.01,-0.07,0.99,1.34,6.04,0.92,909.15,33.36
2703339,-0.0,-0.07,1.0,1.28,6.47,0.79,909.25,33.37
2703388,-0.01,-0.08,1.01,1.16,6.59,0.85,909.24,33.35
2703426,-0.01,-0.07,1.01,1.04,6.47,0.79,909.25,33.37
2703465,-0.01,-0.07,1.04,1.04,6.29,0.67,909.24,33.37
2703503,-0.01,-0.07,1.04,0.55,5.37,0.79,909.28,33.36
2703541,-0.02,-0.07,1.08,0.61,4.94,0.79,909.35,33.37
2703579,-0.01,-0.08,1.08,0.73,5.62,0.61,909.37,33.36
2703617,-0.02,-0.08,1.07,0.61,5.0,0.55,909.41,33.36
2703655,-0.02,-0.08,1.09,0.61,4.76,0.73,909.34,33.37
2703693,-0.03,-0.08,1.06,0.37,5.37,0.55,909.42,33.36
2703731,-0.03,-0.08,1.03,0.31,5.74,0.49,909.51,33.37
2703781,-0.02,-0.08,1.03,0.12,5.49,0.49,909.51,33.36
2703819,-0.03,-0.08,1.02,-0.18,6.1,0.31,909.54,33.36
2703857,-0.03,-0.08,1.01,-0.06,6.47,0.31,909.54,33.36
2703896,-0.04,-0.09,1.0,-0.06,6.41,0.31,909.6,33.35
2703934,-0.02,-0.08,1.0,-0.18,6.53,0.37,909.61,33.37
2703972,-0.02,-0.08,0.98,-0.06,6.1,0.18,909.66,33.37
2704010,-0.03,-0.08,0.94,0.12,5.43,0.31,909.69,33.37
2704048,-0.02,-0.08,0.96,0.49,4.27,0.24,909.74,33.36
2704086,-0.02,-0.09,0.93,0.31,4.33,0.43,909.69,33.36
2704162,-0.03,-0.08,0.97,0.43,4.09,0.31,909.83,33.35
2704200,-0.03,-0.09,0.95,0.49,4.15,0.24,909.81,33.34
2704238,-0.04,-0.08,0.97,0.31,2.75,0.43,909.88,33.35
2704328,-0.03,-0.08,1.0,0.67,3.17,0.37,909.89,33.3
2704366,-0.04,-0.07,1.01,0.79,2.5,0.43,909.93,33.33
2704404,-0.04,-0.08,1.03,1.1,2.38,0.49,909.99,33.33
2704442,-0.04,-0.08,1.01,0.98,2.32,0.55,910.02,33.33
2704480,-0.04,-0.08,1.02,1.22,1.77,0.55,910.06,33.35
2704518,-0.04,-0.08,0.99,1.34,2.14,0.61,910.02,33.33
2704556,-0.05,-0.08,0.96,1.34,2.01,0.67,910.1,33.34
2704606,-0.04,-0.09,0.98,1.4,3.6,0.67,910.14,33.33
2704644,-0.04,-0.08,1.02,1.22,2.62,0.79,910.18,33.34
2704682,-0.05,-0.08,1.03,1.59,3.42,0.92,910.21,33.34
2704720,-0.06,-0.08,0.97,1.16,3.91,0.98,910.21,33.34
2704758,-0.04,-0.08,1.0,1.4,4.27,0.92,910.22,33.35
2704797,-0.03,-0.08,0.94,0.85,4.7,0.85,910.3,33.33
2704835,-0.04,-0.08,0.96,1.53,3.48,1.22,910.3,33.34
2704873,-0.04,-0.09,0.92,1.16,4.94,1.04,910.35,33.34
2704911,-0.03,-0.08,0.96,1.4,4.15,1.04,910.3,33.34
2704949,-0.03,-0.08,0.97,1.04,4.09,1.22,910.42,33.35
2704999,-0.05,-0.09,0.98,0.73,3.85,1.22,910.38,33.33
2705037,-0.03,-0.08,1.0,0.73,3.78,1.28,910.47,33.34
2705075,-0.02,-0.08,1.0,0.73,3.66,1.28,910.48,33.36
2705113,-0.03,-0.08,1.0,0.85,3.42,1.22,910.52,33.35
2705151,-0.04,-0.08,1.0,0.92,4.03,1.22,910.5,33.35
2705190,-0.04,-0.08,1.04,0.98,3.91,1.22,910.57,33.34
2705228,-0.04,-0.09,1.05,1.1,4.27,1.28,910.58,33.35
2705266,-0.05,-0.08,1.09,1.22,5.07,1.22,910.65,33.37
2705304,-0.05,-0.08,1.09,0.79,5.98,0.98,910.62,33.35
2705354,-0.04,-0.07,1.18,1.34,5.49,1.16,910.69,33.34
2705392,-0.04,-0.08,1.15,1.04,5.86,1.1,910.78,33.35
2705430,-0.04,-0.08,1.17,1.83,4.82,1.1,910.73,33.35
2705468,-0.05,-0.08,1.15,1.53,5.43,1.4,910.79,33.35
2705506,-0.05,-0.07,1.13,1.46,3.91,1.28,910.8,33.35
2705544,-0.05,-0.06,1.18,1.59,3.48,1.4,910.81,33.35
2705582,-0.02,-0.07,1.22,0.98,2.69,1.65,910.75,33.35
2705621,-0.05,-0.07,1.25,1.22,1.53,1.46,910.86,33.34
2705659,-0.07,-0.07,1.25,0.98,1.53,1.59,910.84,33.34
2705697,-0.04,-0.08,1.28,1.34,1.53,1.59,910.93,33.36
2705747,-0.04,-0.07,1.24,1.4,1.22,1.53,910.95,33.35
2705785,-0.06,-0.07,1.21,1.77,1.53,1.59,910.97,33.33
2705823,-0.04,-0.07,1.16,1.89,2.01,1.59,911.02,33.35
2705861,-0.06,-0.07,1.16,2.69,1.46,1.53,911.01,33.35
2705899,-0.05,-0.09,1.11,2.32,2.56,1.53,911.02,33.35
2705937,-0.05,-0.08,1.12,2.56,1.65,1.53,911.03,33.35
2705975,-0.04,-0.08,1.08,2.5,2.32,1.28,911.07,33.36
2706014,-0.05,-0.09,1.06,2.93,2.5,1.34,911.05,33.33
2706052,-0.05,-0.09,1.02,2.56,2.99,1.53,911.11,33.35
2706101,-0.06,-0.08,1.03,2.87,2.14,1.53,911.15,33.33
2706140,-0.07,-0.09,0.99,2.62,3.23,1.59,911.18,33.36
2706178,-0.05,-0.08,0.98,2.56,2.44,1.46,911.23,33.36
2706216,-0.06,-0.09,1.0,2.81,2.32,1.65,911.18,33.35
2706254,-0.05,-0.09,0.94,2.2,2.56,1.71,911.25,33.35
2706292,-0.07,-0.08,1.0,2.38,1.53,1.95,911.21,33.35
2706330,-0.08,-0.09,0.97,1.59,3.48,2.08,911.2,33.35
2706369,-0.07,-0.07,1.04,1.95,1.95,1.89,911.24,33.35
2706407,-0.08,-0.09,1.04,1.59,3.05,2.2,911.26,33.35
2706445,-0.07,-0.09,1.09,1.65,2.14,2.32,911.31,33.35
2706495,-0.06,-0.08,1.13,1.46,3.42,2.5,911.34,33.34
2706533,-0.06,-0.08,1.1,1.59,2.93,2.81,911.35,33.34
2706571,-0.07,-0.08,1.11,1.77,2.93,2.81,911.38,33.34
2706609,-0.07,-0.09,1.05,1.4,3.85,2.75,911.44,33.36
2706647,-0.08,-0.08,1.06,1.65,2.93,2.93,911.5,33.36
2706685,-0.07,-0.08,1.02,1.4,3.11,2.93,911.43,33.35
2706723,-0.08,-0.09,1.08,1.83,2.44,3.17,911.5,33.35
2706761,-0.05,-0.1,1.03,1.1,3.6,3.23,911.43,33.35
2706799,-0.11,-0.08,1.08,1.83,3.42,3.3,911.54,33.35
2706837,-0.07,-0.09,1.09,1.59,4.7,3.54,911.56,33.37
2706887,-0.06,-0.09,1.11,1.34,4.46,3.6,911.58,33.35
2706925,-0.09,-0.08,1.1,1.28,5.43,3.97,911.6,33.35
2706964,-0.08,-0.09,1.08,1.46,5.49,4.27,911.65,33.35
2707002,-0.08,-0.08,1.11,1.4,5.25,4.39,911.59,33.35
2707040,-0.07,-0.1,1.07,1.1,6.59,4.52,911.69,33.35
2707078,-0.07,-0.09,1.08,1.34,6.65,4.7,911.71,33.37
2707116,-0.07,-0.09,1.07,1.53,7.2,4.82,911.75,33.36
2707154,-0.08,-0.09,1.04,1.34,7.69,5.07,911.74,33.36
2707192,-0.08,-0.09,1.06,1.1,7.2,5.31,911.72,33.36
2707268,-0.06,-0.09,1.03,1.65,7.57,5.25,911.87,33.34
2707306,-0.05,-0.09,1.03,1.4,7.93,5.43,911.72,33.33
2707344,-0.07,-0.1,0.99,1.4,8.79,5.68,911.83,33.35
2707434,-0.05,-0.1,1.03,2.08,9.58,5.8,911.93,33.31
2707472,-0.06,-0.1,1.05,2.14,10.07,5.92,911.9,33.31
2707510,-0.04,-0.1,1.01,2.32,10.19,5.74,912.0,33.32
2707548,-0.03,-0.09,1.0,2.5,10.07,5.92,912.0,33.32
2707586,-0.04,-0.1,0.96,2.38,10.31,5.74,912.04,33.34
2707624,-0.03,-0.09,0.95,2.62,9.34,5.8,912.03,33.34
2707662,-0.03,-0.1,0.94,2.75,8.73,5.74,912.06,33.34
2707712,-0.02,-0.1,0.87,2.44,7.26,5.55,912.04,33.32
2707750,-0.02,-0.1,0.9,2.56,6.29,5.31,912.06,33.33
2707788,-0.0,-0.11,0.85,1.89,5.0,5.43,912.1,33.34
2707826,-0.03,-0.09,0.83,1.83,2.62,5.31,912.1,33.34
2707865,-0.03,-0.1,0.81,1.4,2.38,5.19,912.12,33.34
2707903,-0.02,-0.1,0.83,1.53,1.46,5.19,912.15,33.33
2707941,-0.02,-0.1,0.82,0.79,1.04,4.76,912.16,33.35
2707979,-0.0,-0.1,0.85,0.98,-0.49,4.76,912.19,33.34
2708017,-0.01,-0.1,0.85,0.98,-0.79,4.64,912.15,33.35
2708055,-0.02,-0.1,0.85,0.79,-0.92,4.39,912.16,33.35
2708105,-0.02,-0.11,0.92,0.79,-1.4,4.15,912.16,33.34
2708143,-0.01,-0.11,0.95,0.55,-1.89,3.72,912.19,33.36
2708181,-0.02,-0.1,1.03,0.49,-2.38,3.54,912.21,33.35
2708219,-0.01,-0.11,1.08,0.43,-1.71,3.48,912.23,33.35
2708257,0.0,-0.1,1.1,0.12,-2.44,3.17,912.26,33.35
2708296,-0.01,-0.09,1.11,0.43,-3.17,2.93,912.23,33.35
2708334,-0.01,-0.11,1.08,0.55,-3.85,2.99,912.34,33.35
2708372,0.0,-0.11,1.01,0.79,-4.15,2.62,912.32,33.34
2708410,0.0,-0.1,0.96,1.1,-5.13,2.62,912.41,33.35
2708460,0.02,-0.1,0.89,0.98,-5.0,2.5,912.42,33.35
2708498,-0.0,-0.1,0.86,1.65,-4.76,2.08,912.48,33.35
2708536,0.01,-0.11,0.87,2.01,-4.33,2.08,912.47,33.36
2708574,0.04,-0.12,0.85,1.46,-3.17,1.46,912.42,33.33
2708612,0.0,-0.11,0.83,1.22,-2.75,0.98,912.51,33.33
2708650,0.0,-0.11,0.82,1.34,-1.59,0.55,912.57,33.35
2708688,0.02,-0.1,0.77,0.73,-1.77,0.49,912.54,33.34
2708726,0.01,-0.1,0.78,0.43,-0.92,0.24,912.53,33.35
2708764,-0.02,-0.1,0.78,0.37,-0.24,-0.18,912.63,33.35
2708803,-0.01,-0.11,0.82,0.73,-0.61,-0.31,912.68,33.35
2708852,0.01,-0.1,0.88,0.31,0.12,-0.55,912.68,33.33
2708890,-0.01,-0.1,0.96,0.49,1.22,-0.55,912.74,33.35
2708929,-0.0,-0.11,0.96,0.61,2.32,-0.61,912.7,33.34
2708967,-0.02,-0.1,0.94,0.55,1.89,-0.92,912.81,33.35
2709005,-0.03,-0.11,0.99,0.85,1.28,-0.85,912.77,33.34
2709043,-0.01,-0.11,0.97,0.49,2.32,-0.85,912.84,33.35
2709081,-0.03,-0.09,1.01,1.34,1.71,-0.92,912.83,33.34
2709119,-0.03,-0.11,1.02,1.71,2.62,-0.98,912.83,33.34
2709157,-0.03,-0.09,1.04,1.95,1.16,-0.79,912.91,33.35
2709207,-0.04,-0.1,1.05,2.14,1.1,-0.67,912.98,33.34
2709245,-0.05,-0.1,1.04,2.32,0.43,-0.67,912.93,33.35
2709283,-0.03,-0.1,1.03,2.56,0.67,-0.61,913.01,33.34
2709322,-0.02,-0.1,1.04,2.75,-0.43,-0.73,913.02,33.33
2709360,-0.04,-0.11,1.01,2.5,-0.31,-0.61,913.03,33.35
2709398,-0.06,-0.1,0.99,2.75,-0.31,-0.43,913.08,33.35
2709436,-0.03,-0.11,1.01,2.81,0.79,-0.67,913.08,33.34
2709474,-0.06,-0.11,0.96,2.87,0.92,-0.49,913.11,33.35
2709512,-0.03,-0.09,0.96,2.75,0.49,-0.43,913.06,33.35
2709550,-0.03,-0.09,0.94,2.75,0.92,-0.43,913.11,33.34
2709600,-0.02,-0.1,0.93,2.26,0.79,-0.49,913.17,33.35
2709638,-0.04,-0.11,0.93,2.62,-0.06,-0.37,913.16,33.34
2709676,-0.04,-0.1,0.91,1.89,-0.18,-0.37,913.12,33.33
2709714,-0.04,-0.1,0.95,2.14,-0.73,-0.31,913.19,33.34
2709752,-0.05,-0.11,0.93,2.2,-0.31,-0.37,913.22,33.35
2709791,-0.04,-0.1,0.91,1.71,-1.22,-0.43,913.29,33.36
2709829,-0.06,-0.11,0.94,2.14,-1.16,-0.31,913.25,33.33
2709867,-0.04,-0.09,0.92,1.77,-1.04,-0.24,913.3,33.35
2709905,-0.07,-0.09,0.93,1.71,-2.08,-0.18,913.32,33.35
2709955,-0.06,-0.1,0.89,1.65,-2.38,0.0,913.33,33.34
2709993,-0.06,-0.11,0.9,1.71,-2.2,-0.18,913.32,33.34
2710031,-0.07,-0.1,0.85,1.59,-3.23,0.12,913.34,33.34
2710069,-0.04,-0.1,0.9,1.65,-3.3,0.24,913.38,33.34
2710107,-0.04,-0.1,0.92,1.53,-3.23,0.18,913.38,33.34
2710145,-0.09,-0.11,0.9,1.4,-3.23,0.61,913.45,33.35
2710183,-0.07,-0.09,0.98,1.71,-3.85,0.79,913.47,33.35
2710221,-0.08,-0.11,0.94,1.22,-2.38,0.61,913.53,33.34
2710260,-0.09,-0.09,0.96,1.34,-3.48,0.98,913.63,33.36
2710298,-0.07,-0.1,1.0,1.04,-1.77,1.4,913.63,33.36
2710373,-0.09,-0.09,1.06,1.46,-1.28,1.65,913.65,33.31
2710412,-0.08,-0.1,1.08,0.92,1.1,1.89,913.68,33.33
2710450,-0.09,-0.1,1.11,1.71,-0.06,2.08,913.7,33.33
2710539,-0.07,-0.1,1.09,1.71,1.53,2.69,913.83,33.31
2710577,-0.07,-0.1,1.04,1.04,2.32,2.87,913.82,33.32
2710615,-0.1,-0.09,1.03,1.46,2.38,3.05,913.82,33.32
2710653,-0.08,-0.1,0.99,0.98,4.33,3.6,913.92,33.33
2710691,-0.07,-0.1,0.99,1.04,4.33,3.66,913.88,33.33
2710730,-0.08,-0.09,0.99,0.79,3.97,3.85,913.85,33.33
2710779,-0.09,-0.09,0.97,0.18,5.0,4.39,913.91,33.31
2710817,-0.04,-0.1,0.98,-0.12,4.7,4.27,913.91,33.31
2710856,-0.08,-0.09,1.04,-0.67,4.76,4.76,913.96,33.33
2710894,-0.06,-0.11,1.05,-1.28,5.68,5.07,914.02,33.32
2710932,-0.06,-0.1,1.1,-1.46,5.43,5.31,914.06,33.33
2710970,-0.07,-0.1,1.13,-1.59,5.13,5.31,914.12,33.32
2711008,-0.07,-0.1,1.12,-2.2,5.13,5.74,914.14,33.33
2711046,-0.05,-0.1,1.21,-1.77,4.46,5.49,914.14,33.33
2711084,-0.04,-0.11,1.18,-2.56,5.19,5.55,914.16,33.34
2711122,-0.05,-0.09,1.24,-2.2,4.15,5.8,914.22,33.33
2711172,-0.06,-0.1,1.22,-2.38,5.62,6.16,914.26,33.33
2711210,-0.07,-0.09,1.3,-1.59,4.94,5.98,914.26,33.33
2711248,-0.07,-0.1,1.27,-1.59,5.68,6.1,914.32,33.34
2711286,-0.04,-0.09,1.29,-1.59,5.74,6.29,914.28,33.34
2711324,-0.04,-0.09,1.29,-1.59,5.98,6.29,914.37,33.33
2711362,-0.07,-0.09,1.3,-1.65,5.8,6.65,914.32,33.33
2711401,-0.04,-0.09,1.36,-1.89,6.29,6.84,914.38,33.33
2711439,-0.04,-0.09,1.36,-2.62,7.14,7.02,914.41,33.33
2711477,-0.06,-0.08,1.38,-2.56,6.65,7.14,914.4,33.35
2711527,-0.05,-0.09,1.4,-2.14,6.35,7.14,914.5,33.33
2711565,-0.04,-0.09,1.39,-1.71,6.59,7.26,914.5,33.34
2711603,-0.04,-0.1,1.4,-1.04,5.92,7.57,914.55,33.34
2711641,-0.04,-0.09,1.35,-1.04,6.41,7.63,914.56,33.34
2711679,-0.05,-0.09,1.37,0.0,5.98,7.39,914.54,33.34
2711717,-0.03,-0.09,1.33,0.06,6.59,7.57,914.58,33.35
2711755,-0.03,-0.1,1.33,0.43,5.68,7.75,914.65,33.35
2711793,-0.04,-0.1,1.29,0.31,6.16,7.51,914.6,33.35
2711832,-0.04,-0.09,1.29,0.49,5.68,7.57,914.61,33.34
2711870,-0.01,-0.09,1.27,0.49,5.98,7.69,914.69,33.34
2711919,-0.04,-0.09,1.26,0.49,4.94,7.63,914.66,33.33
2711958,-0.02,-0.11,1.25,0.43,5.31,7.63,914.69,33.34
2711996,-0.01,-0.1,1.23,0.06,5.13,7.45,914.66,33.32
2712034,-0.03,-0.09,1.26,0.12,4.21,7.51,914.71,33.35
2712072,-0.02,-0.1,1.25,0.06,4.64,7.93,914.68,33.33
2712110,-0.02,-0.1,1.27,0.18,4.03,7.57,914.74,33.34
2712148,-0.02,-0.1,1.25,0.31,4.15,7.45,914.75,33.34
2712186,-0.02,-0.1,1.29,0.67,3.6,7.51,914.79,33.33
2712224,0.0,-0.1,1.25,0.06,3.78,7.51,914.76,33.33
2712274,-0.01,-0.09,1.26,0.49,3.54,7.14,914.79,33.33
2712312,-0.0,-0.1,1.17,0.12,3.72,7.26,914.78,33.34
2712351,-0.0,-0.09,1.22,0.73,2.01,7.2,914.8,33.34
2712389,0.01,-0.1,1.19,0.43,2.5,7.08,914.81,33.34
2712427,0.0,-0.09,1.21,0.55,1.4,6.96,914.81,33.34
2712465,0.01,-0.11,1.23,0.92,1.4,6.77,914.85,33.35
2712503,0.01,-0.11,1.18,0.61,1.65,6.59,914.83,33.34
2712541,-0.0,-0.1,1.17,0.92,1.65,6.47,914.86,33.34
2712579,-0.01,-0.1,1.1,0.85,2.5,6.23,914.84,33.33
2712617,0.0,-0.1,1.05,0.61,2.62,6.16,914.83,33.33
2712667,0.03,-0.1,1.06,0.92,2.99,6.04,914.88,33.32
2712705,-0.02,-0.1,1.09,1.04,2.81,5.8,914.84,33.32
2712744,-0.02,-0.1,1.08,0.85,5.07,5.74,914.84,33.33
2712782,0.02,-0.09,1.21,0.55,5.31,5.62,914.84,33.32
2712820,0.03,-0.1,1.3,0.61,5.8,5.37,914.81,33.33
2712858,-0.0,-0.12,1.19,0.31,6.47,5.37,914.83,33.32
2712896,0.02,-0.1,1.23,1.4,5.43,5.07,914.87,33.33
2712934,0.02,-0.1,1.12,1.22,7.32,4.82,914.87,33.34
2712972,0.01,-0.11,1.0,1.46,6.53,4.76,914.8,33.32
2713010,0.01,-0.1,0.99,1.65,6.04,4.39,914.91,33.34
2713060,0.01,-0.12,0.92,1.16,7.39,4.27,914.85,33.32
2713098,0.03,-0.1,0.96,1.4,7.26,4.09,914.89,33.33
2713136,0.03,-0.11,0.95,1.16,8.48,3.72,914.85,33.33
2713175,0.02,-0.11,0.97,1.28,8.36,3.54,914.95,33.33
2713213,0.01,-0.11,1.01,1.16,8.61,3.6,914.89,33.34
2713251,0.05,-0.11,1.0,0.55,9.16,3.17,914.94,33.33
2713289,0.0,-0.1,1.0,0.55,9.09,2.99,914.93,33.32
2713327,-0.0,-0.1,0.97,0.73,9.09,2.93,914.9,33.33
2713365,0.01,-0.11,0.98,0.49,9.77,2.69,914.97,33.33
2713403,0.02,-0.11,0.98,0.18,8.91,2.56,914.99,33.34
2713479,0.02,-0.11,0.97,-0.06,7.14,2.32,914.97,33.31
2713517,0.01,-0.1,1.0,-0.43,4.39,2.2,915.07,33.33
2713555,0.0,-0.1,1.03,-0.73,3.42,2.26,915.08,33.33
2713644,-0.02,-0.1,1.11,-0.37,1.22,2.08,915.12,33.3
2713683,-0.01,-0.1,1.12,-0.55,1.22,2.08,915.08,33.3
2713721,-0.03,-0.1,1.15,-0.31,1.46,1.95,915.05,33.31
2713759,-0.03,-0.1,1.14,0.31,1.65,1.77,915.12,33.32
2713797,-0.03,-0.1,1.16,0.49,1.53,1.83,915.14,33.32
2713835,-0.01,-0.1,1.14,0.37,1.95,1.95,915.19,33.33
2713885,-0.02,-0.09,1.13,1.1,1.59,1.71,915.18,33.31
2713923,-0.05,-0.1,1.06,1.04,2.56,1.95,915.12,33.33
2713961,-0.02,-0.11,1.05,1.16,2.2,1.83,915.21,33.33
2713999,-0.03,-0.1,1.08,1.34,2.2,1.71,915.14,33.31
2714037,-0.04,-0.1,1.04,1.16,3.23,1.71,915.16,33.31
2714076,-0.03,-0.11,1.05,1.4,3.36,1.83,915.17,33.34
2714114,-0.02,-0.11,1.08,1.46,3.78,1.89,915.22,33.33
2714152,-0.04,-0.1,1.07,1.22,3.66,1.89,915.23,33.33
2714190,-0.04,-0.09,1.08,1.53,3.3,2.01,915.23,33.33
2714228,-0.04,-0.1,1.08,0.79,3.48,2.01,915.15,33.32
2714278,-0.04,-0.09,1.11,0.98,2.99,2.08,915.16,33.3
2714316,-0.05,-0.1,1.11,0.55,3.23,2.44,915.23,33.33
2714354,-0.04,-0.09,1.14,0.67,3.6,2.5,915.23,33.33
2714392,-0.06,-0.1,1.13,1.16,4.15,2.5,915.23,33.33
2714430,-0.05,-0.09,1.14,1.28,3.6,2.81,915.23,33.32
2714469,-0.05,-0.1,1.1,1.04,3.85,2.87,915.21,33.32
2714507,-0.06,-0.09,1.09,1.59,3.91,2.93,915.29,33.33
2714545,-0.05,-0.1,1.02,1.53,4.88,3.23,915.28,33.33
2714583,-0.04,-0.1,0.98,1.46,5.0,3.23,915.23,33.33
2714621,-0.05,-0.09,0.98,1.83,5.25,3.11,915.23,33.33
2714671,-0.06,-0.09,0.91,1.53,5.25,3.72,915.28,33.33
2714709,-0.06,-0.09,0.93,1.89,5.31,3.72,915.26,33.32
2714747,-0.04,-0.1,0.96,1.59,5.0,3.85,915.24,33.32
2714785,-0.05,-0.1,0.97,1.22,4.27,3.91,915.25,33.31
2714823,-0.05,-0.09,1.02,1.04,3.78,4.27,915.3,33.31
2714861,-0.03,-0.1,1.01,0.79,4.82,4.21,915.23,33.31
2714900,-0.04,-0.1,1.0,0.79,3.97,4.58,915.34,33.31
2714938,-0.05,-0.1,1.01,0.92,4.09,4.7,915.26,33.31
2714976,-0.04,-0.1,0.98,0.79,4.88,4.64,915.36,33.33
2715026,-0.03,-0.09,1.0,1.22,4.7,4.64,915.28,33.31
2715064,-0.03,-0.1,1.01,1.22,4.7,4.88,915.33,33.31
2715102,-0.04,-0.1,0.99,1.34,5.62,5.0,915.26,33.3
2715140,-0.04,-0.1,1.01,1.53,5.8,5.19,915.36,33.3
2715178,-0.04,-0.09,1.01,1.46,6.41,5.37,915.28,33.31
2715216,-0.04,-0.1,1.01,1.71,6.35,5.31,915.32,33.31
2715255,-0.03,-0.1,1.0,1.95,7.02,5.43,915.34,33.3
2715293,-0.03,-0.09,1.02,1.89,7.02,5.68,915.3,33.31
2715331,-0.03,-0.09,1.06,1.95,6.84,5.86,915.29,33.31
2715369,-0.03,-0.1,1.04,1.95,6.47,5.92,915.39,33.31
2715419,-0.03,-0.09,1.07,2.2,6.59,6.23,915.31,33.31
2715457,-0.03,-0.1,1.05,2.01,6.84,6.29,915.36,33.31
2715495,-0.02,-0.1,1.06,2.14,6.41,6.16,915.4,33.31
2715533,-0.03,-0.09,1.05,2.26,6.77,6.41,915.31,33.31
2715571,-0.03,-0.1,1.01,2.38,7.32,6.35,915.36,33.31
2715609,-0.02,-0.09,1.02,2.56,7.26,6.47,915.35,33.33
2715647,-0.02,-0.1,1.0,2.62,7.69,6.53,915.42,33.34
2715686,-0.01,-0.1,1.01,2.62,8.0,6.41,915.36,33.32
2715724,-0.01,-0.1,0.99,2.87,7.87,6.59,915.37,33.32
2715762,-0.0,-0.1,0.97,2.81,7.81,6.47,915.36,33.34
2715812,-0.0,-0.1,0.94,2.69,7.81,6.35,915.35,33.31
2715850,-0.01,-0.1,0.91,2.75,7.75,6.41,915.3,33.33
2715888,0.0,-0.1,0.92,2.69,8.18,6.35,915.28,33.33
2715926,0.0,-0.1,0.9,2.32,8.36,6.41,915.32,33.32
2715964,-0.02,-0.1,0.89,2.69,8.42,6.53,915.27,33.32
2716002,0.01,-0.1,0.91,2.62,8.73,6.53,915.3,33.32
2716040,0.0,-0.1,0.91,2.26,8.97,6.29,915.32,33.32
2716078,-0.0,-0.1,0.94,2.5,8.67,6.41,915.28,33.33
2716116,0.0,-0.1,0.94,2.38,8.91,6.41,915.32,33.33
2716166,0.01,-0.09,0.97,2.69,7.57,6.35,915.33,33.31
2716204,0.02,-0.1,0.95,2.26,7.75,6.1,915.37,33.33
2716242,0.02,-0.1,0.96,2.08,6.47,5.86,915.37,33.33
2716281,0.01,-0.1,0.98,2.01,6.04,5.86,915.38,33.34
2716319,0.03,-0.1,0.96,1.83,5.19,5.68,915.43,33.34
2716357,0.03,-0.11,0.97,1.83,4.58,5.37,915.4,33.33
2716395,0.02,-0.11,0.97,1.89,4.21,5.31,915.43,33.33
2716433,0.02,-0.1,0.97,1.83,3.3,4.82,915.43,33.33
2716471,0.03,-0.1,1.0,1.53,3.3,4.88,915.43,33.35
2716509,0.03,-0.1,1.0,1.95,3.23,4.46,915.39,33.34
2716586,0.03,-0.1,0.99,2.01,2.93,3.97,915.34,33.29
2716625,0.03,-0.1,0.97,1.77,3.05,3.6,915.44,33.32
2716663,0.03,-0.11,0.97,2.08,2.69,3.36,915.42,33.31
2716752,0.04,-0.1,0.94,2.44,2.62,2.69,915.41,33.28
2716790,0.03,-0.09,0.95,2.44,3.3,2.5,915.47,33.3
2716828,0.02,-0.1,0.94,2.75,3.54,2.26,915.43,33.31
2716866,0.03,-0.09,0.94,2.81,4.21,1.95,915.45,33.31
2716905,0.0,-0.1,0.93,2.62,4.94,1.83,915.41,33.33
2716943,0.02,-0.1,0.92,2.69,5.86,1.65,915.36,33.31
2716981,0.04,-0.09,0.95,2.38,6.47,1.34,915.48,33.33
2717031,0.03,-0.09,0.95,2.75,7.51,1.16,915.41,33.31
2717069,0.0,-0.1,0.93,2.75,7.87,1.16,915.45,33.32
2717107,-0.0,-0.1,0.97,2.81,7.69,0.98,915.48,33.31
2717145,0.01,-0.1,0.93,2.62,8.73,0.92,915.5,33.32
2717183,0.01,-0.09,0.96,2.75,7.93,0.73,915.47,33.32
2717221,0.01,-0.09,0.95,2.56,8.67,0.79,915.49,33.31
2717259,0.03,-0.09,0.96,2.44,8.61,0.61,915.47,33.33
2717297,0.01,-0.09,0.99,2.44,8.24,0.55,915.58,33.33
2717336,0.02,-0.09,1.04,2.32,7.2,0.37,915.51,33.33
2717374,-0.03,-0.1,1.04,2.14,6.65,0.31,915.54,33.32
2717423,0.0,-0.1,1.0,2.2,5.92,0.18,915.61,33.31
2717462,0.02,-0.1,1.03,2.32,4.76,0.0,915.6,33.31
2717500,-0.02,-0.11,0.97,2.26,4.58,0.12,915.55,33.33
2717538,0.0,-0.09,0.97,2.01,4.39,-0.06,915.57,33.33
2717576,-0.0,-0.1,0.98,2.01,4.58,-0.24,915.59,33.33
2717614,0.01,-0.1,0.98,2.01,4.46,-0.24,915.6,33.33
2717652,-0.03,-0.1,0.97,1.83,4.46,-0.24,915.69,33.33
2717690,-0.01,-0.1,0.96,1.89,5.19,-0.31,915.63,33.33
2717728,-0.0,-0.09,0.97,1.95,4.82,-0.43,915.63,33.32
2717766,-0.02,-0.09,0.98,2.26,4.21,-0.31,915.67,33.33
2717816,-0.0,-0.1,0.89,2.01,5.19,-0.55,915.69,33.31
2717854,-0.0,-0.09,0.91,2.32,3.97,-0.61,915.68,33.32
2717892,-0.02,-0.11,0.86,1.83,4.21,-0.67,915.68,33.33
2717930,-0.0,-0.09,0.9,2.08,3.54,-0.79,915.73,33.32
2717969,-0.01,-0.09,0.88,1.77,4.33,-0.73,915.73,33.33
2718007,-0.01,-0.1,0.9,1.95,2.99,-0.92,915.69,33.33
2718045,-0.01,-0.1,0.9,1.71,3.85,-0.85,915.71,33.35
2718083,-0.01,-0.1,0.9,1.71,2.75,-0.92,915.77,33.33
2718121,-0.01,-0.12,0.91,1.77,3.3,-0.98,915.77,33.33
2718171,-0.02,-0.1,0.9,2.01,2.5,-0.98,915.69,33.31
2718209,-0.02,-0.1,0.92,2.2,3.11,-1.16,915.78,33.34
2718247,-0.02,-0.1,0.91,2.08,3.42,-1.16,915.76,33.33
2718285,-0.02,-0.09,0.92,2.38,3.05,-1.1,915.82,33.33
2718323,-0.04,-0.1,0.85,1.89,3.42,-1.16,915.84,33.32
2718361,-0.04,-0.09,0.89,2.2,2.69,-1.1,915.8,33.32
2718399,-0.03,-0.09,0.86,2.08,3.17,-1.1,915.81,33.33
2718438,-0.03,-0.09,0.86,2.08,2.14,-0.92,915.8,33.33
2718476,-0.03,-0.09,0.87,2.14,2.2,-0.92,915.77,33.33
2718525,-0.04,-0.09,0.88,2.01,1.77,-0.79,915.82,33.3
2718564,-0.04,-0.09,0.91,2.08,1.28,-0.79,915.86,33.32
2718602,-0.05,-0.1,0.89,1.95,1.65,-0.67,915.8,33.32
2718640,-0.04,-0.09,0.9,1.71,1.59,-0.79,915.84,33.32
2718678,-0.04,-0.09,0.89,1.16,1.95,-0.73,915.81,33.31
2718716,-0.04,-0.09,0.91,0.98,1.77,-0.43,915.89,33.32
2718754,-0.05,-0.1,0.91,0.49,2.38,-0.55,915.88,33.32
2718792,-0.05,-0.09,0.93,0.49,2.38,-0.55,915.91,33.32
2718831,-0.06,-0.09,0.95,0.49,2.44,-0.43,915.91,33.33
2718869,-0.05,-0.08,0.97,0.49,2.69,-0.31,915.91,33.32
2718918,-0.05,-0.09,0.98,0.79,3.17,-0.24,915.92,33.32
2718957,-0.04,-0.09,0.99,1.04,2.99,-0.24,915.91,33.31
2718995,-0.06,-0.09,0.99,1.22,2.93,0.0,915.91,33.33
2719033,-0.05,-0.09,0.99,1.28,3.17,0.06,915.94,33.34
2719071,-0.06,-0.08,1.01,1.59,2.62,0.12,915.94,33.32
2719109,-0.05,-0.09,1.0,1.65,2.81,0.31,915.98,33.33
2719147,-0.05,-0.08,1.01,1.71,2.87,0.43,915.97,33.33
2719185,-0.05,-0.09,0.99,1.89,3.36,0.61,915.99,33.34
2719223,-0.05,-0.09,0.98,1.95,2.99,0.61,915.99,33.33
2719261,-0.07,-0.09,0.94,2.2,3.42,0.61,915.97,33.33
2719311,-0.07,-0.09,0.92,2.2,3.6,0.79,916.01,33.31
2719349,-0.06,-0.08,0.97,2.26,4.33,0.85,916.01,33.33
2719387,-0.06,-0.08,0.92,2.01,5.31,1.16,916.03,33.32
2719425,-0.07,-0.08,0.96,2.5,4.33,1.4,916.03,33.33
2719463,-0.06,-0.09,0.97,1.83,5.49,1.53,915.98,33.32
2719501,-0.07,-0.08,1.01,2.14,4.88,1.71,916.06,33.34
2719539,-0.08,-0.09,0.99,1.83,5.62,2.2,916.02,33.31
2719578,-0.07,-0.08,0.96,2.08,5.25,2.32,916.01,33.32
2719616,-0.08,-0.08,0.97,2.38,5.07,2.62,916.07,33.32
2719691,-0.08,-0.08,0.97,2.75,5.0,3.05,916.06,33.3
2719730,-0.06,-0.08,0.93,2.01,5.49,3.3,916.07,33.3
2719768,-0.06,-0.08,1.0,2.62,4.82,3.6,916.13,33.31
2719857,-0.06,-0.08,0.99,2.81,4.58,4.03,916.14,33.27
2719895,-0.06,-0.09,0.93,2.26,5.25,4.27,916.17,33.29
2719933,-0.06,-0.07,0.96,2.5,3.6,4.52,916.2,33.32
2719972,-0.06,-0.09,0.93,2.32,4.39,4.64,916.17,33.3
2720010,-0.05,-0.09,0.94,2.5,3.11,4.88,916.24,33.3
2720048,-0.05,-0.09,0.95,2.44,4.03,4.94,916.21,33.31
2720086,-0.04,-0.09,0.93,2.38,3.6,5.13,916.2,33.3
2720136,-0.06,-0.08,0.95,2.5,3.91,5.25,916.24,33.3
2720174,-0.06,-0.09,0.91,2.32,3.85,5.37,916.25,33.3
2720212,-0.03,-0.08,0.96,2.56,3.48,5.31,916.25,33.3
2720250,-0.04,-0.09,0.93,1.95,5.13,5.43,916.27,33.31
2720288,-0.04,-0.09,0.93,2.56,3.78,5.62,916.27,33.31
2720326,-0.04,-0.09,0.93,2.2,4.15,5.62,916.27,33.3
2720364,-0.03,-0.09,0.91,1.95,4.15,5.68,916.35,33.31
2720402,-0.05,-0.09,0.87,2.01,4.15,5.74,916.27,33.29
2720441,-0.04,-0.08,0.91,2.44,3.05,5.8,916.32,33.31
2720479,-0.02,-0.09,0.89,1.65,4.03,5.68,916.37,33.3
2720528,-0.01,-0.08,0.99,1.77,2.75,5.98,916.39,33.29
2720567,-0.03,-0.09,1.04,1.46,4.03,5.86,916.36,33.29
2720605,-0.03,-0.1,1.01,1.16,3.97,5.92,916.33,33.29
2720643,-0.03,-0.07,1.16,1.65,2.69,5.8,916.37,33.3
2720681,0.0,-0.1,1.14,0.79,4.27,5.74,916.4,33.29
2720719,-0.05,-0.08,1.2,1.22,2.14,5.62,916.46,33.32
2720757,-0.0,-0.08,1.25,1.71,3.3,5.74,916.52,33.31
2720795,0.0,-0.08,1.22,1.53,3.97,5.55,916.48,33.28
2720834,-0.02,-0.07,1.27,2.14,4.7,5.31,916.41,33.31
2720883,-0.03,-0.09,1.26,2.32,6.65,5.43,916.47,33.29
2720921,-0.03,-0.08,1.27,3.3,6.96,5.31,916.49,33.3
2720960,-0.03,-0.06,1.3,3.85,7.75,5.13,916.46,33.31
2720998,-0.03,-0.08,1.19,3.17,8.73,5.37,916.47,33.31
2721036,0.01,-0.08,1.16,3.48,8.06,5.19,916.54,33.31
2721074,0.01,-0.08,1.14,2.99,7.32,5.0,916.51,33.32
2721112,-0.01,-0.08,1.11,2.81,7.26,5.25,916.5,33.3
2721150,0.03,-0.08,1.07,2.62,7.93,5.07,916.47,33.31
2721188,0.0,-0.09,1.08,2.2,6.35,4.76,916.51,33.3
2721226,0.0,-0.09,1.08,1.59,5.07,4.76,916.5,33.33
2721276,0.01,-0.09,1.08,1.28,4.27,4.52,916.51,33.29
2721314,0.01,-0.1,1.02,0.73,4.46,4.33,916.58,33.31
2721352,0.02,-0.08,1.03,0.73,3.05,4.03,916.54,33.3
2721391,0.0,-0.09,1.04,0.85,3.3,3.72,916.58,33.31
2721429,0.01,-0.1,1.01,0.73,3.11,3.78,916.56,33.31
2721467,0.01,-0.09,1.04,0.92,2.26,3.54,916.52,33.32
2721505,0.01,-0.09,1.02,0.61,1.89,3.54,916.62,33.31
2721543,0.02,-0.09,1.04,0.85,2.01,3.11,916.53,33.31
2721581,0.02,-0.1,1.05,0.98,1.95,2.75,916.54,33.31
2721619,0.03,-0.1,1.03,1.04,2.01,2.56,916.56,33.31
2721669,0.03,-0.09,1.04,1.22,1.16,2.2,916.57,33.3
2721707,0.01,-0.09,1.03,1.4,1.28,1.95,916.59,33.32
2721745,0.0,-0.1,1.03,1.65,0.31,1.71,916.61,33.31
2721783,0.02,-0.11,1.02,2.08,1.04,1.34,916.55,33.31
2721821,0.03,-0.08,1.02,2.38,0.67,1.04,916.66,33.32
2721860,0.02,-0.08,0.96,2.32,1.46,0.98,916.6,33.3
2721898,0.02,-0.09,0.96,2.69,1.34,0.55,916.62,33.31
2721936,0.01,-0.1,0.96,2.87,2.14,0.18,916.6,33.31
2721974,0.01,-0.1,0.94,2.69,2.26,0.0,916.57,33.31
2722012,0.0,-0.08,0.96,2.99,2.01,-0.24,916.57,33.31
2722062,0.02,-0.09,0.96,2.75,2.75,-0.43,916.59,33.29
2722100,0.02,-0.1,0.95,3.05,2.62,-0.49,916.61,33.31
2722138,0.02,-0.09,0.97,2.99,2.2,-0.73,916.65,33.31
2722176,-0.0,-0.1,0.93,2.87,2.99,-0.85,916.7,33.31
2722214,0.0,-0.09,0.92,2.75,2.26,-1.22,916.65,33.31
2722252,-0.01,-0.08,0.96,2.69,3.05,-1.16,916.65,33.3
2722290,0.02,-0.1,0.92,1.89,3.6,-1.34,916.7,33.33
2722329,-0.01,-0.09,0.94,2.08,3.42,-1.4,916.67,33.31
2722367,-0.01,-0.08,0.95,1.71,4.15,-1.53,916.68,33.3
2722416,-0.01,-0.09,0.98,1.65,3.97,-1.59,916.74,33.3
2722455,-0.02,-0.09,0.98,1.71,4.03,-1.65,916.7,33.31
2722493,-0.01,-0.09,1.01,1.65,3.42,-1.65,916.73,33.31
2722531,-0.02,-0.08,1.0,1.53,4.21,-1.83,916.79,33.32
2722569,-0.01,-0.08,1.02,1.4,3.91,-1.77,916.79,33.31
2722607,-0.03,-0.09,1.01,1.4,4.39,-1.71,916.77,33.32
2722645,-0.03,-0.09,0.99,1.22,4.27,-1.65,916.81,33.31
2722683,-0.02,-0.09,1.03,1.34,3.72,-1.77,916.83,33.3
2722721,-0.03,-0.08,1.01,1.1,4.03,-1.77,916.78,33.31
2722759,-0.02,-0.08,1.04,1.28,3.85,-1.65,916.81,33.32
2722835,-0.04,-0.08,1.07,1.22,4.09,-1.77,916.85,33.29
2722873,-0.04,-0.08,1.06,1.34,4.46,-1.53,916.88,33.29
2722911,-0.04,-0.08,1.07,1.22,4.46,-1.65,916.84,33.3
2723001,-0.03,-0.08,1.05,1.65,5.0,-1.4,916.9,33.29
2723039,-0.04,-0.07,1.07,1.59,5.0,-1.34,916.91,33.29
2723077,-0.05,-0.08,1.04,1.53,5.37,-1.22,916.98,33.3
2723115,-0.05,-0.08,1.04,1.59,5.31,-1.1,916.92,33.29
2723153,-0.04,-0.08,1.05,1.71,5.49,-0.92,916.87,33.29
2723191,-0.05,-0.08,1.03,1.59,5.43,-0.85,916.88,33.31
2723241,-0.03,-0.08,1.04,1.59,5.55,-0.73,916.84,33.28
2723279,-0.03,-0.08,1.04,1.71,5.62,-0.55,916.92,33.29
2723317,-0.05,-0.08,1.03,1.53,5.13,-0.37,916.92,33.29
2723355,-0.05,-0.08,1.05,2.08,5.49,-0.31,916.92,33.3
2723393,-0.05,-0.08,1.01,1.59,6.16,-0.18,916.93,33.3
2723431,-0.04,-0.08,1.07,2.08,5.19,-0.12,916.91,33.3
2723469,-0.06,-0.09,1.01,1.71,5.98,0.06,916.93,33.32
2723508,-0.05,-0.08,1.01,2.08,5.92,0.06,916.96,33.3
2723546,-0.03,-0.08,1.0,2.01,5.86,0.24,916.88,33.3
2723584,-0.05,-0.08,0.98,1.89,5.55,0.31,916.96,33.3
2723634,-0.05,-0.08,0.97,2.26,6.35,0.55,916.92,33.31
2723672,-0.05,-0.09,0.97,2.26,6.71,0.67,916.92,33.29
2723710,-0.04,-0.08,0.98,2.2,6.71,0.67,916.93,33.31
2723748,-0.05,-0.08,0.96,2.14,7.08,0.79,916.94,33.31
2723786,-0.05,-0.08,0.99,2.69,7.08,0.92,916.99,33.31
2723824,-0.05,-0.09,0.96,2.26,7.69,1.04,916.96,33.31
2723863,-0.02,-0.08,0.98,2.32,6.84,1.16,916.98,33.31
2723901,-0.04,-0.08,0.95,2.38,7.2,1.34,917.01,33.32
2723939,-0.04,-0.08,0.95,2.38,6.65,1.59,917.04,33.32
2723989,-0.03,-0.09,0.92,2.32,5.55,1.53,917.01,33.31
2724027,-0.05,-0.08,0.92,2.14,4.58,1.65,917.01,33.31
2724065,-0.04,-0.08,0.9,2.08,4.46,1.77,917.05,33.33
2724103,-0.03,-0.07,0.92,1.95,3.54,1.89,917.06,33.31
2724141,-0.02,-0.09,0.93,1.95,3.05,1.95,917.05,33.32
2724179,-0.03,-0.09,0.94,1.83,2.87,1.95,916.99,33.32
2724217,-0.03,-0.09,0.95,1.59,2.69,2.01,917.01,33.32
2724256,-0.03,-0.08,0.98,1.59,2.14,2.01,917.02,33.33
2724294,-0.03,-0.08,0.97,1.46,1.65,2.01,917.06,33.32
2724332,-0.04,-0.09,0.96,1.53,2.2,2.01,917.03,33.32
2724382,-0.03,-0.08,0.97,1.77,1.53,1.83,917.08,33.3
2724420,-0.04,-0.09,0.98,1.89,1.89,2.01,917.04,33.31
2724458,-0.04,-0.08,0.98,2.14,1.83,2.01,917.02,33.31
2724496,-0.03,-0.09,0.97,2.14,2.69,1.95,917.08,33.3
2724534,-0.03,-0.08,0.96,2.14,2.26,2.01,917.06,33.32
2724572,-0.04,-0.08,1.0,2.26,2.14,1.89,917.05,33.32
2724610,-0.04,-0.09,0.99,1.89,2.81,1.83,917.09,33.31
2724648,-0.03,-0.08,1.05,2.38,2.08,1.89,917.05,33.31
2724687,-0.04,-0.09,1.05,2.5,3.05,1.89,917.04,33.31
2724725,-0.02,-0.08,1.04,2.2,2.69,1.77,917.11,33.31
2724774,-0.03,-0.08,1.04,2.44,3.91,1.83,917.15,33.29
2724813,-0.03,-0.08,1.0,2.5,3.17,1.71,917.14,33.31
2724851,-0.04,-0.08,0.97,2.69,3.17,1.71,917.14,33.3
2724889,-0.04,-0.08,0.92,2.62,3.05,1.77,917.11,33.3
2724927,-0.03,-0.08,0.91,2.44,2.69,1.89,917.13,33.31
2724965,-0.04,-0.09,0.86,2.2,2.62,1.89,917.13,33.31
2725003,-0.03,-0.08,0.89,2.44,2.2,1.77,917.11,33.31
2725041,-0.03,-0.08,0.91,2.26,2.01,1.89,917.14,33.3
2725079,-0.04,-0.09,0.91,2.08,2.26,2.01,917.13,33.31
2725129,-0.04,-0.07,0.96,1.71,1.22,2.01,917.12,33.3
2725167,-0.04,-0.08,0.96,1.65,1.77,2.14,917.17,33.3
2725205,-0.04,-0.08,0.99,1.65,0.67,2.08,917.17,33.3
2725244,-0.03,-0.09,0.98,1.59,2.01,2.14,917.2,33.3
2725282,-0.04,-0.09,0.98,1.89,1.65,2.2,917.19,33.3
2725320,-0.04,-0.08,1.0,2.08,1.95,2.14,917.19,33.3
2725358,-0.05,-0.08,1.0,2.26,1.95,1.95,917.21,33.3
2725396,-0.03,-0.08,1.01,2.14,2.62,2.08,917.16,33.3
2725434,-0.04,-0.08,1.04,2.69,2.2,2.2,917.19,33.3
2725472,-0.04,-0.08,1.02,2.26,2.14,2.2,917.22,33.3
2725522,-0.05,-0.07,1.08,2.38,2.81,2.2,917.17,33.29
2725560,-0.05,-0.08,1.09,2.32,3.36,2.26,917.18,33.29
2725598,-0.02,-0.08,1.14,2.44,3.11,2.14,917.22,33.3
2725637,-0.05,-0.08,1.13,2.44,3.91,2.32,917.21,33.29
2725675,-0.03,-0.08,1.13,2.62,3.97,2.38,917.25,33.31
2725713,-0.04,-0.07,1.13,2.75,4.52,2.08,917.26,33.31
2725751,-0.05,-0.07,1.12,2.75,4.33,2.38,917.28,33.3
2725789,-0.04,-0.08,1.08,2.75,5.19,2.5,917.27,33.32
2725827,-0.05,-0.07,1.08,3.05,5.13,2.26,917.29,33.3
2725865,-0.05,-0.08,1.07,2.99,5.8,2.56,917.31,33.31
2725941,-0.05,-0.08,1.05,2.99,5.62,2.62,917.3,33.28
2725979,-0.05,-0.08,1.05,2.93,5.07,2.81,917.29,33.29
2726017,-0.04,-0.08,1.04,2.56,4.76,2.93,917.31,33.29
2726107,-0.04,-0.08,1.0,2.44,3.23,3.36,917.25,33.28
2726145,-0.04,-0.08,1.01,2.44,2.87,3.3,917.35,33.28
2726183,-0.03,-0.09,1.0,2.08,2.75,3.3,917.34,33.29
2726221,-0.04,-0.08,1.05,2.26,2.56,3.42,917.27,33.28
2726259,-0.03,-0.09,1.0,2.08,3.23,3.54,917.33,33.29
2726297,-0.03,-0.08,1.04,2.38,2.44,3.42,917.27,33.29
2726347,-0.01,-0.09,1.0,2.26,2.87,3.36,917.35,33.29
2726385,-0.02,-0.08,1.01,2.2,2.01,3.42,917.37,33.28
2726423,-0.03,-0.09,0.98,2.5,2.5,3.42,917.33,33.29
2726461,-0.03,-0.09,0.94,2.2,2.32,3.42,917.33,33.29
2726500,-0.03,-0.08,0.99,2.69,0.92,3.54,917.38,33.3
2726538,-0.02,-0.09,0.95,1.89,2.14,3.54,917.34,33.31
2726576,-0.03,-0.09,1.0,2.32,1.22,3.42,917.36,33.3
2726614,-0.02,-0.08,1.0,2.14,1.83,3.36,917.36,33.3
2726652,-0.03,-0.08,1.01,2.14,2.01,3.36,917.3,33.3
2726690,-0.03,-0.08,1.01,2.26,2.14,3.54,917.3,33.29
2726740,-0.03,-0.08,1.0,1.95,2.56,3.36,917.35,33.31
2726778,-0.04,-0.08,1.01,2.26,2.32,3.23,917.37,33.3
2726816,-0.01,-0.09,0.99,1.83,2.93,3.3,917.37,33.3
2726854,-0.01,-0.09,1.01,2.01,2.62,3.11,917.35,33.3
2726892,-0.02,-0.09,1.0,2.08,2.93,3.23,917.36,33.3
2726930,-0.02,-0.09,0.99,1.89,3.36,3.36,917.36,33.31
2726969,-0.03,-0.09,1.01,2.2,3.23,3.11,917.38,33.31
2727007,-0.02,-0.09,0.99,1.83,3.91,3.36,917.36,33.3
2727045,-0.02,-0.08,1.0,1.95,3.3,3.11,917.34,33.3
2727083,-0.02,-0.08,1.0,1.89,3.54,2.99,917.4,33.31
2727133,0.0,-0.09,0.99,1.77,3.72,2.93,917.38,33.29
2727171,-0.02,-0.08,0.99,1.83,3.85,3.05,917.39,33.29
2727209,-0.02,-0.09,0.98,1.83,4.21,2.81,917.39,33.29
2727247,-0.03,-0.08,0.99,1.89,4.03,2.69,917.42,33.29
2727285,-0.02,-0.09,0.99,1.65,4.39,2.69,917.4,33.3
2727323,-0.01,-0.08,1.0,1.71,4.21,2.62,917.47,33.3
2727361,-0.02,-0.09,1.0,1.53,4.21,2.5,917.38,33.3
2727400,-0.03,-0.09,1.01,1.59,3.97,2.56,917.46,33.3
2727438,-0.02,-0.08,1.03,1.59,4.09,2.62,917.43,33.3
2727487,-0.01,-0.08,1.0,1.59,3.85,2.62,917.43,33.29
2727526,-0.02,-0.08,1.01,1.71,3.91,2.69,917.39,33.29
2727564,-0.02,-0.09,0.97,1.4,4.09,2.62,917.38,33.3
2727602,-0.02,-0.08,0.99,1.53,4.15,2.5,917.44,33.3
2727640,-0.02,-0.09,0.97,1.53,4.33,2.5,917.49,33.29
2727678,-0.02,-0.09,0.98,1.65,4.27,2.5,917.44,33.3
2727716,-0.02,-0.08,1.0,1.22,4.46,2.5,917.44,33.29
2727754,-0.01,-0.09,0.99,1.46,4.46,2.44,917.42,33.31
2727792,-0.03,-0.08,1.01,1.59,4.15,2.38,917.49,33.3
2727831,-0.01,-0.08,1.01,1.28,4.7,2.26,917.46,33.3
2727880,-0.0,-0.08,0.98,1.28,4.46,2.2,917.44,33.29
2727918,-0.01,-0.09,1.01,1.4,4.76,2.2,917.44,33.29
2727957,-0.02,-0.09,1.01,1.4,4.39,2.08,917.46,33.3
2727995,-0.01,-0.08,1.0,1.28,4.52,2.01,917.47,33.3
2728033,-0.02,-0.08,1.03,1.16,4.39,2.01,917.51,33.3
2728071,-0.01,-0.09,1.0,1.34,4.7,1.95,917.51,33.3
2728109,-0.02,-0.08,1.0,1.34,3.91,2.08,917.48,33.31
2728147,-0.0,-0.08,1.01,1.28,4.09,1.95,917.4,33.3
2728185,-0.01,-0.09,1.0,1.4,3.78,1.89,917.47,33.31
2728223,-0.02,-0.08,1.03,1.34,4.09,1.83,917.49,33.3
2728273,-0.02,-0.09,1.01,1.16,4.15,1.83,917.52,33.3
2728311,-0.02,-0.08,1.02,1.4,3.91,1.89,917.48,33.29
2728349,-0.02,-0.09,1.01,1.16,3.97,1.89,917.45,33.31
2728388,-0.01,-0.08,1.02,1.1,4.03,1.89,917.48,33.31
2728426,-0.02,-0.09,1.02,1.16,3.91,1.65,917.48,33.31
2728464,-0.02,-0.09,1.04,0.92,3.91,1.77,917.51,33.31
2728502,-0.02,-0.09,1.05,1.1,3.78,1.65,917.48,33.29
2728540,-0.02,-0.08,1.05,0.98,4.03,1.71,917.57,33.32
2728578,-0.01,-0.08,1.04,1.16,4.15,1.71,917.51,33.31
2728628,-0.02,-0.08,1.04,1.53,3.91,1.89,917.49,33.29
2728666,-0.02,-0.09,1.02,1.65,4.33,1.77,917.54,33.29
2728704,-0.01,-0.08,1.0,1.89,3.85,1.65,917.48,33.29
2728742,-0.01,-0.08,1.01,1.95,4.09,1.59,917.57,33.31
2728780,-0.01,-0.09,0.98,2.08,4.39,1.53,917.52,33.31
2728818,-0.0,-0.08,0.99,2.38,3.85,1.46,917.52,33.3
2728857,-0.01,-0.09,0.99,2.38,4.21,1.4,917.54,33.3
2728895,-0.01,-0.08,0.97,2.38,4.39,1.46,917.57,33.31
2728933,-0.01,-0.08,0.96,2.44,4.21,1.4,917.56,33.3
2728971,-0.01,-0.08,0.96,2.44,4.58,1.22,917.54,33.3
2729046,-0.02,-0.08,0.95,2.56,4.64,1.16,917.52,33.27
2729085,-0.01,-0.09,0.93,2.2,4.64,1.04,917.53,33.29
2729123,-0.02,-0.08,0.95,2.08,4.52,1.1,917.49,33.28
2729212,-0.03,-0.08,1.0,1.77,4.94,1.04,917.51,33.26
2729250,-0.02,-0.08,0.98,1.71,5.43,0.92,917.58,33.26
2729288,-0.02,-0.08,1.01,1.59,5.68,0.79,917.47,33.26
2729326,-0.02,-0.08,1.0,1.59,6.47,0.79,917.57,33.28
2729364,-0.02,-0.08,1.0,1.59,6.16,0.79,917.61,33.29
2729402,-0.03,-0.08,1.01,1.77,6.59,0.55,917.55,33.28
2729440,-0.03,-0.08,1.05,1.89,6.53,0.55,917.53,33.29
2729490,-0.03,-0.08,1.08,1.83,6.53,0.79,917.56,33.28
2729528,-0.04,-0.07,1.11,2.38,5.98,0.73,917.58,33.28
2729566,-0.03,-0.08,1.08,2.62,5.86,0.67,917.6,33.28
2729604,-0.02,-0.08,1.06,2.93,4.58,0.73,917.63,33.31
2729643,-0.03,-0.07,1.04,3.36,4.03,0.92,917.6,33.29
2729681,-0.01,-0.08,0.97,3.48,3.85,0.92,917.62,33.31
2729719,-0.04,-0.08,0.93,3.78,3.54,0.98,917.55,33.3
2729757,-0.04,-0.08,0.85,3.72,2.99,1.04,917.65,33.29
2729795,-0.02,-0.08,0.87,3.66,2.56,0.92,917.6,33.29
2729845,-0.03,-0.09,0.82,3.36,2.75,0.92,917.53,33.28
2729883,-0.02,-0.08,0.84,3.42,1.77,1.1,917.57,33.29
2729921,-0.03,-0.09,0.8,2.93,2.56,1.04,917.59,33.29
2729959,-0.03,-0.08,0.79,2.87,1.46,1.22,917.56,33.29
2729997,-0.03,-0.09,0.79,2.75,1.89,0.85,917.55,33.29
2730035,-0.03,-0.09,0.78,2.44,1.53,0.98,917.58,33.29
2730073,-0.04,-0.08,0.82,2.5,0.67,1.04,917.53,33.29
2730111,-0.03,-0.08,0.82,2.08,1.28,0.92,917.65,33.29
2730149,-0.03,-0.08,0.86,2.5,0.61,1.1,917.61,33.3
2730188,-0.04,-0.08,0.84,2.38,0.98,1.1,917.55,33.29
2730237,-0.05,-0.09,0.81,2.87,1.77,1.34,917.61,33.29
2730275,-0.04,-0.08,0.79,3.17,2.01,1.22,917.62,33.29
2730314,-0.05,-0.07,0.8,3.54,2.08,1.16,917.63,33.3
2730352,-0.04,-0.08,0.75,3.54,2.69,1.34,917.64,33.29
2730390,-0.04,-0.08,0.78,3.91,3.17,1.4,917.67,33.29
2730428,-0.03,-0.09,0.79,3.85,3.91,1.53,917.6,33.28
2730466,-0.04,-0.08,0.79,3.97,3.78,1.59,917.62,33.3
2730504,-0.04,-0.08,0.77,4.09,4.33,1.65,917.64,33.3
2730542,-0.04,-0.08,0.77,3.97,4.76,1.71,917.65,33.29
2730580,-0.04,-0.08,0.77,4.27,5.07,1.59,917.66,33.3
2730630,-0.03,-0.08,0.79,4.03,4.52,2.2,917.63,33.27
2730668,-0.04,-0.08,0.81,4.15,5.0,2.08,917.68,33.29
2730706,-0.04,-0.08,0.81,3.97,4.76,2.26,917.73,33.29
2730744,-0.05,-0.08,0.84,4.27,4.27,2.38,917.7,33.3
2730783,-0.04,-0.08,0.8,3.6,4.46,2.62,917.71,33.29
2730821,-0.04,-0.07,0.84,3.91,3.54,2.69,917.71,33.29
2730859,-0.03,-0.08,0.82,3.66,3.91,2.93,917.7,33.29
2730897,-0.04,-0.08,0.82,3.6,2.81,2.81,917.77,33.3
2730935,-0.04,-0.08,0.81,3.48,2.56,2.93,917.79,33.32
2730985,-0.03,-0.08,0.85,3.54,1.65,3.17,917.76,33.3
2731023,-0.05,-0.08,0.81,3.48,1.4,3.23,917.85,33.3
2731061,-0.03,-0.08,0.8,3.48,1.46,3.17,917.74,33.3
2731099,-0.02,-0.08,0.79,3.23,1.95,2.99,917.84,33.32
2731137,-0.03,-0.08,0.79,3.36,1.46,3.23,917.77,33.29
2731175,-0.03,-0.08,0.78,3.36,1.46,3.36,917.78,33.29
2731213,-0.03,-0.08,0.76,3.11,1.89,3.17,917.84,33.3
2731252,-0.02,-0.08,0.82,3.42,0.85,3.17,917.81,33.29
2731290,-0.02,-0.08,0.82,3.05,0.98,3.05,917.82,33.31
2731328,-0.02,-0.08,0.84,3.3,0.67,3.05,917.8,33.31
2731377,-0.03,-0.08,0.83,3.36,0.67,3.05,917.87,33.29
2731416,-0.03,-0.08,0.84,3.36,0.12,3.11,917.9,33.3
2731454,-0.04,-0.08,0.85,3.3,1.04,2.81,917.86,33.29
2731492,-0.03,-0.08,0.88,3.36,1.83,2.87,917.91,33.28
2731530,-0.03,-0.08,0.92,3.36,2.38,2.62,917.92,33.31
2731568,-0.03,-0.08,0.91,2.87,3.3,2.69,917.94,33.3
2731606,-0.05,-0.07,0.98,2.93,3.36,2.5,917.88,33.29
2731644,-0.04,-0.09,0.98,2.69,4.94,2.81,917.92,33.3
2731682,-0.01,-0.07,1.02,2.81,4.82,2.81,918.06,33.31
2731720,-0.04,-0.08,1.0,2.99,5.0,2.75,917.97,33.29
2731770,-0.04,-0.07,0.98,3.23,4.58,2.93,918.05,33.3
2731808,-0.04,-0.08,0.99,3.66,3.91,2.93,918.06,33.29
2731847,-0.04,-0.09,0.9,3.48,3.97,3.05,918.05,33.29
2731885,-0.03,-0.07,0.9,3.48,2.81,2.99,918.12,33.31
2731923,-0.02,-0.08,0.86,3.17,2.62,3.11,918.04,33.29
2731961,-0.02,-0.08,0.84,2.87,0.43,2.75,918.08,33.29
2731999,-0.04,-0.08,0.9,3.11,0.43,3.05,918.11,33.29
2732037,-0.03,-0.1,0.82,2.75,0.79,3.17,918.12,33.29
2732075,-0.04,-0.07,0.88,3.05,-0.73,2.93,918.14,33.31
2732151,-0.03,-0.08,0.84,2.56,0.24,3.11,918.15,33.27
2732189,-0.03,-0.08,0.83,2.44,1.34,2.87,918.19,33.27
2732227,-0.03,-0.08,0.84,2.69,0.24,3.11,918.18,33.28
2732317,-0.04,-0.08,0.84,2.69,1.59,2.93,918.24,33.24
2732355,-0.02,-0.08,0.84,2.32,2.08,2.99,918.24,33.26
2732393,-0.04,-0.08,0.86,2.44,1.77,2.87,918.27,33.27
2732431,-0.02,-0.09,0.85,2.56,2.5,2.87,918.32,33.26
2732469,-0.01,-0.08,0.89,2.44,2.08,2.81,918.32,33.26
2732507,-0.02,-0.08,0.91,2.44,1.83,2.87,918.31,33.28
2732545,-0.02,-0.08,0.93,2.5,1.77,2.62,918.37,33.28
2732595,-0.04,-0.08,0.92,2.38,2.01,2.87,918.31,33.25
2732633,-0.01,-0.08,0.94,2.38,1.4,2.62,918.38,33.26
2732671,-0.01,-0.08,0.94,2.62,2.38,2.5,918.33,33.26
2732710,-0.02,-0.08,0.93,2.69,2.26,2.44,918.37,33.27
2732748,-0.01,-0.08,0.95,2.93,2.26,2.5,918.43,33.26
2732786,0.0,-0.09,0.9,2.5,3.17,2.32,918.49,33.27
2732824,-0.02,-0.07,0.96,2.93,1.53,2.14,918.43,33.26
2732862,-0.02,-0.09,0.92,2.62,2.56,2.01,918.44,33.28
2732900,-0.01,-0.09,0.95,2.69,1.83,2.01,918.5,33.27
2732938,-0.0,-0.08,0.96,2.38,2.08,1.83,918.47,33.27
2732988,-0.01,-0.08,0.96,2.62,2.01,1.71,918.54,33.28
2733026,-0.02,-0.08,0.95,2.69,2.62,1.59,918.53,33.27
2733064,-0.02,-0.08,0.95,2.81,2.81,1.59,918.65,33.27
2733102,-0.03,-0.08,0.94,2.69,3.17,1.46,918.62,33.28
2733141,-0.01,-0.08,0.96,2.81,3.78,1.4,918.62,33.27
2733179,-0.01,-0.09,0.95,2.69,3.78,1.22,918.68,33.28
2733217,0.0,-0.09,0.95,2.81,3.78,1.28,918.64,33.29
2733255,-0.02,-0.09,0.92,2.87,4.46,1.16,918.72,33.29
2733293,-0.03,-0.08,0.92,3.05,3.6,1.28,918.63,33.29
2733343,-0.02,-0.09,0.91,2.81,4.03,1.4,918.71,33.26
2733381,-0.03,-0.08,0.93,2.69,3.72,1.28,918.73,33.28
2733419,-0.03,-0.09,0.91,2.56,3.97,1.34,918.74,33.28
2733457,-0.04,-0.09,0.97,2.5,3.54,1.4,918.73,33.28
2733495,-0.01,-0.09,0.94,2.32,4.33,1.4,918.75,33.28
2733533,-0.02,-0.08,0.96,2.32,3.85,1.53,918.85,33.28
2733572,-0.02,-0.08,0.95,2.26,4.09,1.59,918.89,33.29
2733610,-0.03,-0.08,0.94,2.2,3.78,1.59,918.88,33.28
2733648,-0.03,-0.08,0.95,2.26,3.6,1.46,918.87,33.28
2733686,-0.02,-0.09,0.94,2.08,4.39,1.53,918.87,33.28
2733736,-0.03,-0.08,0.94,2.26,4.33,1.65,918.89,33.26
2733774,-0.04,-0.08,0.92,2.08,5.0,1.46,919.0,33.28
2733812,-0.04,-0.08,0.93,2.14,5.19,1.46,918.89,33.28
2733850,-0.03,-0.09,0.94,1.95,5.8,1.59,919.01,33.29
2733888,-0.04,-0.09,0.95,2.01,5.43,1.71,919.02,33.28
2733926,-0.04,-0.08,0.96,2.01,4.94,1.95,919.03,33.28
2733964,-0.03,-0.08,0.99,1.34,4.64,1.95,919.02,33.28
2734002,-0.03,-0.08,1.03,1.83,3.66,2.14,919.09,33.29
2734040,-0.03,-0.09,1.02,1.53,3.36,2.38,919.06,33.28
2734078,-0.01,-0.08,1.05,1.46,2.26,2.26,919.08,33.29
2734128,-0.03,-0.08,1.03,1.22,2.56,2.5,919.15,33.27
2734166,-0.01,-0.09,1.03,1.28,1.16,2.62,919.11,33.28
2734204,-0.01,-0.09,1.04,1.28,1.1,2.5,919.23,33.28
2734242,-0.02,-0.09,0.99,1.53,0.98,2.38,919.2,33.29
2734281,-0.03,-0.08,1.0,1.53,1.16,2.5,919.16,33.26
2734319,-0.01,-0.09,1.0,1.28,0.73,2.5,919.22,33.28
2734357,-0.03,-0.08,0.96,1.16,0.67,2.56,919.27,33.28
2734395,-0.03,-0.08,0.96,1.16,0.79,2.44,919.28,33.29
2734433,-0.03,-0.09,0.98,1.28,1.34,2.38,919.3,33.29
2734483,-0.03,-0.09,0.96,1.1,1.77,2.62,919.33,33.29
2734521,-0.03,-0.09,0.99,1.16,1.71,2.56,919.38,33.28
2734559,-0.02,-0.09,1.0,1.1,2.75,2.56,919.34,33.28
2734597,-0.02,-0.09,0.99,1.46,2.75,2.69,919.38,33.29
2734635,-0.03,-0.09,0.98,1.53,2.56,2.62,919.38,33.28
2734673,-0.03,-0.08,0.98,1.4,3.36,2.62,919.41,33.28
2734711,-0.04,-0.09,0.96,1.46,4.64,2.62,919.41,33.29
2734749,0.01,-0.08,0.98,1.59,3.97,2.56,919.41,33.28
2734787,-0.03,-0.09,0.92,1.77,4.33,2.69,919.45,33.3
2734826,-0.02,-0.08,0.93,2.01,3.78,2.5,919.43,33.29
2734875,-0.01,-0.09,0.97,1.89,4.58,2.75,919.51,33.28
2734913,-0.03,-0.08,0.99,1.89,3.05,2.81,919.54,33.27
2734952,-0.03,-0.09,1.01,1.77,3.6,2.75,919.51,33.28
2734990,-0.03,-0.09,1.03,1.53,3.48,2.81,919.58,33.29
2735028,-0.02,-0.08,1.05,1.89,2.81,2.81,919.54,33.28
2735066,-0.02,-0.08,1.04,1.71,3.23,2.99,919.61,33.29
2735104,-0.01,-0.09,1.01,1.83,3.66,3.05,919.65,33.28
2735142,-0.01,-0.09,1.02,2.08,3.85,2.99,919.63,33.27
2735180,-0.02,-0.09,1.0,2.14,3.85,2.87,919.69,33.29
2735218,-0.03,-0.08,0.99,2.08,3.48,2.99,919.7,33.28
2735294,-0.01,-0.08,1.0,2.14,3.23,2.93,919.73,33.24
2735332,-0.01,-0.08,0.99,1.89,2.81,2.87,919.72,33.26
2735370,-0.04,-0.08,0.99,1.95,2.5,3.17,919.73,33.27
2735461,-0.02,-0.08,1.08,1.65,3.17,3.11,919.79,33.23
2735499,-0.02,-0.08,1.11,1.4,3.05,3.3,919.87,33.24
2735537,-0.03,-0.08,1.15,1.53,3.17,3.11,919.88,33.25
2735575,-0.04,-0.09,1.12,1.59,3.85,3.42,919.83,33.25
2735613,-0.02,-0.08,1.15,1.77,3.05,3.48,919.92,33.26
2735651,-0.02,-0.08,1.13,1.46,3.36,3.3,919.91,33.26
2735701,-0.02,-0.07,1.16,1.65,3.05,3.36,919.86,33.24
2735739,-0.02,-0.08,1.18,1.65,4.03,3.36,919.96,33.26
2735777,-0.03,-0.09,1.18,1.71,4.09,3.42,919.95,33.25
2735815,-0.03,-0.08,1.21,2.01,3.23,3.23,920.03,33.26
2735853,-0.02,-0.1,1.11,1.83,4.76,3.54,920.06,33.27
2735891,-0.01,-0.08,1.11,2.2,3.72,3.42,919.97,33.25
2735929,-0.02,-0.08,1.06,2.01,4.27,3.54,920.07,33.26
2735967,-0.02,-0.09,1.05,2.26,3.54,3.36,920.0,33.26
2736006,-0.02,-0.09,1.04,2.01,4.21,3.42,920.08,33.26
2736044,-0.03,-0.08,1.02,2.01,3.91,3.42,920.11,33.26
2736093,-0.03,-0.08,1.05,1.95,4.82,3.48,920.07,33.25
2736131,-0.02,-0.08,1.06,1.95,4.03,3.42,920.12,33.26
2736169,-0.02,-0.08,1.08,2.14,5.31,3.36,920.12,33.26
2736208,-0.01,-0.08,1.05,2.2,6.1,3.42,920.14,33.27
2736246,-0.03,-0.07,1.05,2.32,6.29,3.54,920.25,33.27
2736284,-0.03,-0.08,1.06,2.32,6.71,3.48,920.17,33.28
2736322,-0.02,-0.09,1.12,2.32,6.9,3.6,920.26,33.26
2736360,-0.01,-0.09,1.09,2.01,6.77,3.78,920.28,33.26
2736398,-0.03,-0.08,1.08,2.5,5.86,3.78,920.27,33.26
2736436,-0.04,-0.09,0.98,2.38,7.2,3.78,920.3,33.27
2736486,-0.01,-0.08,0.97,2.44,6.23,3.66,920.29,33.27
2736524,-0.02,-0.09,0.89,2.26,7.14,3.78,920.26,33.26
2736562,-0.03,-0.09,0.83,2.08,6.65,3.78,920.33,33.28
2736600,-0.03,-0.08,0.88,2.44,5.37,3.66,920.32,33.26
2736638,-0.01,-0.1,0.86,1.77,5.8,3.78,920.34,33.27
2736677,-0.02,-0.09,0.91,1.83,4.27,3.85,920.36,33.29
2736715,-0.04,-0.1,0.89,1.46,4.82,3.66,920.33,33.27
2736753,-0.03,-0.09,0.92,1.28,4.64,3.97,920.42,33.27
2736791,-0.0,-0.09,0.93,1.22,4.39,3.91,920.38,33.28
2736841,-0.03,-0.09,0.94,1.1,4.33,3.91,920.41,33.26
2736879,-0.02,-0.09,0.98,0.98,4.03,3.91,920.44,33.27
2736917,-0.02,-0.09,1.01,0.92,3.97,3.91,920.45,33.26
2736955,-0.02,-0.09,1.01,0.67,3.78,4.03,920.48,33.27
2736993,-0.02,-0.08,1.05,0.79,3.23,3.97,920.53,33.27
2737031,-0.02,-0.1,1.0,0.67,5.19,3.97,920.52,33.27
2737069,-0.01,-0.08,1.05,1.22,3.48,3.72,920.54,33.27
2737107,-0.0,-0.09,1.04,1.22,4.09,3.91,920.56,33.28
2737145,-0.02,-0.09,1.02,0.92,3.48,3.85,920.57,33.28
2737183,-0.01,-0.09,1.05,1.4,3.48,3.66,920.56,33.27
2737233,0.0,-0.09,1.07,0.92,3.05,3.66,920.62,33.26
2737271,-0.01,-0.09,1.09,1.22,3.48,3.42,920.6,33.27
2737309,0.0,-0.1,1.04,0.92,4.27,3.36,920.59,33.26
2737347,0.0,-0.08,1.07,1.04,3.48,3.36,920.62,33.25
2737385,-0.0,-0.09,1.05,1.16,3.54,3.3,920.64,33.27
2737424,-0.02,-0.09,1.01,1.1,3.42,3.05,920.68,33.26
2737462,0.0,-0.08,1.04,1.16,3.54,3.05,920.68,33.27
2737500,-0.01,-0.09,1.02,0.98,3.36,2.93,920.69,33.26
2737538,-0.0,-0.09,1.02,0.85,3.36,2.69,920.68,33.26
2737576,-0.02,-0.08,1.03,1.22,4.27,2.62,920.72,33.28
2737626,-0.02,-0.09,1.01,1.1,5.19,2.56,920.72,33.25
2737664,-0.02,-0.08,1.06,1.28,5.62,2.26,920.77,33.27
2737702,-0.01,-0.09,1.04,0.92,6.35,2.26,920.82,33.28
2737740,-0.03,-0.08,1.07,1.22,6.23,2.08,920.8,33.27
2737778,-0.02,-0.09,1.05,1.22,6.84,1.95,920.77,33.27
2737816,-0.03,-0.08,1.07,1.4,6.9,1.95,920.82,33.27
2737854,-0.02,-0.09,1.11,1.4,8.42,1.95,920.81,33.27
2737892,-0.03,-0.09,1.13,1.28,8.73,1.95,920.89,33.28
2737931,-0.04,-0.08,1.13,1.89,9.09,1.77,920.87,33.28
2737980,-0.02,-0.1,1.07,1.95,9.83,2.14,920.9,33.27
2738018,-0.01,-0.09,1.04,2.26,9.7,1.83,920.92,33.27
2738057,-0.04,-0.08,1.01,2.32,9.16,1.89,920.91,33.28
2738095,-0.02,-0.1,0.97,2.01,8.79,2.2,920.95,33.27
2738133,0.02,-0.1,1.0,1.53,7.57,1.83,920.98,33.27
2738171,-0.0,-0.09,1.01,1.28,7.57,2.08,920.99,33.29
2738209,-0.02,-0.09,1.01,1.16,6.1,2.08,920.96,33.26
2738247,0.0,-0.09,1.05,0.98,4.52,1.71,920.93,33.27
2738285,-0.02,-0.1,1.05,0.49,3.78,1.77,920.98,33.28
2738323,-0.01,-0.09,1.03,0.37,2.75,1.77,921.01,33.29
2738399,-0.0,-0.08,1.04,0.18,0.49,1.65,921.05,33.25
2738437,-0.02,-0.09,1.05,0.18,0.0,1.53,921.08,33.28
2738475,-0.02,-0.09,1.07,0.06,0.0,1.53,921.03,33.26
2738565,-0.01,-0.1,1.13,0.24,0.31,1.16,921.14,33.24
2738603,-0.01,-0.08,1.15,0.61,0.31,1.04,921.18,33.26
2738641,-0.0,-0.09,1.14,0.55,1.1,1.04,921.14,33.26
2738679,-0.01,-0.09,1.14,0.79,0.92,0.79,921.18,33.25
2738717,-0.01,-0.09,1.1,1.1,2.14,0.43,921.14,33.25
2738755,-0.01,-0.08,1.1,1.1,2.26,0.55,921.17,33.26
2738793,-0.0,-0.08,1.12,1.22,2.14,0.55,921.2,33.25
2738843,-0.01,-0.09,1.08,1.22,3.48,0.18,921.16,33.25
2738881,-0.01,-0.08,1.1,1.34,3.23,0.18,921.22,33.26
2738919,-0.01,-0.09,1.07,1.34,3.66,0.06,921.25,33.27
2738957,-0.01,-0.09,1.06,1.4,2.87,-0.12,921.22,33.27
2738995,-0.02,-0.09,1.05,1.4,3.6,-0.06,921.31,33.26
2739033,-0.01,-0.09,1.03,1.53,3.36,-0.06,921.27,33.26
2739072,0.0,-0.09,1.04,1.59,3.42,-0.18,921.3,33.27
2739110,-0.03,-0.09,1.02,1.59,3.72,-0.18,921.28,33.28
2739148,-0.02,-0.09,1.03,1.59,3.72,-0.12,921.32,33.27
2739198,-0.02,-0.09,1.04,1.34,3.48,-0.31,921.28,33.24
2739236,-0.02,-0.08,1.04,1.46,3.36,-0.18,921.32,33.27
2739274,-0.02,-0.09,1.02,1.59,4.21,-0.24,921.36,33.26
2739312,-0.01,-0.09,1.03,1.65,4.46,-0.37,921.39,33.27
2739350,-0.02,-0.09,1.02,1.65,4.15,-0.12,921.41,33.26
2739388,-0.01,-0.1,1.0,1.77,5.25,-0.24,921.4,33.26
2739426,-0.03,-0.08,0.99,1.95,4.94,-0.31,921.37,33.26
2739464,-0.02,-0.09,0.98,1.71,5.19,-0.18,921.38,33.26
2739502,-0.01,-0.09,0.99,1.89,5.13,-0.43,921.39,33.26
2739541,-0.03,-0.09,1.0,1.95,4.64,-0.31,921.37,33.27
2739590,-0.02,-0.09,0.98,1.77,4.7,-0.24,921.42,33.25
2739628,-0.02,-0.08,1.01,1.83,4.52,-0.31,921.45,33.26
2739667,-0.04,-0.09,1.0,1.59,4.58,-0.18,921.48,33.27
2739705,-0.02,-0.08,1.02,1.71,3.78,-0.18,921.45,33.26
2739743,-0.02,-0.09,1.04,1.4,4.27,-0.06,921.54,33.27
2739781,-0.04,-0.08,1.02,1.4,3.66,-0.12,921.52,33.26
2739819,-0.04,-0.08,1.06,1.71,3.11,-0.12,921.46,33.26
2739857,-0.02,-0.08,1.07,1.34,3.42,0.0,921.52,33.27
2739895,-0.04,-0.08,1.1,1.65,2.56,0.12,921.49,33.27
2739945,-0.04,-0.08,1.07,1.71,3.05,0.43,921.51,33.26
2739983,-0.04,-0.08,1.1,1.83,2.81,0.37,921.6,33.26
2740021,-0.05,-0.08,1.07,1.83,3.17,0.49,921.52,33.27
2740059,-0.05,-0.08,1.08,1.89,2.62,0.67,921.55,33.25
2740097,-0.05,-0.09,1.05,1.89,2.93,0.73,921.55,33.28
2740135,-0.04,-0.08,1.03,1.89,2.99,0.67,921.61,33.28
2740174,-0.05,-0.08,1.05,2.2,2.56,0.92,921.6,33.26
2740212,-0.04,-0.09,1.0,2.08,3.05,1.04,921.62,33.27
2740250,-0.04,-0.08,1.02,2.08,2.99,1.1,921.62,33.26
2740288,-0.05,-0.09,1.0,2.01,3.85,1.34,921.64,33.27
2740338,-0.05,-0.08,1.0,1.95,2.87,1.34,921.59,33.27
2740376,-0.05,-0.09,0.98,1.65,3.66,1.46,921.63,33.26
2740414,-0.04,-0.08,0.97,1.59,3.3,1.71,921.58,33.25
2740452,-0.04,-0.08,0.98,1.59,3.17,1.83,921.62,33.26
2740490,-0.04,-0.09,0.93,1.34,3.48,1.89,921.59,33.27
2740528,-0.05,-0.08,0.95,1.59,2.5,1.95,921.69,33.28
2740566,-0.04,-0.09,0.93,1.34,3.78,1.95,921.65,33.27
2740604,-0.05,-0.08,0.93,1.53,3.05,2.14,921.73,33.27
2740642,-0.05,-0.08,0.95,1.59,3.54,2.26,921.73,33.28
2740680,-0.05,-0.09,0.93,1.4,3.91,2.38,921.69,33.28
2740730,-0.06,-0.08,0.98,1.77,4.15,2.44,921.7,33.27
2740768,-0.05,-0.09,0.95,1.22,4.64,2.62,921.71,33.26
2740806,-0.06,-0.07,1.01,1.65,4.03,2.75,921.72,33.27
2740844,-0.04,-0.09,0.99,1.46,5.19,2.62,921.81,33.28
2740882,-0.04,-0.08,1.0,1.65,4.52,2.69,921.81,33.27
2740920,-0.05,-0.08,0.98,1.46,4.82,2.99,921.8,33.26
2740959,-0.05,-0.08,0.96,1.34,4.82,3.17,921.8,33.28
2740997,-0.04,-0.08,0.97,1.53,4.15,3.17,921.78,33.27
2741035,-0.05,-0.08,0.98,1.16,4.27,3.3,921.72,33.28
2741084,-0.04,-0.08,1.04,1.59,3.78,3.42,921.79,33.26
2741123,-0.04,-0.09,1.03,1.53,4.39,3.6,921.72,33.26
2741161,-0.04,-0.08,1.07,1.65,2.93,3.54,921.77,33.26
2741199,-0.04,-0.09,1.06,1.53,3.6,3.91,921.82,33.26
2741237,-0.02,-0.08,1.07,1.65,2.38,3.85,921.79,33.26
2741275,-0.02,-0.08,1.04,1.34,2.62,3.91,921.79,33.27
2741313,-0.03,-0.08,1.02,1.77,1.53,4.09,921.87,33.27
2741351,-0.04,-0.07,1.07,2.01,1.16,4.03,921.77,33.25
2741389,-0.03,-0.08,1.04,1.89,1.89,4.21,921.78,33.27
2741427,-0.02,-0.08,1.09,2.56,0.24,4.09,921.84,33.27
2741503,-0.02,-0.08,1.12,2.44,0.98,3.97,921.89,33.24
2741541,-0.04,-0.08,1.12,2.38,1.16,4.09,921.92,33.25
2741579,-0.04,-0.08,1.07,2.38,2.08,3.97,921.87,33.25
2741669,-0.03,-0.08,1.02,2.5,2.14,3.78,921.93,33.23
2741707,-0.02,-0.09,1.0,2.62,2.26,3.85,921.93,33.25
2741745,-0.02,-0.09,0.99,2.44,2.26,3.72,921.94,33.24
2741783,-0.02,-0.08,0.99,2.62,2.44,3.78,921.93,33.24
2741821,-0.03,-0.08,0.99,2.38,2.26,3.72,922.02,33.25
2741859,-0.02,-0.09,0.96,2.32,2.99,3.6,921.99,33.24
2741897,-0.01,-0.09,0.96,2.5,2.08,3.48,921.89,33.25
2741947,-0.02,-0.08,0.97,2.38,2.26,3.6,921.98,33.25
2741985,-0.01,-0.08,0.96,1.95,2.01,3.54,921.95,33.25
2742023,-0.02,-0.07,0.99,1.95,1.59,3.48,921.95,33.24
2742061,-0.02,-0.08,0.97,1.83,1.95,3.54,921.96,33.26
2742099,-0.03,-0.08,0.99,2.08,1.1,3.42,921.96,33.28
2742137,-0.02,-0.09,0.96,2.01,2.14,3.6,922.04,33.27
2742175,-0.02,-0.08,0.97,1.95,2.2,3.3,921.97,33.27
2742213,-0.02,-0.08,1.01,2.32,1.53,3.36,921.96,33.26
2742251,-0.02,-0.09,1.03,1.89,1.16,3.54,922.04,33.27
2742301,-0.03,-0.08,1.07,1.71,0.98,3.42,922.02,33.26
2742339,-0.04,-0.08,1.15,1.83,1.65,3.3,922.07,33.26
2742377,-0.02,-0.09,1.13,1.71,2.38,3.36,922.09,33.27
2742415,-0.03,-0.08,1.14,1.83,1.4,3.3,922.12,33.27
2742454,-0.03,-0.09,1.07,2.01,3.23,3.36,922.07,33.26
2742492,-0.03,-0.08,1.04,2.56,3.54,3.3,922.09,33.26
2742530,-0.03,-0.07,1.03,2.62,3.48,3.42,922.1,33.27
2742568,-0.03,-0.09,0.99,2.5,3.17,3.42,922.07,33.28
2742606,-0.04,-0.09,1.0,2.62,3.36,3.3,922.14,33.28
2742644,-0.03,-0.09,0.99,2.38,4.76,3.36,922.1,33.27
2742694,-0.02,-0.08,1.04,2.69,3.78,3.48,922.12,33.26
2742732,-0.04,-0.09,0.98,2.56,4.82,3.54,922.12,33.27
2742770,-0.02,-0.09,0.99,2.62,5.0,3.72,922.11,33.26
2742808,-0.04,-0.08,0.99,2.75,5.55,3.66,922.12,33.27
2742846,-0.04,-0.09,0.92,2.26,6.71,3.85,922.13,33.28
2742884,-0.05,-0.07,0.98,3.23,5.8,4.03,922.1,33.27
2742922,-0.03,-0.09,0.97,2.62,7.26,4.15,922.19,33.28
2742960,-0.01,-0.09,0.93,2.81,6.53,4.21,922.15,33.26
2742998,-0.04,-0.08,0.92,2.99,6.47,4.27,922.15,33.27
2743037,-0.02,-0.09,0.9,2.75,6.84,4.76,922.16,33.28
2743086,-0.0,-0.08,0.93,2.87,5.68,4.7,922.14,33.27
2743124,-0.01,-0.09,0.87,2.5,6.47,4.64,922.22,33.27
2743162,-0.01,-0.09,0.85,2.99,5.8,4.64,922.15,33.28
2743200,0.0,-0.1,0.85,2.93,6.16,4.33,922.23,33.27
2743239,-0.01,-0.09,0.83,2.87,5.92,4.46,922.18,33.27
2743277,-0.02,-0.09,0.84,3.11,5.19,4.64,922.2,33.26
2743315,0.0,-0.09,0.84,2.75,5.49,4.52,922.19,33.26
2743353,0.0,-0.08,0.87,2.87,5.13,4.46,922.21,33.26
2743391,-0.01,-0.08,0.89,2.99,4.39,4.64,922.22,33.26
2743441,0.01,-0.09,0.85,3.11,3.66,4.58,922.19,33.26
2743479,0.01,-0.09,0.82,2.87,3.6,4.52,922.24,33.26
2743517,0.03,-0.09,0.79,2.75,3.42,4.46,922.16,33.25
2743555,0.01,-0.09,0.76,2.69,3.97,4.09,922.24,33.25
2743593,0.05,-0.1,0.78,2.75,3.36,3.91,922.2,33.24
2743631,0.02,-0.09,0.78,2.2,4.46,3.66,922.21,33.27
2743669,0.01,-0.09,0.81,2.44,3.85,3.54,922.26,33.24
2743707,0.01,-0.1,0.82,2.14,5.25,3.36,922.28,33.26
2743745,0.02,-0.1,0.82,2.01,4.64,2.99,922.16,33.25
2743783,0.01,-0.09,0.88,2.14,5.92,2.87,922.27,33.25
2743833,0.03,-0.09,0.9,1.95,6.35,2.44,922.32,33.25
2743871,0.02,-0.08,0.94,1.77,6.84,2.2,922.29,33.25
2743909,0.02,-0.09,0.91,1.95,6.65,2.08,922.3,33.25
2743947,0.01,-0.08,0.98,2.2,6.96,1.95,922.29,33.25
2743985,0.02,-0.09,0.97,1.89,7.63,1.95,922.3,33.24
2744023,0.0,-0.08,1.0,2.14,6.65,1.65,922.3,33.25
2744061,0.0,-0.09,0.98,2.2,7.51,1.65,922.36,33.25
2744099,0.03,-0.09,0.95,2.01,7.57,1.53,922.43,33.27
2744137,0.01,-0.08,1.0,2.08,7.08,1.4,922.39,33.25
2744175,0.01,-0.09,0.96,1.89,7.32,1.28,922.38,33.26
2744225,0.03,-0.08,1.01,1.71,7.26,1.04,922.38,33.25
2744263,0.02,-0.09,1.01,2.08,6.59,0.92,922.4,33.25
2744301,0.01,-0.09,1.01,1.83,6.23,0.67,922.41,33.25
2744339,0.0,-0.09,1.02,2.08,6.84,0.67,922.41,33.25
2744377,0.01,-0.09,1.03,2.08,7.02,0.43,922.41,33.25
2744415,0.0,-0.09,1.03,2.2,6.71,0.43,922.49,33.26
2744453,0.0,-0.09,0.99,2.08,7.02,0.18,922.54,33.26
2744491,0.01,-0.08,1.0,2.26,6.53,0.06,922.48,33.26
2744529,0.01,-0.09,0.95,2.26,6.77,0.0,922.58,33.26
2744567,0.01,-0.08,0.95,2.5,5.92,-0.06,922.58,33.27
2744643,0.0,-0.09,0.93,2.2,6.1,-0.18,922.53,33.23
2744681,0.0,-0.09,0.95,2.32,5.49,-0.24,922.55,33.24
2744719,-0.0,-0.09,0.94,2.32,4.94,-0.37,922.59,33.25
2744808,0.01,-0.09,0.95,2.56,5.98,-0.37,922.62,33.22
2744846,-0.0,-0.09,0.95,2.81,5.49,-0.55,922.59,33.24
2744884,-0.0,-0.09,0.93,2.75,5.55,-0.43,922.62,33.23
2744923,0.01,-0.09,0.92,2.81,5.37,-0.73,922.66,33.24
2744961,0.0,-0.09,0.91,2.87,5.98,-0.73,922.62,33.24
2744999,-0.0,-0.09,0.88,2.93,6.35,-0.79,922.69,33.24
2745048,-0.0,-0.09,0.88,3.05,6.71,-0.98,922.64,33.22
2745086,0.01,-0.09,0.88,2.87,6.77,-0.98,922.73,33.24
2745125,0.0,-0.09,0.89,2.75,6.84,-0.98,922.71,33.24
2745163,-0.0,-0.08,0.89,2.87,6.96,-1.22,922.69,33.24
2745201,-0.02,-0.08,0.91,2.62,7.2,-1.22,922.76,33.26
2745239,-0.01,-0.09,0.92,2.62,7.39,-1.04,922.73,33.24
2745277,0.01,-0.09,0.92,2.26,8.36,-1.22,922.78,33.25
2745315,-0.01,-0.08,0.93,2.5,8.06,-1.34,922.82,33.26
2745353,0.0,-0.08,0.94,2.38,8.67,-1.4,922.78,33.25
2745391,0.0,-0.09,0.94,2.14,9.28,-1.53,922.79,33.24
2745441,0.01,-0.08,0.99,2.2,10.62,-1.46,922.77,33.25
2745479,-0.03,-0.08,0.99,2.5,10.25,-1.46,922.81,33.24
2745517,-0.01,-0.09,0.98,2.26,9.77,-1.34,922.85,33.24
2745555,0.0,-0.09,0.95,2.38,8.18,-1.4,922.85,33.24
2745593,-0.02,-0.07,0.94,2.26,7.08,-1.22,922.93,33.25
2745631,0.0,-0.09,0.89,2.5,5.62,-1.22,922.89,33.26
2745669,-0.0,-0.08,0.92,2.32,4.76,-1.53,922.88,33.24
2745707,-0.0,-0.09,0.91,2.2,4.21,-1.1,922.94,33.26
2745745,-0.0,-0.09,0.94,2.01,3.17,-1.22,922.93,33.26
2745795,-0.01,-0.08,0.95,2.14,2.32,-1.53,922.98,33.25
2745833,-0.0,-0.09,0.95,2.2,2.75,-1.59,922.98,33.26
2745871,0.0,-0.08,0.96,2.38,2.32,-1.59,923.0,33.25
2745909,-0.01,-0.08,0.95,2.14,2.44,-1.77,922.99,33.25
2745947,-0.02,-0.08,0.96,2.2,2.5,-1.77,922.99,33.26
2745985,-0.02,-0.09,0.98,2.32,2.56,-1.89,923.08,33.26
2746023,-0.01,-0.09,0.98,1.95,2.99,-2.14,923.05,33.25
2746061,-0.02,-0.08,0.99,2.2,2.56,-2.26,923.1,33.26
2746099,-0.0,-0.08,0.99,2.32,2.93,-2.32,923.13,33.25
2746138,0.01,-0.08,1.01,2.14,2.87,-2.38,923.13,33.26
2746187,-0.01,-0.08,1.02,2.32,3.42,-2.38,923.12,33.24
2746225,-0.0,-0.09,1.01,2.38,3.78,-2.69,923.15,33.25
2746263,-0.01,-0.09,0.97,2.14,3.85,-2.87,923.15,33.24
2746301,-0.01,-0.08,1.02,2.32,2.62,-3.11,923.18,33.25
2746339,-0.0,-0.09,0.97,1.83,4.21,-3.11,923.14,33.24
2746377,0.0,-0.08,0.98,2.2,2.69,-3.23,923.16,33.25
2746416,-0.01,-0.09,0.97,2.01,3.3,-3.17,923.27,33.25
2746454,-0.02,-0.09,0.93,1.83,3.48,-3.23,923.25,33.25
2746492,-0.03,-0.08,0.96,2.32,3.91,-3.54,923.22,33.26
2746541,-0.01,-0.09,0.93,2.08,4.21,-3.66,923.25,33.24
2746580,-0.01,-0.08,1.0,2.08,3.85,-3.72,923.23,33.24
2746618,-0.02,-0.08,0.98,1.89,4.64,-3.72,923.24,33.25
2746656,-0.02,-0.08,1.03,1.83,4.46,-3.78,923.26,33.26
2746694,-0.03,-0.08,1.04,1.89,4.76,-3.78,923.3,33.26
2746732,-0.02,-0.09,1.05,1.83,4.39,-3.72,923.31,33.25
2746770,-0.03,-0.08,1.07,1.95,4.09,-3.85,923.37,33.26
2746808,-0.03,-0.09,1.06,1.83,4.27,-3.66,923.38,33.26
2746846,-0.01,-0.08,1.08,2.08,4.03,-3.72,923.41,33.26
2746884,-0.03,-0.08,1.07,2.08,4.52,-3.72,923.34,33.24
2746934,-0.04,-0.08,1.06,2.14,3.91,-3.6,923.38,33.24
2746972,-0.05,-0.08,1.05,2.2,4.94,-3.66,923.4,33.25
2747010,-0.05,-0.08,1.07,2.44,5.55,-3.6,923.51,33.26
2747048,-0.05,-0.08,1.08,2.56,5.49,-3.66,923.42,33.26
2747086,-0.04,-0.09,1.03,1.89,6.29,-3.54,923.47,33.26
2747124,-0.04,-0.08,1.11,2.69,5.62,-3.48,923.47,33.26
2747162,-0.04,-0.09,1.06,2.62,6.59,-3.3,923.42,33.25
2747200,-0.05,-0.08,1.06,2.81,5.49,-3.17,923.53,33.26
2747238,-0.06,-0.08,1.07,2.99,5.8,-3.17,923.51,33.24
2747288,-0.05,-0.08,1.02,2.75,5.8,-3.11,923.49,33.25
2747326,-0.06,-0.08,1.02,2.87,6.16,-2.93,923.48,33.25
2747364,-0.05,-0.08,1.0,2.93,5.86,-2.62,923.51,33.24
2747403,-0.06,-0.07,1.01,2.69,5.86,-2.5,923.57,33.26
2747441,-0.05,-0.08,1.0,2.56,5.86,-2.44,923.54,33.25
2747479,-0.06,-0.08,1.0,2.5,5.86,-2.38,923.57,33.25
2747517,-0.06,-0.08,1.0,2.32,5.55,-2.38,923.55,33.25
2747555,-0.05,-0.08,1.01,2.26,5.55,-2.08,923.55,33.26
2747593,-0.07,-0.08,0.98,2.14,5.62,-2.01,923.55,33.26
2747631,-0.07,-0.08,0.99,2.14,5.37,-1.71,923.61,33.25
2747707,-0.08,-0.08,1.0,2.08,4.7,-1.65,923.66,33.22
2747745,-0.07,-0.08,1.01,1.89,4.94,-1.53,923.58,33.23
2747783,-0.06,-0.08,1.02,1.95,5.37,-1.46,923.62,33.24
2747872,-0.06,-0.09,1.02,2.01,5.25,-0.98,923.7,33.21
2747910,-0.08,-0.08,1.01,2.01,5.55,-0.85,923.67,33.22
2747949,-0.06,-0.09,0.98,1.89,5.68,-0.79,923.65,33.22
2747987,-0.06,-0.08,1.0,1.95,5.19,-0.55,923.72,33.23
2748025,-0.07,-0.08,1.0,1.83,5.0,-0.49,923.73,33.23
2748063,-0.08,-0.08,0.97,2.01,4.94,-0.31,923.71,33.23
2748113,-0.06,-0.08,1.03,2.2,4.46,-0.12,923.69,33.22
2748151,-0.07,-0.09,0.97,2.01,4.27,-0.06,923.78,33.23
2748189,-0.07,-0.07,1.01,2.38,3.36,0.12,923.73,33.23
2748227,-0.07,-0.08,0.98,2.26,5.0,0.12,923.8,33.24
2748265,-0.06,-0.08,0.98,2.32,3.54,0.24,923.79,33.24
2748303,-0.08,-0.09,0.97,2.44,3.78,0.61,923.79,33.24
2748341,-0.08,-0.08,0.94,2.08,4.03,0.85,923.86,33.25
2748379,-0.06,-0.08,0.96,2.2,4.03,0.79,923.77,33.23
2748417,-0.06,-0.08,0.93,1.71,3.91,0.98,923.87,33.24
2748455,-0.07,-0.08,0.94,1.89,3.42,1.1,923.87,33.24
2748505,-0.06,-0.09,0.93,1.77,3.66,1.28,923.89,33.23
2748543,-0.06,-0.08,0.96,1.95,3.23,1.4,923.9,33.25
2748581,-0.04,-0.08,0.95,1.53,3.11,1.59,923.91,33.24
2748620,-0.05,-0.08,0.95,1.65,2.62,1.59,923.97,33.27
2748658,-0.05,-0.08,0.96,1.46,2.56,1.71,923.9,33.24
2748696,-0.05,-0.09,0.96,1.28,2.44,1.95,923.87,33.24
2748734,-0.05,-0.09,0.93,0.67,2.69,1.77,923.94,33.25
2748772,-0.05,-0.07,1.0,0.98,1.89,1.77,924.02,33.26
2748810,-0.05,-0.09,0.97,0.12,3.36,2.01,924.02,33.26
2748848,-0.05,-0.09,0.99,0.49,2.2,1.83,924.02,33.26
2748898,-0.04,-0.09,1.01,0.43,3.85,1.89,924.05,33.25
2748936,-0.03,-0.09,1.02,0.67,2.81,1.83,924.04,33.26
2748974,-0.05,-0.09,1.02,0.73,3.66,1.95,924.06,33.24
2749012,-0.02,-0.09,1.01,0.61,3.54,1.83,924.11,33.25
2749050,-0.04,-0.08,1.03,0.85,2.93,1.71,924.06,33.26
2749088,-0.04,-0.09,1.02,0.85,3.48,1.65,924.1,33.26
2749127,-0.03,-0.09,1.06,0.98,2.69,1.71,924.06,33.26
2749165,-0.04,-0.09,1.05,1.16,2.87,1.83,924.18,33.28
2749203,-0.05,-0.09,1.03,0.92,2.26,1.65,924.11,33.24
2749252,-0.04,-0.09,1.04,0.79,2.93,1.65,924.17,33.24
2749291,-0.04,-0.08,1.07,0.92,2.44,1.53,924.15,33.26
2749329,-0.04,-0.09,1.08,0.98,2.38,1.46,924.17,33.26
2749367,-0.04,-0.08,1.08,0.92,2.44,1.59,924.24,33.24
2749405,-0.05,-0.08,1.11,1.1,2.38,1.59,924.26,33.26
2749443,-0.03,-0.09,1.11,0.67,2.38,1.65,924.23,33.24
2749481,-0.04,-0.08,1.14,1.04,1.95,1.28,924.25,33.24
2749519,-0.03,-0.09,1.12,0.92,2.5,1.28,924.29,33.25
2749557,-0.02,-0.08,1.14,1.1,1.71,1.16,924.33,33.25
2749595,-0.04,-0.09,1.1,1.16,1.77,1.28,924.35,33.25
2749645,-0.03,-0.08,1.09,1.34,1.4,1.22,924.31,33.24
2749683,-0.03,-0.08,1.06,1.34,1.77,0.98,924.3,33.24
2749721,-0.03,-0.09,1.05,1.53,1.22,0.98,924.35,33.25
2749759,-0.03,-0.09,1.01,1.34,1.71,0.92,924.34,33.23
2749797,-0.02,-0.08,1.04,1.59,1.89,0.85,924.43,33.24
2749835,-0.03,-0.09,1.03,1.65,2.93,0.55,924.39,33.25
2749874,-0.04,-0.09,1.01,1.83,2.87,0.55,924.38,33.25
2749912,-0.04,-0.09,1.0,1.89,3.54,0.43,924.47,33.25
2749950,-0.03,-0.1,0.98,1.53,3.78,0.49,924.49,33.26
2749988,-0.04,-0.08,0.99,1.95,3.05,0.49,924.4,33.24
2750038,-0.04,-0.09,0.95,1.71,4.33,0.55,924.45,33.24
2750076,-0.03,-0.09,0.97,1.77,3.42,0.43,924.47,33.24
2750114,-0.03,-0.09,0.95,1.65,3.97,0.31,924.43,33.24
2750152,-0.05,-0.09,0.97,1.59,3.85,0.43,924.41,33.24
2750190,-0.03,-0.09,0.97,1.59,4.76,0.31,924.47,33.25
2750228,-0.04,-0.08,0.97,1.4,4.33,0.24,924.51,33.25
2750266,-0.04,-0.09,0.99,1.34,4.64,0.37,924.49,33.24
2750304,-0.03,-0.09,1.0,1.22,5.07,0.18,924.53,33.26
2750343,-0.04,-0.09,1.08,1.4,4.33,0.18,924.51,33.24
2750392,-0.04,-0.09,1.1,1.04,5.13,0.31,924.55,33.24
2750430,-0.04,-0.09,1.12,1.22,5.31,0.37,924.58,33.24
2750469,-0.02,-0.09,1.14,1.1,5.92,0.43,924.55,33.24
2750507,-0.03,-0.09,1.12,1.22,5.74,0.37,924.57,33.25
2750545,-0.04,-0.09,1.09,1.59,5.62,0.43,924.53,33.24
2750583,-0.03,-0.09,1.09,1.34,5.19,0.37,924.58,33.25
2750621,-0.04,-0.08,1.13,1.28,3.85,0.18,924.57,33.25
2750659,-0.04,-0.09,1.11,1.28,3.85,0.37,924.52,33.24
2750697,-0.03,-0.08,1.13,1.22,3.36,0.31,924.6,33.24
2750735,-0.03,-0.09,1.19,1.16,3.54,0.31,924.63,33.24
2750811,-0.05,-0.08,1.16,2.01,5.13,0.12,924.64,33.2
2750849,-0.04,-0.09,1.12,1.83,6.47,-0.12,924.66,33.23
2750887,-0.02,-0.08,1.1,1.83,5.8,-0.06,924.71,33.23
2750977,-0.03,-0.09,1.05,1.71,7.02,0.06,924.66,33.2
2751015,-0.03,-0.09,1.03,1.89,7.02,-0.12,924.65,33.21
2751053,-0.04,-0.09,1.03,1.83,6.9,-0.12,924.67,33.22
2751091,-0.04,-0.09,1.03,1.59,6.59,-0.24,924.67,33.22
2751129,-0.03,-0.09,1.04,1.34,7.02,-0.31,924.71,33.24
2751167,-0.02,-0.09,1.05,1.46,6.59,-0.31,924.69,33.23
2751205,-0.03,-0.09,1.03,1.1,6.9,-0.24,924.68,33.22
2751255,-0.05,-0.09,1.04,1.34,6.9,-0.24,924.72,33.21
2751293,-0.04,-0.09,1.05,1.22,6.96,-0.31,924.74,33.21
2751331,-0.05,-0.09,1.02,1.77,6.59,-0.37,924.66,33.21
2751369,-0.05,-0.09,1.03,1.95,6.04,-0.31,924.73,33.22
2751407,-0.04,-0.09,1.01,1.77,5.92,-0.37,924.75,33.23
2751445,-0.03,-0.09,1.0,1.95,5.49,-0.31,924.71,33.22
2751483,-0.04,-0.08,1.0,1.95,5.31,-0.31,924.7,33.22
2751522,-0.06,-0.1,0.97,2.01,5.43,-0.49,924.77,33.22
2751560,-0.03,-0.09,0.98,2.26,4.94,-0.37,924.8,33.22
2751609,-0.05,-0.09,0.98,2.2,5.13,-0.49,924.78,33.2
2751648,-0.03,-0.09,0.96,2.14,5.74,-0.37,924.79,33.22
2751686,-0.03,-0.08,0.99,2.38,5.8,-0.43,924.82,33.22
2751724,-0.04,-0.09,0.99,2.26,6.53,-0.43,924.85,33.24
2751762,-0.05,-0.09,0.96,2.26,5.55,-0.43,924.8,33.24
2751800,-0.04,-0.08,1.0,2.2,4.64,-0.49,924.85,33.23
2751838,-0.03,-0.09,1.01,1.95,4.64,-0.55,924.8,33.23
2751876,-0.06,-0.09,1.02,2.08,4.15,-0.43,924.83,33.23
2751914,-0.04,-0.09,1.04,1.95,3.66,-0.37,924.9,33.24
2751964,-0.05,-0.09,1.01,1.83,3.72,-0.37,924.82,33.22
2752002,-0.04,-0.08,1.01,2.08,3.36,-0.43,924.85,33.22
2752040,-0.04,-0.1,0.99,1.95,3.42,-0.31,924.83,33.23
2752078,-0.02,-0.09,1.0,1.95,3.17,-0.55,924.83,33.23
2752116,-0.03,-0.09,1.0,2.08,3.42,-0.55,924.9,33.24
2752154,-0.03,-0.09,0.98,2.08,2.81,-0.55,924.85,33.24
2752193,-0.03,-0.1,1.0,1.95,2.32,-0.67,924.87,33.24
2752231,-0.05,-0.1,1.0,1.95,2.26,-0.49,924.88,33.24
2752269,-0.04,-0.1,1.02,1.95,2.14,-0.67,924.83,33.25
2752307,-0.03,-0.09,1.02,1.89,1.89,-0.61,924.88,33.24
2752357,-0.02,-0.09,1.03,1.65,1.28,-0.55,924.9,33.23
2752395,-0.04,-0.1,1.02,1.65,0.98,-0.73,924.91,33.24
2752433,-0.04,-0.09,1.02,1.46,0.79,-0.73,924.97,33.23
2752471,-0.04,-0.09,1.03,1.28,0.31,-0.85,924.9,33.24
2752509,-0.04,-0.09,1.03,1.34,0.31,-0.73,924.94,33.24
2752547,-0.05,-0.1,1.0,1.22,0.37,-0.85,924.96,33.24
2752585,-0.04,-0.09,1.0,1.65,0.0,-0.79,924.91,33.24
2752623,-0.04,-0.1,1.0,1.28,0.06,-1.1,924.96,33.24
2752662,-0.04,-0.09,1.01,1.59,-0.18,-1.04,924.94,33.24
2752711,-0.04,-0.09,1.02,1.46,-0.31,-0.98,924.96,33.24
2752750,-0.05,-0.09,1.01,1.22,-0.31,-1.16,924.98,33.24
2752788,-0.06,-0.09,1.01,1.22,-0.37,-1.22,925.0,33.23
2752826,-0.05,-0.09,1.03,1.28,-0.18,-1.28,924.97,33.24
2752864,-0.05,-0.1,1.02,1.28,-0.18,-1.22,924.97,33.24
2752902,-0.04,-0.09,1.0,1.34,-0.06,-1.4,924.98,33.25
2752940,-0.06,-0.09,1.02,1.46,0.12,-1.22,924.94,33.24
2752978,-0.05,-0.09,1.04,1.59,0.31,-1.1,924.95,33.24
2753016,-0.05,-0.09,1.04,1.53,0.73,-1.16,925.0,33.24
2753055,-0.07,-0.09,1.02,1.59,0.31,-1.16,924.94,33.24
2753104,-0.06,-0.09,1.04,1.59,0.98,-1.04,924.95,33.23
2753142,-0.06,-0.08,1.03,1.46,0.55,-0.98,924.95,33.24
2753181,-0.04,-0.09,1.05,1.71,0.43,-0.79,924.96,33.22
2753219,-0.05,-0.09,1.01,1.53,0.85,-0.92,925.02,33.25
2753257,-0.07,-0.09,1.03,1.77,0.49,-0.73,924.99,33.24
2753295,-0.07,-0.09,1.04,1.89,0.73,-0.85,924.94,33.24
2753333,-0.05,-0.09,1.0,1.83,0.85,-0.73,924.94,33.24
2753371,-0.03,-0.09,1.01,1.83,0.18,-0.55,925.0,33.25
2753409,-0.06,-0.09,1.0,1.65,0.73,-0.49,925.06,33.25
2753459,-0.07,-0.09,0.99,1.89,0.12,-0.49,925.02,33.23
2753497,-0.06,-0.09,0.99,1.71,0.55,-0.49,925.01,33.24
2753535,-0.07,-0.08,1.0,1.59,0.06,-0.31,924.95,33.25
2753573,-0.06,-0.09,1.01,1.46,0.18,-0.31,925.03,33.24
2753611,-0.07,-0.08,1.0,1.4,0.0,-0.31,925.11,33.26
2753649,-0.07,-0.09,1.01,1.71,-0.18,-0.18,925.03,33.24
2753688,-0.07,-0.08,1.0,1.71,0.37,0.06,925.05,33.26
2753726,-0.08,-0.08,1.01,1.71,0.31,0.0,925.04,33.24
2753764,-0.07,-0.09,1.02,1.71,0.61,0.18,925.08,33.26
2753802,-0.08,-0.09,1.0,2.14,1.4,0.31,925.09,33.24
2753878,-0.08,-0.09,1.0,2.01,2.32,0.61,925.14,33.21
2753916,-0.07,-0.09,0.99,2.14,2.81,0.49,925.18,33.23
2753954,-0.06,-0.08,1.01,2.2,3.17,0.79,925.15,33.25
2754043,-0.06,-0.09,1.02,2.5,4.94,1.16,925.18,33.21
2754081,-0.07,-0.09,1.02,2.32,5.31,1.46,925.17,33.21
2754120,-0.07,-0.09,1.0,2.2,5.19,1.65,925.21,33.23
2754158,-0.06,-0.09,1.01,2.2,5.37,1.65,925.25,33.22
2754196,-0.06,-0.09,0.99,2.08,5.74,1.89,925.19,33.23
2754234,-0.07,-0.09,0.99,2.01,4.88,2.08,925.18,33.22
2754284,-0.05,-0.09,0.97,2.26,5.19,2.2,925.19,33.22
2754322,-0.05,-0.09,0.98,2.32,4.64,2.32,925.22,33.24
2754360,-0.05,-0.09,0.98,2.2,4.76,2.69,925.2,33.22
2754398,-0.05,-0.09,0.98,2.32,4.03,2.69,925.24,33.22
2754436,-0.06,-0.09,0.96,2.26,4.03,2.87,925.21,33.24
2754474,-0.07,-0.08,0.96,2.14,3.54,3.17,925.28,33.23
2754513,-0.05,-0.09,0.94,2.14,3.78,3.11,925.19,33.24
2754551,-0.04,-0.09,0.96,2.01,3.17,3.23,925.18,33.24
2754589,-0.05,-0.1,0.95,1.89,3.78,3.3,925.24,33.24
2754627,-0.07,-0.09,0.97,1.95,3.48,3.17,925.29,33.24
2754677,-0.06,-0.1,0.99,1.71,4.21,3.66,925.26,33.22
2754715,-0.05,-0.1,1.02,1.83,3.48,3.6,925.22,33.25
2754753,-0.06,-0.09,1.02,1.77,3.85,3.72,925.24,33.23
2754791,-0.05,-0.09,1.02,1.65,3.48,3.97,925.24,33.24
2754829,-0.05,-0.09,1.05,1.89,3.78,3.85,925.24,33.23
2754867,-0.05,-0.09,1.03,1.34,3.91,3.85,925.26,33.25
2754906,-0.04,-0.09,1.06,1.77,3.91,3.72,925.33,33.24
2754944,-0.04,-0.1,1.05,1.65,4.39,3.91,925.3,33.24
2754982,-0.04,-0.08,1.08,1.59,3.66,3.85,925.28,33.26
2755020,-0.06,-0.09,1.06,1.71,3.54,4.03,925.34,33.22
2755070,-0.04,-0.09,1.07,1.71,3.17,3.91,925.35,33.22
2755108,-0.04,-0.1,1.05,1.53,3.3,4.03,925.36,33.23
2755146,-0.02,-0.1,1.03,1.53,3.05,3.91,925.34,33.24
2755184,-0.04,-0.09,1.03,1.71,3.36,4.03,925.36,33.24
2755222,-0.03,-0.09,1.03,1.46,3.36,3.85,925.39,33.24
2755260,-0.02,-0.1,1.02,1.28,2.99,3.85,925.34,33.23
2755298,-0.03,-0.1,1.0,1.22,2.56,3.72,925.36,33.23
2755337,-0.02,-0.1,1.03,0.98,2.38,3.54,925.36,33.24
2755375,-0.01,-0.1,1.03,1.04,2.44,3.48,925.38,33.24
2755424,-0.02,-0.1,1.04,0.98,2.5,3.3,925.43,33.22
2755463,-0.02,-0.1,1.03,0.67,2.5,3.23,925.36,33.22
2755501,-0.02,-0.1,1.03,0.61,2.32,3.11,925.43,33.23
2755539,-0.01,-0.1,1.04,0.43,2.69,2.93,925.41,33.24
2755577,-0.01,-0.1,1.04,0.43,2.69,2.87,925.44,33.23
2755615,-0.02,-0.09,1.06,0.61,2.69,2.75,925.43,33.24
2755653,-0.01,-0.1,1.05,0.79,2.93,2.62,925.43,33.23
2755691,-0.02,-0.09,1.06,0.67,3.05,2.44,925.4,33.22
2755730,-0.01,-0.1,1.06,0.73,3.42,2.32,925.4,33.23
2755768,-0.02,-0.1,1.05,1.04,3.42,2.32,925.46,33.23
2755817,-0.02,-0.09,1.04,0.92,3.36,2.01,925.42,33.22
2755856,-0.02,-0.1,1.04,1.1,3.48,1.95,925.38,33.22
2755894,-0.02,-0.1,1.05,1.1,3.72,1.89,925.45,33.22
2755932,-0.01,-0.1,1.05,0.98,3.91,1.77,925.44,33.24
2755970,-0.03,-0.1,1.04,0.98,4.33,1.65,925.44,33.22
2756008,-0.03,-0.1,1.05,1.1,4.09,1.65,925.41,33.22
2756046,-0.02,-0.09,1.05,0.92,4.03,1.59,925.49,33.22
2756084,-0.02,-0.1,1.03,0.98,4.21,1.46,925.44,33.22
2756122,-0.01,-0.09,1.04,1.04,3.72,1.34,925.46,33.22
2756161,-0.02,-0.09,1.0,0.92,4.03,1.22,925.42,33.22
2756210,-0.03,-0.1,1.0,1.16,3.97,1.1,925.49,33.22
2756248,-0.02,-0.09,1.01,0.92,3.97,1.1,925.5,33.22
2756287,-0.01,-0.1,1.02,1.1,3.78,0.98,925.51,33.22
2756325,-0.02,-0.1,1.0,0.79,3.97,0.92,925.48,33.22
2756363,-0.03,-0.09,1.01,1.1,3.78,0.79,925.47,33.24
2756401,-0.02,-0.09,1.01,1.1,4.03,0.73,925.47,33.23
2756439,-0.02,-0.09,1.01,0.92,3.42,0.67,925.5,33.23
2756477,-0.03,-0.09,1.0,1.04,3.72,0.61,925.5,33.22
2756515,-0.02,-0.09,1.01,1.04,3.97,0.85,925.46,33.22
2756565,-0.03,-0.09,1.01,1.16,3.66,0.55,925.49,33.22
2756603,-0.03,-0.09,1.02,1.16,4.39,0.43,925.46,33.22
2756641,-0.03,-0.09,1.03,0.85,4.21,0.55,925.48,33.23
2756679,-0.02,-0.09,1.05,1.28,3.97,0.43,925.49,33.22
2756718,-0.04,-0.09,1.04,1.28,4.33,0.43,925.53,33.24
2756756,-0.03,-0.09,1.04,1.22,4.76,0.61,925.51,33.23
2756794,-0.03,-0.09,1.04,1.53,4.39,0.43,925.5,33.23
2756832,-0.03,-0.09,1.05,1.4,3.91,0.31,925.54,33.24
2756870,-0.03,-0.09,1.03,1.34,4.21,0.37,925.49,33.24
2756908,-0.03,-0.09,1.06,1.65,4.09,0.49,925.5,33.22
2756985,-0.03,-0.09,1.02,2.14,4.33,0.43,925.49,33.22
2757023,-0.02,-0.09,1.03,2.32,4.15,0.24,925.5,33.21
2757061,-0.01,-0.09,1.06,2.69,3.66,0.12,925.53,33.23
2757151,-0.02,-0.08,1.07,2.93,3.66,0.12,925.49,33.19
2757189,-0.03,-0.1,1.07,3.23,4.09,0.12,925.46,33.2
2757227,-0.04,-0.09,1.06,3.23,3.78,0.12,925.5,33.22
2757265,-0.03,-0.09,1.06,3.48,3.48,0.12,925.51,33.21
2757303,-0.03,-0.1,1.03,3.54,3.97,0.06,925.48,33.22
2757342,-0.03,-0.09,1.01,3.78,3.42,0.12,925.54,33.22
2757380,-0.03,-0.1,0.99,3.85,3.66,0.18,925.5,33.23
2757429,-0.03,-0.1,0.96,4.03,3.54,-0.06,925.52,33.2
2757468,-0.03,-0.1,0.94,4.15,4.03,0.0,925.56,33.22
2757506,-0.03,-0.09,0.91,4.03,4.46,-0.06,925.49,33.22
2757544,-0.05,-0.09,0.92,4.09,3.54,-0.06,925.56,33.23
2757582,-0.04,-0.1,0.91,3.78,4.03,0.0,925.52,33.24
2757620,-0.02,-0.1,0.89,3.6,4.15,-0.12,925.47,33.23
2757658,-0.02,-0.09,0.9,3.54,4.39,-0.12,925.49,33.24
2757696,-0.02,-0.1,0.89,3.36,4.52,0.0,925.52,33.24
2757734,-0.03,-0.1,0.88,3.05,4.39,-0.12,925.46,33.24
2757784,-0.05,-0.1,0.89,2.93,4.09,0.0,925.5,33.21
2757822,-0.04,-0.1,0.88,2.26,3.97,-0.06,925.52,33.23
2757860,-0.04,-0.1,0.9,2.14,3.97,-0.31,925.5,33.22
2757898,-0.02,-0.09,0.93,2.08,3.85,-0.12,925.47,33.24
2757937,-0.02,-0.1,0.96,1.89,3.85,-0.12,925.47,33.23
2757975,-0.04,-0.1,0.97,1.83,3.85,-0.18,925.46,33.23
2758013,-0.04,-0.09,1.01,1.53,4.33,0.0,925.5,33.22
2758051,-0.05,-0.1,1.01,1.83,4.27,0.12,925.46,33.23
2758089,-0.04,-0.09,1.01,1.71,4.03,-0.06,925.49,33.23
2758127,-0.03,-0.09,1.02,1.83,3.66,0.0,925.49,33.24
2758177,-0.03,-0.09,1.0,1.71,3.97,0.0,925.46,33.21
2758215,-0.04,-0.09,1.02,2.2,3.85,0.06,925.48,33.23
2758253,-0.03,-0.09,0.99,1.89,4.82,0.31,925.5,33.24
2758291,-0.04,-0.08,1.03,2.14,3.66,0.31,925.5,33.22
2758329,-0.05,-0.1,1.01,1.89,4.39,0.12,925.51,33.24
2758367,-0.03,-0.09,1.03,1.95,4.27,0.12,925.51,33.24
2758406,-0.03,-0.09,1.04,1.89,4.27,0.18,925.5,33.23
2758444,-0.03,-0.08,1.07,1.89,3.6,0.31,925.49,33.24
2758482,-0.04,-0.09,1.07,1.65,4.76,0.37,925.54,33.24
2758520,-0.05,-0.09,1.08,1.95,4.52,0.49,925.55,33.24
2758570,-0.05,-0.1,1.06,2.2,5.07,0.37,925.51,33.23
2758608,-0.03,-0.1,1.05,2.2,4.94,0.43,925.54,33.23
2758646,-0.04,-0.09,1.05,2.75,4.64,0.43,925.52,33.24
2758684,-0.05,-0.1,1.01,2.56,5.25,0.55,925.47,33.24
2758722,-0.05,-0.09,1.01,2.5,4.88,0.37,925.55,33.24
2758760,-0.04,-0.1,1.01,2.69,5.0,0.55,925.55,33.24
2758798,-0.04,-0.09,0.99,2.44,4.82,0.55,925.52,33.24
2758836,-0.04,-0.1,1.0,2.62,4.52,0.43,925.51,33.25
2758874,-0.03,-0.1,0.95,2.32,5.0,0.55,925.55,33.25
2758924,-0.05,-0.09,0.97,2.5,4.76,0.49,925.57,33.23
2758962,-0.04,-0.1,0.93,2.01,5.25,0.61,925.54,33.23
2759000,-0.04,-0.09,0.99,2.38,4.58,0.43,925.49,33.23
2759038,-0.04,-0.1,0.97,2.08,4.94,0.61,925.5,33.22
2759077,-0.05,-0.1,0.97,2.08,4.82,0.79,925.52,33.23
2759115,-0.04,-0.09,0.99,2.08,5.19,0.61,925.54,33.23
2759153,-0.04,-0.1,0.96,2.01,5.31,0.67,925.48,33.22
2759191,-0.03,-0.09,0.97,2.2,4.94,0.79,925.55,33.22
2759229,-0.05,-0.09,0.96,1.83,5.62,0.79,925.51,33.23
2759267,-0.04,-0.09,0.96,2.08,6.04,0.79,925.54,33.23
2759317,-0.04,-0.1,0.94,2.2,6.04,0.73,925.51,33.22
2759355,-0.04,-0.09,0.93,2.44,5.55,0.92,925.52,33.23
2759393,-0.04,-0.1,0.93,2.14,5.07,0.85,925.5,33.21
2759431,-0.04,-0.09,0.91,2.08,4.64,0.85,925.54,33.22
2759470,-0.05,-0.1,0.88,2.01,4.39,0.98,925.53,33.21
2759508,-0.05,-0.1,0.88,2.01,3.42,1.16,925.48,33.21
2759546,-0.04,-0.09,0.89,1.59,3.23,0.92,925.53,33.22
2759584,-0.05,-0.09,0.9,1.59,2.62,0.98,925.56,33.21
2759622,-0.03,-0.1,0.89,1.4,2.87,0.92,925.53,33.21
2759672,-0.05,-0.09,0.91,1.28,2.14,1.04,925.51,33.21
2759710,-0.05,-0.1,0.91,1.1,2.87,1.1,925.53,33.2
2759748,-0.04,-0.09,0.92,0.92,2.14,0.98,925.56,33.22
2759786,-0.05,-0.09,0.92,1.1,2.38,0.98,925.52,33.21
2759824,-0.05,-0.09,0.93,0.98,3.11,1.04,925.51,33.2
2759862,-0.04,-0.09,0.97,0.98,3.42,0.85,925.51,33.21
2759901,-0.04,-0.09,0.99,0.98,3.97,1.1,925.56,33.21
2759939,-0.05,-0.09,1.0,1.1,4.39,0.85,925.56,33.21
2759977,-0.05,-0.09,1.0,1.28,4.76,0.98,925.51,33.21
2760015,-0.04,-0.09,1.04,1.4,4.88,1.04,925.54,33.22
2760091,-0.05,-0.09,1.03,2.2,4.7,1.1,925.58,33.18
2760129,-0.04,-0.09,1.0,1.95,5.0,1.16,925.56,33.2
2760167,-0.04,-0.09,1.01,2.26,3.91,1.04,925.56,33.19
2760256,-0.04,-0.09,0.97,2.32,4.76,1.1,925.58,33.17
2760295,-0.05,-0.08,1.01,2.62,4.03,1.1,925.53,33.17
2760333,-0.04,-0.09,0.96,2.26,4.88,1.34,925.57,33.2
2760371,-0.03,-0.08,1.02,2.26,3.05,1.22,925.56,33.19
2760409,-0.05,-0.1,0.98,1.83,4.15,1.28,925.6,33.2
2760447,-0.03,-0.1,0.91,1.89,3.66,1.16,925.59,33.18
2760485,-0.04,-0.09,0.95,2.69,2.75,1.22,925.58,33.18
2760535,-0.04,-0.1,0.85,2.5,3.11,1.34,925.56,33.18
2760573,-0.04,-0.09,0.88,2.81,2.56,1.04,925.62,33.2
2760611,-0.05,-0.1,0.81,2.26,3.78,1.1,925.56,33.2
2760649,-0.03,-0.09,0.86,2.32,2.56,0.98,925.55,33.2
2760687,-0.04,-0.1,0.83,1.71,4.46,1.1,925.62,33.21
2760725,-0.05,-0.09,0.87,2.26,3.48,1.1,925.56,33.2
2760764,-0.05,-0.09,0.9,1.77,3.97,1.22,925.6,33.2
2760802,-0.04,-0.1,0.89,1.53,4.39,1.04,925.56,33.2
2760840,-0.04,-0.09,0.93,1.77,3.66,1.1,925.53,33.2
2760890,-0.04,-0.1,0.93,1.34,3.78,1.22,925.57,33.19
2760928,-0.04,-0.09,0.94,1.65,3.36,1.22,925.61,33.21
2760966,-0.04,-0.09,0.94,1.28,3.48,1.1,925.62,33.2
2761004,-0.05,-0.08,0.93,1.46,3.23,1.1,925.59,33.21
2761042,-0.03,-0.09,0.96,1.53,3.36,1.28,925.61,33.2
2761080,-0.03,-0.09,0.97,1.46,3.23,1.1,925.66,33.22
2761118,-0.04,-0.09,1.0,1.71,3.3,0.98,925.66,33.21
2761156,-0.02,-0.09,1.03,1.28,3.05,1.22,925.65,33.21
2761195,-0.03,-0.09,1.05,1.59,2.87,1.1,925.65,33.22
2761233,-0.03,-0.1,1.02,1.71,3.23,0.98,925.62,33.22
2761282,-0.04,-0.08,0.98,1.83,3.11,0.98,925.66,33.21
2761320,-0.04,-0.09,0.97,2.08,2.44,0.92,925.71,33.22
2761358,-0.04,-0.1,0.84,2.2,2.81,1.04,925.66,33.22
2761397,-0.02,-0.08,0.93,2.08,1.95,0.85,925.68,33.23
2761435,-0.0,-0.1,0.96,2.08,2.62,0.79,925.68,33.23
2761473,-0.02,-0.1,0.95,1.4,0.31,0.92,925.65,33.21
2761511,-0.03,-0.09,1.04,1.46,0.37,0.73,925.71,33.23
2761549,-0.01,-0.11,1.04,1.16,1.1,0.67,925.69,33.22
2761587,-0.04,-0.09,1.04,0.98,0.0,0.79,925.75,33.23
2761625,-0.05,-0.09,1.01,0.98,-0.43,0.73,925.67,33.22
2761675,-0.02,-0.09,1.02,1.34,0.79,0.43,925.75,33.22
2761713,0.0,-0.09,1.0,1.46,0.49,0.31,925.68,33.23
2761751,-0.02,-0.09,1.0,1.53,-0.24,0.37,925.74,33.22
2761789,-0.04,-0.1,0.93,1.65,1.22,0.12,925.72,33.21
2761827,-0.03,-0.09,0.95,1.77,0.85,0.06,925.76,33.22
2761866,-0.02,-0.1,0.95,1.83,1.53,-0.12,925.74,33.22
2761904,-0.04,-0.09,0.91,1.83,1.77,-0.24,925.7,33.22
2761942,-0.04,-0.09,0.92,1.83,2.38,-0.31,925.69,33.22
2761980,-0.03,-0.09,0.92,1.77,3.6,-0.37,925.75,33.22
2762030,-0.03,-0.09,0.94,1.83,4.82,-0.43,925.75,33.21
2762068,-0.03,-0.1,0.97,2.08,5.68,-0.61,925.68,33.22
2762106,-0.0,-0.09,1.01,1.89,7.2,-0.49,925.77,33.23
2762144,-0.04,-0.09,1.04,1.89,7.14,-0.61,925.73,33.23
2762182,-0.04,-0.09,1.04,1.95,8.06,-0.55,925.81,33.22
2762220,-0.03,-0.08,1.06,1.89,8.36,-0.67,925.79,33.23
2762259,-0.04,-0.09,1.03,2.08,8.91,-0.55,925.78,33.24
2762297,-0.04,-0.09,1.02,1.83,8.67,-0.49,925.81,33.23
2762335,-0.05,-0.09,1.01,2.14,8.12,-0.49,925.84,33.23
2762373,-0.04,-0.09,1.0,2.14,8.73,-0.43,925.8,33.23
2762423,-0.05,-0.09,1.0,2.38,8.18,-0.31,925.77,33.22
2762461,-0.03,-0.09,1.03,2.32,7.75,-0.31,925.82,33.24
2762499,-0.05,-0.09,1.03,2.14,7.87,-0.31,925.82,33.23
2762537,-0.04,-0.08,1.02,2.08,7.81,-0.37,925.77,33.21
2762575,-0.03,-0.09,1.04,2.01,8.18,-0.24,925.79,33.22
2762613,-0.05,-0.09,1.02,1.95,8.12,-0.24,925.81,33.22
2762651,-0.04,-0.09,1.01,1.65,7.81,-0.12,925.84,33.23
2762689,-0.06,-0.09,1.0,1.83,7.87,-0.12,925.8,33.23
2762728,-0.04,-0.08,1.0,1.95,7.14,-0.06,925.8,33.23
2762777,-0.04,-0.08,0.99,1.83,6.96,0.0,925.82,33.21
2762815,-0.04,-0.09,1.0,1.83,5.98,0.12,925.81,33.22
2762854,-0.04,-0.09,1.02,1.83,5.55,0.0,925.87,33.23
2762892,-0.04,-0.09,0.99,2.01,5.49,0.24,925.75,33.21
2762930,-0.03,-0.09,0.99,2.38,3.85,-0.06,925.76,33.22
2762968,-0.03,-0.08,0.96,1.95,3.66,0.06,925.78,33.22
2763006,-0.04,-0.09,0.96,2.2,3.23,-0.06,925.8,33.22
2763044,-0.03,-0.09,0.95,2.38,2.87,-0.12,925.73,33.2
2763082,-0.03,-0.09,0.97,2.14,2.44,-0.12,925.8,33.22
2763120,-0.04,-0.08,0.98,2.32,2.56,0.0,925.77,33.24
2763196,-0.05,-0.09,1.01,2.44,2.38,-0.24,925.79,33.18
2763234,-0.03,-0.09,1.0,2.44,2.87,-0.31,925.79,33.2
2763272,-0.04,-0.08,1.0,2.69,2.56,-0.43,925.79,33.19
2763362,-0.04,-0.08,1.01,2.56,3.11,-0.49,925.77,33.16
2763400,-0.05,-0.09,1.03,2.44,2.93,-0.43,925.83,33.18
2763438,-0.05,-0.09,1.02,2.32,3.17,-0.43,925.84,33.19
2763476,-0.05,-0.08,1.02,2.56,3.11,-0.67,925.85,33.17
2763514,-0.03,-0.08,1.03,2.5,3.05,-0.61,925.84,33.2
2763552,-0.05,-0.09,1.01,2.62,2.56,-0.49,925.87,33.19
2763602,-0.04,-0.08,1.01,2.62,2.5,-0.49,925.86,33.19
2763640,-0.04,-0.09,1.03,2.75,2.38,-0.61,925.87,33.18
2763678,-0.04,-0.08,1.02,2.56,2.08,-0.79,925.83,33.19
2763716,-0.03,-0.08,1.03,2.75,1.65,-0.73,925.81,33.19
2763754,-0.04,-0.09,1.02,2.69,1.4,-0.85,925.82,33.2
2763792,-0.04,-0.09,1.02,2.69,0.85,-0.79,925.9,33.2
2763831,-0.04,-0.09,1.0,2.56,0.67,-0.92,925.83,33.21
2763869,-0.04,-0.08,1.0,2.56,0.06,-1.1,925.82,33.21
2763907,-0.04,-0.09,0.97,2.5,0.49,-1.1,925.85,33.2
2763945,-0.04,-0.09,0.97,2.44,-0.24,-1.04,925.77,33.2
2763995,-0.04,-0.09,0.93,2.32,0.06,-1.22,925.84,33.19
2764033,-0.04,-0.08,0.94,2.32,-0.18,-1.34,925.8,33.2
2764071,-0.05,-0.09,0.94,2.14,0.12,-1.22,925.8,33.2
2764109,-0.05,-0.09,0.9,2.08,0.55,-1.4,925.81,33.19
2764147,-0.06,-0.08,0.93,2.01,0.49,-1.28,925.87,33.21
2764185,-0.05,-0.08,0.93,1.89,0.49,-1.4,925.95,33.2
2764223,-0.04,-0.08,1.03,1.95,-0.73,-1.22,925.88,33.2
2764261,-0.07,-0.09,1.01,1.77,0.12,-1.1,925.88,33.2
2764299,-0.05,-0.08,1.03,1.46,0.49,-0.98,925.89,33.2
2764349,-0.05,-0.09,1.06,1.65,0.79,-1.16,925.98,33.2
2764387,-0.06,-0.08,1.08,1.77,0.0,-1.1,925.91,33.2
2764425,-0.06,-0.08,1.08,1.89,0.73,-0.98,925.9,33.21
2764463,-0.06,-0.07,1.1,2.32,0.06,-0.92,925.88,33.21
2764502,-0.08,-0.08,1.12,2.5,-0.37,-0.79,925.82,33.19
2764540,-0.07,-0.09,1.06,2.26,0.0,-0.67,925.86,33.2
2764578,-0.1,-0.07,1.11,2.38,-0.67,-0.61,925.83,33.21
2764616,-0.06,-0.08,1.09,2.14,-0.18,-0.55,925.89,33.22
2764654,-0.06,-0.08,1.09,2.38,-0.79,-0.37,925.9,33.22
2764692,-0.1,-0.07,1.08,1.95,-0.24,-0.24,925.86,33.21
2764742,-0.08,-0.06,1.12,1.89,0.12,0.0,925.9,33.2
2764780,-0.07,-0.07,1.1,1.95,0.73,0.12,925.87,33.21
2764818,-0.08,-0.07,1.1,2.08,0.37,0.18,925.92,33.21
2764856,-0.08,-0.08,1.06,2.26,2.38,0.43,925.88,33.21
2764894,-0.07,-0.07,1.09,2.5,2.5,0.43,925.92,33.22
2764932,-0.07,-0.07,1.14,2.81,2.2,0.79,925.92,33.21
2764970,-0.08,-0.08,1.09,2.2,3.48,1.04,925.93,33.21
2765008,-0.07,-0.08,1.14,2.62,2.93,1.16,925.98,33.22
2765047,-0.09,-0.08,1.13,2.26,4.33,1.4,925.95,33.21
2765096,-0.08,-0.07,1.11,2.38,3.48,1.95,925.94,33.2
2765134,-0.07,-0.07,1.07,2.32,4.94,2.01,925.9,33.2
2765173,-0.07,-0.08,1.02,2.26,4.94,2.26,926.0,33.21
2765211,-0.06,-0.07,1.05,2.56,3.48,2.5,925.95,33.22
2765249,-0.09,-0.09,0.97,2.44,4.46,2.75,925.99,33.22
2765287,-0.07,-0.08,0.95,2.2,4.52,2.69,925.93,33.2
2765325,-0.06,-0.07,0.98,2.32,3.97,3.17,925.92,33.22
2765363,-0.06,-0.09,0.9,1.77,4.52,3.36,925.92,33.21
2765401,-0.07,-0.07,0.9,1.95,3.72,3.42,925.98,33.22
2765439,-0.06,-0.08,0.9,1.89,4.82,3.6,925.98,33.21
2765489,-0.05,-0.08,0.84,1.59,4.15,3.85,925.92,33.2
2765527,-0.06,-0.08,0.87,1.77,4.33,3.91,925.95,33.19
2765565,-0.06,-0.09,0.86,1.71,4.52,4.03,925.99,33.21
2765603,-0.05,-0.08,0.88,1.59,4.15,4.15,925.98,33.2
2765641,-0.05,-0.09,0.9,1.71,4.21,4.27,926.07,33.22
2765680,-0.05,-0.09,0.83,1.53,4.46,4.21,925.97,33.21
2765718,-0.07,-0.08,0.88,2.01,3.42,4.46,926.0,33.21
2765756,-0.04,-0.09,0.91,1.59,4.15,4.58,926.01,33.22
2765794,-0.04,-0.08,0.92,1.53,3.36,4.58,925.99,33.23
2765832,-0.05,-0.08,0.92,1.59,2.81,4.7,925.93,33.22
2765882,-0.06,-0.09,1.0,2.14,3.05,5.0,926.01,33.22
2765920,-0.03,-0.08,0.95,1.46,4.03,4.76,925.98,33.21
2765958,-0.07,-0.08,0.98,2.32,2.56,4.88,925.98,33.21
2765996,-0.06,-0.09,0.91,1.46,4.82,5.13,925.97,33.22
2766034,-0.05,-0.08,0.92,1.83,3.72,5.25,926.06,33.23
2766072,-0.06,-0.08,0.93,1.71,3.23,5.62,926.02,33.22
2766110,-0.07,-0.1,0.89,1.34,3.72,5.62,925.99,33.22
2766148,-0.05,-0.08,0.95,1.53,2.87,5.55,925.97,33.21
2766187,-0.03,-0.08,0.95,1.16,3.17,5.8,926.04,33.22
2766262,-0.03,-0.09,0.96,0.85,3.05,5.86,926.02,33.19
2766300,-0.03,-0.09,0.97,0.92,3.6,5.8,926.06,33.21
2766339,-0.04,-0.09,0.99,0.67,2.69,5.98,926.07,33.2
2766428,-0.02,-0.08,1.01,0.31,2.38,5.86,926.08,33.16
2766466,-0.0,-0.09,1.02,0.06,2.99,5.8,926.05,33.18
2766504,-0.03,-0.09,0.98,0.18,2.62,5.62,926.08,33.18
2766542,-0.02,-0.09,1.02,0.79,2.38,5.37,926.04,33.2
2766580,-0.0,-0.1,0.96,0.12,4.21,5.31,926.14,33.2
2766619,-0.01,-0.08,0.98,0.67,2.99,5.25,926.1,33.21
2766657,-0.02,-0.1,0.95,0.79,4.58,5.07,926.08,33.19
2766706,-0.01,-0.09,0.98,1.1,4.15,5.0,926.13,33.19
2766745,0.0,-0.1,1.02,1.04,3.97,4.82,926.1,33.2
2766783,-0.01,-0.09,1.03,0.85,3.54,4.88,926.04,33.2
2766821,-0.01,-0.09,1.06,1.04,3.54,4.7,926.09,33.19
2766859,0.01,-0.09,1.09,0.85,3.78,4.58,926.06,33.2
2766897,-0.0,-0.08,1.11,1.22,3.48,4.33,926.09,33.2
2766935,-0.01,-0.09,1.1,1.1,4.21,4.15,926.06,33.21
2766973,-0.01,-0.09,1.09,1.16,4.21,4.03,926.08,33.21
2767011,-0.0,-0.09,1.09,1.46,4.21,3.91,926.06,33.2
2767049,-0.0,-0.09,1.1,1.4,4.03,3.85,926.09,33.22
2767099,-0.01,-0.09,1.12,1.59,4.46,3.72,926.14,33.2
2767137,0.0,-0.09,1.12,1.46,4.52,3.48,926.14,33.22
2767175,-0.0,-0.09,1.09,1.46,4.21,3.54,926.03,33.21
2767213,-0.01,-0.08,1.06,1.59,4.27,3.42,926.18,33.21
2767251,-0.01,-0.09,1.06,1.71,3.97,3.17,926.11,33.21
2767289,-0.01,-0.1,0.99,1.71,4.76,3.17,926.12,33.21
2767327,-0.0,-0.08,1.01,1.89,3.66,2.99,926.11,33.23
2767365,-0.01,-0.09,0.99,1.46,3.91,2.81,926.09,33.23
2767403,-0.02,-0.09,1.02,1.71,3.72,2.62,926.1,33.22
2767453,0.01,-0.09,1.01,1.46,4.21,2.56,926.02,33.2
2767491,0.01,-0.09,0.99,1.65,3.54,2.44,926.07,33.21
2767529,-0.01,-0.09,1.0,1.77,4.15,2.32,926.07,33.22
2767567,0.01,-0.1,0.96,1.4,4.94,2.32,926.04,33.22
2767605,0.0,-0.08,0.95,1.71,3.54,1.95,926.06,33.22
2767643,0.0,-0.09,0.98,1.77,2.99,1.83,926.01,33.22
2767681,0.03,-0.1,0.96,0.79,3.72,1.53,926.01,33.2
2767720,0.02,-0.08,0.98,1.53,3.36,1.28,926.03,33.21
2767758,0.02,-0.09,0.97,1.59,3.85,1.22,926.02,33.22
2767796,-0.0,-0.1,0.94,1.65,3.91,0.79,926.06,33.2
2767845,0.0,-0.1,0.94,1.46,3.72,0.67,926.06,33.19
2767884,0.01,-0.09,0.94,1.46,4.52,0.31,926.05,33.21
2767922,0.01,-0.09,0.93,1.22,3.48,0.31,926.05,33.21
2767960,0.0,-0.08,1.0,1.4,3.85,0.18,926.08,33.21
2767998,0.01,-0.1,0.97,1.16,3.97,0.12,926.02,33.19
2768036,-0.0,-0.09,1.03,1.34,2.99,-0.12,926.05,33.22
2768074,-0.01,-0.09,1.0,1.04,3.72,-0.18,926.09,33.22
2768112,-0.0,-0.08,1.01,1.22,3.17,-0.37,926.08,33.21
2768150,0.01,-0.09,1.01,1.46,3.72,-0.49,926.04,33.22
2768188,0.0,-0.09,0.99,1.4,3.85,-0.55,926.11,33.21
2768238,0.01,-0.08,0.98,1.4,4.64,-0.61,926.09,33.19
2768276,-0.01,-0.09,0.98,1.59,4.33,-0.73,926.13,33.2
2768314,-0.02,-0.09,0.96,1.65,4.94,-0.79,926.1,33.22
2768352,-0.01,-0.09,0.98,1.65,4.21,-0.92,926.17,33.21
2768390,-0.0,-0.09,0.98,1.34,5.13,-1.1,926.11,33.22
2768428,-0.0,-0.09,0.98,1.46,4.64,-1.04,926.09,33.2
2768466,-0.02,-0.09,0.98,1.65,4.7,-1.04,926.16,33.22
2768504,-0.02,-0.09,0.99,1.34,4.64,-1.04,926.07,33.2
2768543,-0.02,-0.09,1.0,1.65,4.27,-1.04,926.08,33.22
