timestamp,acc_x,acc_y,acc_z,rot_x,rot_y,rot_z,qfe,temp
5941501,-0.12,0.01,0.98,1.95,3.23,1.34,982.88,31.05
5941539,-0.14,0.02,0.98,1.89,3.6,1.4,982.88,31.04
5941577,-0.13,0.02,0.98,1.89,3.6,1.28,982.96,31.05
5941615,-0.12,0.01,0.99,2.08,3.36,1.34,982.95,31.05
5941653,-0.12,0.02,0.98,2.01,3.42,1.34,982.89,31.05
5941703,-0.13,0.02,0.99,2.01,3.23,1.4,982.89,31.05
5941741,-0.13,0.02,0.98,1.83,3.42,1.22,982.96,31.06
5941779,-0.12,0.02,0.99,2.01,3.72,1.22,982.89,31.05
5941818,-0.12,0.02,0.99,1.89,3.54,1.34,982.87,31.06
5941856,-0.12,0.02,0.99,1.83,3.3,1.4,982.92,31.06
5941894,-0.12,0.02,0.99,1.77,3.48,1.22,982.9,31.05
5941932,-0.12,0.01,0.98,1.89,3.48,1.22,982.9,31.06
5941970,-0.14,0.02,0.98,2.08,3.36,1.28,982.94,31.05
5942008,-0.14,0.02,0.99,1.89,3.36,1.34,982.91,31.06
5942058,-0.12,0.01,0.99,2.2,3.23,1.16,982.97,31.05
5942096,-0.12,0.01,0.98,1.89,3.23,1.28,982.93,31.05
5942134,-0.12,0.02,0.98,1.89,3.54,1.22,982.92,31.05
5942172,-0.13,0.02,0.98,1.83,3.36,1.22,982.96,31.06
5942210,-0.13,0.02,0.98,1.83,3.36,1.22,982.92,31.05
5942248,-0.12,0.02,0.97,1.83,3.42,1.28,982.95,31.06
5942286,-0.13,0.02,0.99,1.83,3.36,1.28,982.89,31.06
5942324,-0.14,0.02,0.98,1.83,3.36,1.22,982.94,31.06
5942363,-0.14,0.02,0.99,1.95,3.6,1.28,982.94,31.06
5942401,-0.12,0.01,0.98,1.83,3.42,1.28,982.88,31.06
5942476,-0.12,0.02,0.98,1.95,3.66,1.4,982.95,31.03
5942515,-0.12,0.02,0.98,1.95,3.48,1.46,982.96,31.04
5942553,-0.13,0.02,0.98,1.89,3.23,1.28,982.9,31.04
5942642,-0.13,0.02,0.99,1.83,3.3,1.16,982.92,31.02
5942680,-0.13,0.01,0.99,2.01,3.23,1.16,982.93,31.03
5942718,-0.12,0.02,0.98,1.89,3.3,1.34,982.94,31.04
5942757,-0.12,0.02,0.98,1.95,3.3,1.28,982.92,31.04
5942795,-0.13,0.02,0.98,1.83,3.17,1.34,982.92,31.03
5942833,-0.13,0.03,0.99,1.89,3.17,1.34,982.9,31.04
5942871,-0.14,0.02,0.99,1.77,3.48,1.28,982.93,31.04
5942921,-0.14,0.02,0.99,1.95,3.42,1.22,982.92,31.03
5942959,-0.13,0.01,0.98,2.01,3.48,1.34,982.9,31.05
5942997,-0.13,0.01,0.98,1.95,3.48,1.34,982.89,31.04
5943035,-0.13,0.01,0.98,1.89,3.3,1.28,982.94,31.05
5943073,-0.12,0.01,0.98,1.83,3.72,1.34,982.91,31.06
5943111,-0.11,0.02,0.99,1.83,3.54,1.34,982.96,31.05
5943150,-0.12,0.02,0.99,1.65,3.42,1.28,982.96,31.06
5943188,-0.13,0.02,0.98,1.95,3.48,1.34,982.95,31.06
5943226,-0.13,0.02,0.99,2.01,3.3,1.28,982.92,31.06
5943264,-0.13,0.01,0.99,1.95,3.48,1.04,982.93,31.05
5943314,-0.12,0.02,0.98,2.01,3.48,1.28,982.91,31.05
5943352,-0.13,0.02,0.98,1.83,3.54,1.16,982.94,31.06
5943390,-0.12,0.02,0.99,1.95,3.42,1.28,982.92,31.06
5943428,-0.12,0.02,0.99,1.89,3.3,1.22,982.94,31.07
5943466,-0.12,0.02,0.98,1.89,3.23,1.22,982.9,31.06
5943504,-0.13,0.02,0.98,1.71,3.23,1.4,982.95,31.06
5943542,-0.13,0.02,0.99,1.77,3.23,1.34,982.9,31.04
5943580,-0.13,0.02,0.99,2.08,3.23,1.4,982.92,31.06
5943619,-0.13,0.01,0.99,2.01,3.6,1.22,982.94,31.07
5943657,-0.13,0.01,0.98,1.89,3.6,1.34,982.9,31.06
5943707,-0.12,0.02,0.99,1.95,3.36,1.4,982.95,31.05
5943745,-0.13,0.02,0.98,1.71,3.91,1.46,982.9,31.06
5943783,-0.13,0.02,0.98,1.89,3.78,1.22,982.97,31.06
5943821,-0.13,0.02,0.97,1.71,3.72,1.34,982.92,31.06
5943859,-0.12,0.02,0.99,1.83,3.36,1.16,982.92,31.05
5943897,-0.11,0.01,0.99,1.77,3.48,1.22,982.95,31.06
5943935,-0.12,0.02,0.99,1.83,3.6,1.34,982.91,31.06
5943973,-0.13,0.03,0.99,2.01,3.66,1.4,982.97,31.07
5944012,-0.13,0.02,0.98,2.2,3.6,1.28,982.93,31.06
5944050,-0.12,0.02,0.98,1.89,3.17,1.28,982.88,31.06
5944100,-0.12,0.01,0.98,1.89,3.42,1.16,982.92,31.06
5944138,-0.12,0.02,0.99,1.89,3.17,1.28,982.92,31.06
5944176,-0.13,0.01,0.97,1.89,3.23,1.28,982.94,31.06
5944214,-0.12,0.02,0.98,1.77,3.23,1.28,982.93,31.06
5944252,-0.13,0.02,0.99,1.83,3.11,1.34,982.88,31.06
5944290,-0.13,0.02,1.0,1.83,3.11,1.22,982.93,31.06
5944328,-0.13,0.02,0.98,1.83,3.48,1.28,982.9,31.06
5944366,-0.13,0.02,0.98,1.89,3.6,1.28,982.91,31.06
5944405,-0.14,0.01,0.98,2.14,3.42,1.16,982.94,31.06
5944443,-0.13,0.02,0.98,2.08,3.48,1.34,982.93,31.07
5944492,-0.12,0.01,0.99,2.08,3.42,1.22,982.93,31.05
5944531,-0.12,0.01,0.97,1.89,3.54,1.34,982.96,31.07
5944569,-0.13,0.01,0.98,1.95,3.36,1.34,982.91,31.06
5944607,-0.14,0.01,0.98,1.95,3.6,1.34,982.87,31.05
5944645,-0.13,0.02,0.99,2.08,3.36,1.4,982.92,31.06
5944683,-0.12,0.01,0.99,1.95,3.42,1.28,982.92,31.06
5944721,-0.12,0.02,0.98,1.59,3.42,1.16,982.94,31.06
5944759,-0.12,0.02,0.98,1.71,3.54,1.22,982.89,31.07
5944797,-0.12,0.02,0.99,1.83,3.36,1.22,982.87,31.06
5944847,-0.12,0.01,0.99,1.83,3.42,1.22,982.91,31.06
5944885,-0.13,0.02,0.98,1.89,3.36,1.28,982.93,31.06
5944923,-0.13,0.02,0.98,1.95,3.36,1.22,982.93,31.07
5944961,-0.13,0.02,0.99,1.95,3.36,1.28,982.88,31.06
5944999,-0.13,0.02,0.98,1.95,3.42,1.16,982.87,31.07
5945038,-0.13,0.02,0.98,1.65,3.42,1.22,982.88,31.07
5945076,-0.12,0.02,0.98,1.83,3.17,1.1,982.89,31.07
5945114,-0.12,0.02,0.99,1.71,3.17,1.16,982.95,31.08
5945152,-0.12,0.02,0.99,1.89,3.36,1.16,982.95,31.07
5945190,-0.13,0.01,0.99,1.77,3.42,1.22,982.86,31.07
5945240,-0.14,0.02,0.99,1.95,3.54,1.28,982.91,31.05
5945278,-0.13,0.01,0.98,1.89,3.66,1.1,982.94,31.08
5945316,-0.12,0.01,0.98,1.83,3.42,1.16,982.89,31.08
5945354,-0.12,0.01,0.98,1.89,3.48,1.22,982.94,31.06
5945392,-0.12,0.02,0.98,1.83,3.48,1.22,982.92,31.07
5945430,-0.13,0.02,0.99,1.89,3.48,1.4,982.95,31.07
5945468,-0.13,0.02,0.99,1.89,3.3,1.34,982.92,31.07
5945506,-0.12,0.03,0.98,1.83,3.66,1.22,982.91,31.08
5945545,-0.13,0.02,0.99,2.08,3.23,1.34,982.94,31.07
5945583,-0.13,0.02,0.99,2.2,3.23,1.28,982.93,31.08
5945658,-0.13,0.01,1.0,2.01,3.48,1.28,982.91,31.04
5945697,-0.13,0.02,0.98,1.83,3.48,1.28,982.94,31.06
5945735,-0.11,0.02,0.98,1.83,3.23,1.46,982.91,31.05
5945824,-0.13,0.02,0.98,1.83,3.23,1.28,982.93,31.02
5945862,-0.16,0.02,0.98,1.95,3.05,1.28,982.91,31.04
5945900,-0.14,0.03,0.99,1.83,3.36,1.28,982.91,31.04
5945938,-0.12,0.01,0.99,2.08,3.3,1.1,982.91,31.05
5945977,-0.12,0.01,0.99,1.89,3.3,1.22,982.92,31.04
5946015,-0.12,0.0,0.99,2.2,3.23,1.34,982.96,31.05
5946053,-0.12,0.01,0.97,2.01,3.6,1.4,982.94,31.05
5946103,-0.15,0.01,0.98,1.95,3.6,1.28,982.94,31.04
5946141,-0.13,0.02,0.97,1.83,3.72,1.28,982.91,31.06
5946179,-0.13,0.02,0.98,1.65,3.72,1.28,982.97,31.05
5946217,-0.13,0.01,0.99,1.95,3.42,1.16,982.95,31.06
5946255,-0.12,0.01,1.01,1.83,3.48,1.34,982.93,31.06
5946293,-0.12,0.02,1.0,1.89,3.48,1.16,982.93,31.06
5946331,-0.11,0.03,0.98,2.01,3.48,1.28,982.94,31.06
5946369,-0.11,0.03,0.99,1.89,3.17,1.16,983.0,31.07
5946408,-0.13,0.01,0.98,1.89,3.3,1.22,982.95,31.06
5946446,-0.15,0.02,0.97,1.83,3.17,1.28,982.87,31.05
5946495,-0.13,0.01,0.99,1.89,2.99,1.22,982.96,31.06
5946534,-0.13,0.01,1.0,1.83,2.75,1.28,982.91,31.05
5946572,-0.12,0.02,0.99,1.71,3.11,1.28,982.96,31.06
5946610,-0.12,0.01,0.98,2.08,3.42,1.34,982.93,31.06
5946648,-0.13,0.01,0.98,1.89,3.17,1.34,982.89,31.06
5946686,-0.14,0.02,0.99,2.14,2.81,1.22,982.93,31.07
5946724,-0.14,0.02,0.96,1.83,3.23,1.16,982.93,31.08
5946762,-0.14,0.01,0.98,2.14,3.54,1.22,983.0,31.07
5946800,-0.12,0.03,1.0,1.89,3.72,1.22,982.89,31.07
5946838,-0.13,0.05,0.98,1.89,3.78,1.22,982.93,31.07
5946888,-0.13,0.05,0.97,1.77,3.66,1.4,982.98,31.06
5946926,-0.12,0.03,0.99,1.89,3.6,1.34,983.0,31.06
5946964,-0.13,0.03,1.0,1.89,3.42,1.22,982.96,31.08
5947003,-0.13,0.01,1.0,1.89,3.66,1.59,982.95,31.08
5947041,-0.11,-0.0,0.98,2.01,3.42,1.4,982.91,31.08
5947079,-0.13,-0.02,0.99,1.89,3.48,1.4,982.95,31.08
5947117,-0.13,-0.01,0.99,1.83,3.3,1.46,982.89,31.08
5947155,-0.12,-0.0,0.98,1.83,3.23,1.46,982.87,31.07
5947193,-0.11,0.0,0.98,1.71,3.23,1.34,982.93,31.07
5947243,-0.11,0.0,0.98,1.71,3.11,1.28,982.96,31.07
5947281,-0.11,0.03,0.99,1.65,3.23,1.28,982.92,31.07
5947319,-0.14,0.03,0.99,1.71,3.11,1.1,982.95,31.08
5947357,-0.14,0.02,0.99,1.65,3.3,1.22,982.96,31.07
5947395,-0.14,0.02,1.0,1.89,3.36,1.04,982.87,31.08
5947433,-0.12,0.01,0.98,1.89,3.23,0.98,982.91,31.07
5947471,-0.12,0.01,0.99,1.89,3.05,1.16,982.92,31.08
5947510,-0.13,0.01,0.98,1.89,3.42,1.04,982.95,31.08
5947548,-0.14,0.01,0.99,1.77,3.17,1.28,982.9,31.07
5947586,-0.13,0.02,0.99,1.65,3.48,1.28,982.96,31.08
5947636,-0.13,0.03,0.98,1.65,3.54,1.28,982.92,31.07
5947674,-0.12,0.05,0.97,1.77,3.66,1.22,982.94,31.06
5947712,-0.13,0.04,0.97,1.95,3.48,1.04,982.94,31.07
5947750,-0.12,0.03,1.02,2.08,3.3,1.16,982.95,31.08
5947788,-0.13,0.02,1.0,2.08,3.91,1.1,982.92,31.08
5947826,-0.13,0.02,0.98,2.01,3.54,1.4,982.94,31.06
5947864,-0.12,0.02,0.97,2.01,3.42,1.28,982.92,31.07
5947902,-0.12,0.01,0.99,1.89,3.36,1.16,982.93,31.07
5947940,-0.13,0.0,0.98,1.89,3.42,1.34,982.95,31.07
5947978,-0.12,0.0,0.98,1.71,3.3,1.4,982.95,31.08
5948028,-0.12,0.0,0.97,1.77,3.23,1.22,982.95,31.08
5948066,-0.12,0.02,1.0,1.89,3.36,1.28,982.98,31.06
5948104,-0.11,0.02,1.0,1.71,3.23,1.22,982.93,31.08
5948142,-0.13,0.02,0.98,1.65,3.3,1.1,982.97,31.08
5948180,-0.14,0.02,0.98,1.83,3.36,0.98,982.96,31.07
5948218,-0.13,0.02,0.98,1.83,3.23,1.04,982.89,31.07
5948256,-0.13,0.02,1.0,1.83,3.17,1.16,982.93,31.07
5948294,-0.12,0.02,0.99,1.83,3.36,1.1,982.92,31.08
5948332,-0.13,0.02,0.98,2.01,3.3,1.34,982.95,31.07
5948370,-0.14,0.02,0.98,2.14,3.48,1.22,982.9,31.07
5948420,-0.13,0.02,0.99,1.83,3.54,1.4,982.91,31.06
5948458,-0.13,0.02,0.99,1.83,3.36,1.34,982.9,31.06
5948496,-0.12,0.02,0.98,2.08,3.36,1.46,982.91,31.06
5948534,-0.14,0.03,0.98,1.71,3.54,1.28,982.92,31.06
5948573,-0.12,0.01,0.98,1.83,3.48,1.34,982.93,31.07
5948611,-0.13,0.01,0.99,1.83,3.23,1.28,982.91,31.07
5948649,-0.13,-0.01,0.98,1.59,3.78,1.16,982.89,31.07
5948687,-0.12,-0.01,0.97,1.71,3.54,1.34,982.95,31.07
5948725,-0.12,-0.0,0.98,1.83,3.42,1.4,982.94,31.07
5948763,-0.13,0.01,0.99,1.89,3.36,1.16,982.93,31.08
5948839,-0.13,0.04,1.0,1.77,3.3,1.22,982.91,31.03
5948877,-0.12,0.03,0.98,1.83,3.42,1.04,982.97,31.06
5948915,-0.12,0.03,0.98,1.89,3.3,1.1,982.93,31.06
5949004,-0.13,0.02,1.0,2.08,3.23,1.28,982.92,31.03
5949043,-0.14,0.02,1.0,2.14,3.3,1.34,982.98,31.05
5949081,-0.13,0.01,0.99,1.95,3.11,1.46,982.93,31.05
5949119,-0.14,0.01,0.99,2.2,3.48,1.34,982.96,31.06
5949157,-0.13,0.02,0.98,2.2,3.54,1.4,982.94,31.06
5949195,-0.12,0.02,0.98,2.14,3.36,1.22,982.94,31.05
5949233,-0.12,0.03,0.97,2.08,3.42,1.22,982.9,31.05
5949283,-0.12,0.02,1.0,1.95,3.36,1.28,982.87,31.06
5949321,-0.13,0.02,1.0,1.71,3.48,1.22,982.97,31.06
5949359,-0.13,0.02,0.98,1.77,3.54,1.28,982.92,31.05
5949397,-0.13,0.01,0.98,1.59,3.6,1.28,982.92,31.06
5949435,-0.13,0.01,0.97,1.65,3.78,1.34,982.96,31.06
5949474,-0.13,0.0,0.98,1.77,3.48,1.34,982.91,31.07
5949512,-0.14,0.0,0.99,1.65,3.3,1.34,982.98,31.07
5949550,-0.13,0.01,0.99,1.71,3.6,1.34,982.93,31.07
5949588,-0.12,0.01,0.99,1.53,3.6,1.4,982.93,31.08
5949638,-0.12,0.02,0.98,1.59,3.85,1.28,982.93,31.06
5949676,-0.12,0.03,0.98,1.34,3.66,1.04,982.93,31.07
5949714,-0.13,0.03,0.98,1.4,3.6,1.22,982.91,31.06
5949752,-0.12,0.03,0.98,1.53,3.48,0.98,982.94,31.07
5949790,-0.12,0.03,0.99,1.53,3.36,0.98,982.99,31.06
5949828,-0.13,0.03,1.0,1.59,3.17,0.98,982.97,31.07
5949866,-0.13,0.03,0.99,1.83,3.54,1.16,982.88,31.06
5949905,-0.13,0.02,0.99,2.01,3.48,1.04,982.96,31.09
5949943,-0.14,0.02,0.99,2.08,3.42,1.1,982.92,31.07
5949981,-0.13,0.02,0.98,2.26,3.23,1.28,982.94,31.08
5950031,-0.13,0.02,0.98,2.32,3.23,1.22,982.92,31.06
5950069,-0.12,0.02,0.98,2.14,3.17,1.1,982.95,31.08
5950107,-0.12,0.02,0.98,2.01,3.36,1.22,982.9,31.07
5950145,-0.13,0.02,0.98,1.77,3.42,1.22,982.93,31.08
5950183,-0.1,0.02,0.98,1.83,3.23,1.34,982.97,31.07
5950221,-0.13,0.01,0.98,1.65,3.23,1.46,982.95,31.09
5950259,-0.12,0.01,0.99,1.77,3.23,1.34,982.94,31.09
5950297,-0.11,0.02,1.01,1.46,3.3,1.22,982.97,31.08
5950336,-0.14,0.01,0.98,1.71,3.6,1.16,982.96,31.08
5950374,-0.14,0.02,0.97,1.59,3.3,1.22,982.96,31.07
5950423,-0.12,0.03,0.98,1.83,3.6,1.16,982.89,31.07
5950462,-0.12,0.02,1.0,1.83,3.3,1.22,982.98,31.08
5950500,-0.13,0.02,0.99,1.95,3.3,1.16,982.95,31.08
5950538,-0.12,0.02,0.98,1.95,3.36,1.16,982.93,31.08
5950576,-0.13,0.02,0.99,1.95,3.3,1.28,982.92,31.08
5950614,-0.13,0.02,0.98,1.71,3.72,1.22,982.97,31.08
5950652,-0.13,0.02,0.98,1.77,3.36,1.16,982.89,31.07
5950690,-0.14,0.02,0.98,1.71,3.48,1.4,982.93,31.07
5950728,-0.13,0.01,0.98,1.53,3.54,1.22,982.93,31.08
5950766,-0.12,0.01,0.99,1.46,3.42,1.28,982.95,31.08
5950816,-0.13,0.02,0.99,1.34,3.48,1.28,982.96,31.08
5950854,-0.11,0.02,0.99,1.22,3.6,1.16,982.97,31.08
5950892,-0.12,0.02,0.99,1.34,3.72,1.16,982.94,31.08
5950930,-0.14,0.02,0.97,1.28,3.66,1.22,982.9,31.06
5950969,-0.13,0.02,0.98,1.22,3.6,1.04,982.96,31.08
5951007,-0.12,0.02,0.99,1.16,3.36,1.1,982.95,31.08
5951045,-0.13,0.02,0.99,1.1,3.48,0.98,982.98,31.08
5951083,-0.12,0.02,0.98,1.04,3.66,1.1,982.96,31.09
5951121,-0.14,0.03,0.99,1.04,3.48,1.04,982.89,31.08
5951159,-0.13,0.02,0.98,1.28,3.23,0.98,982.88,31.09
5951209,-0.11,0.04,1.0,1.1,3.23,1.1,982.91,31.08
5951247,-0.11,0.04,0.99,1.28,3.54,1.16,982.9,31.08
5951285,-0.11,0.04,0.97,1.1,3.54,1.16,982.93,31.08
5951323,-0.13,0.04,0.99,1.46,3.54,0.98,982.97,31.09
5951361,-0.12,0.03,0.99,1.4,3.6,1.04,982.89,31.08
5951399,-0.13,0.02,0.99,1.46,3.66,1.16,982.94,31.09
5951438,-0.14,0.02,0.98,1.16,3.54,1.04,982.89,31.09
5951476,-0.14,0.02,0.97,0.92,3.42,1.04,982.92,31.08
5951514,-0.13,0.01,0.96,0.79,3.42,1.16,982.94,31.09
5951552,-0.13,0.03,0.99,0.31,3.36,1.16,982.88,31.08
5951602,-0.13,0.02,0.99,0.12,3.17,1.22,982.95,31.08
5951640,-0.11,0.02,0.98,-0.06,3.42,1.16,982.91,31.08
5951678,-0.12,0.03,0.98,-0.43,3.97,0.98,982.94,31.08
5951716,-0.12,0.03,0.97,-0.37,3.72,1.1,982.92,31.08
5951754,-0.13,0.03,0.98,-0.61,3.85,1.04,982.96,31.1
5951793,-0.13,0.03,0.97,-0.98,3.42,0.98,982.94,31.07
5951831,-0.12,0.04,0.98,-1.16,3.42,1.1,982.98,31.1
5951869,-0.12,0.04,0.97,-1.34,3.54,0.85,982.92,31.08
5951907,-0.13,0.04,0.97,-1.77,3.85,0.98,982.89,31.08
5951983,-0.11,0.05,0.98,-2.32,4.27,0.79,982.9,31.06
5952021,-0.12,0.06,0.98,-2.56,4.09,0.73,982.98,31.07
5952059,-0.13,0.06,0.98,-2.93,3.78,0.73,983.01,31.09
5952148,-0.11,0.08,1.12,-3.42,2.99,0.73,983.0,31.05
5952186,-0.14,0.12,1.24,-0.12,4.21,0.79,982.98,31.06
5952225,-0.13,0.05,0.87,4.76,5.13,0.85,982.91,31.06
5952263,-0.09,0.03,0.7,4.21,4.03,0.61,982.91,31.06
5952301,-0.12,0.18,1.0,3.72,2.81,0.55,982.93,31.08
5952339,-0.16,0.11,1.08,3.78,2.99,0.92,982.97,31.08
5952377,-0.09,0.02,1.04,2.26,2.75,0.92,982.98,31.08
5952427,-0.13,0.15,1.02,1.83,3.42,0.73,982.98,31.06
5952465,-0.12,0.1,0.84,1.46,4.03,1.1,982.96,31.07
5952503,-0.12,0.08,1.0,0.92,3.42,1.04,982.88,31.07
5952541,-0.1,0.07,0.97,0.37,5.07,0.98,982.98,31.08
5952579,-0.11,0.07,1.03,0.24,2.2,0.85,982.96,31.07
5952617,-0.15,0.07,1.0,-0.18,2.56,1.28,983.01,31.08
5952655,-0.13,0.1,1.06,1.4,3.23,0.85,982.95,31.09
5952693,-0.07,0.05,0.95,3.23,4.09,1.04,982.93,31.08
5952731,-0.12,0.12,0.98,2.56,-0.18,1.22,982.93,31.09
5952770,-0.1,0.1,1.01,2.87,5.92,1.22,982.96,31.08
5952819,-0.12,0.06,1.09,1.89,0.61,1.28,982.94,31.07
5952857,-0.18,0.07,0.99,1.46,3.72,1.4,982.94,31.07
5952896,-0.14,0.09,0.94,1.1,3.48,1.22,982.99,31.09
5952934,-0.09,0.09,0.97,1.59,4.64,1.22,982.99,31.09
5952972,-0.13,0.08,1.04,2.56,2.01,1.22,982.91,31.08
5953010,-0.14,0.05,0.92,2.2,4.33,1.46,982.94,31.08
5953048,-0.13,0.11,1.04,2.01,1.95,1.53,982.94,31.08
5953086,-0.15,0.05,0.98,2.38,3.48,1.22,982.97,31.08
5953124,-0.14,0.07,1.02,1.65,2.26,1.16,982.97,31.1
5953162,-0.13,0.09,0.98,1.59,5.0,1.28,982.98,31.1
5953212,-0.12,0.06,1.01,2.32,2.81,1.28,982.89,31.08
5953250,-0.13,0.05,0.93,1.59,4.21,1.04,982.91,31.09
5953288,-0.12,0.08,1.03,1.59,3.05,1.16,982.9,31.09
5953327,-0.11,0.06,0.93,1.77,3.85,1.22,983.02,31.1
5953365,-0.13,0.09,1.01,1.89,2.62,1.22,982.99,31.1
5953403,-0.1,0.08,0.94,1.89,4.39,1.28,982.98,31.08
5953441,-0.11,0.08,1.0,1.95,2.56,1.28,982.9,31.1
5953479,-0.14,0.08,0.99,1.77,4.21,1.28,982.97,31.1
5953517,-0.12,0.07,0.99,1.89,3.05,1.28,982.98,31.1
5953555,-0.11,0.07,0.97,1.65,3.72,1.22,982.95,31.09
5953605,-0.12,0.09,1.0,2.01,3.11,1.28,982.95,31.07
5953643,-0.1,0.07,0.94,2.08,3.91,1.34,982.94,31.09
5953681,-0.12,0.08,1.01,2.01,2.87,1.16,982.94,31.09
5953719,-0.15,0.06,0.97,1.89,3.85,1.22,982.92,31.09
5953757,-0.13,0.07,1.0,1.77,3.05,1.28,982.92,31.1
5953795,-0.11,0.07,0.97,1.65,3.36,1.22,983.0,31.09
5953833,-0.12,0.07,0.98,1.59,3.36,1.1,982.9,31.1
5953872,-0.12,0.08,0.96,1.89,3.66,1.28,982.94,31.11
5953910,-0.12,0.07,0.99,2.2,3.17,1.16,982.91,31.09
5953959,-0.13,0.07,0.99,1.83,3.54,1.22,982.95,31.09
5953997,-0.12,0.07,0.99,1.77,3.66,1.1,982.96,31.09
5954036,-0.11,0.07,0.98,1.77,3.36,1.22,982.92,31.1
5954074,-0.11,0.08,0.98,1.65,3.66,1.1,982.92,31.09
5954112,-0.12,0.08,0.97,1.83,3.48,1.04,982.99,31.11
5954150,-0.13,0.07,0.98,1.89,3.54,1.28,982.98,31.09
5954188,-0.13,0.07,0.98,1.89,3.36,1.16,982.96,31.09
5954226,-0.12,0.08,0.98,1.77,3.54,1.28,982.96,31.1
5954264,-0.11,0.08,0.98,1.77,3.36,1.16,982.93,31.11
5954302,-0.11,0.08,0.98,1.83,3.42,1.16,982.94,31.1
5954352,-0.12,0.08,0.99,2.01,3.54,1.22,982.95,31.08
5954390,-0.12,0.07,0.99,2.08,3.36,1.22,982.93,31.1
5954428,-0.13,0.07,0.98,2.01,3.3,1.16,982.92,31.09
5954466,-0.12,0.08,0.98,1.83,3.23,1.28,982.97,31.12
5954504,-0.11,0.07,0.98,1.77,3.36,1.28,982.94,31.09
5954543,-0.12,0.07,0.98,1.83,3.48,1.22,982.94,31.1
5954581,-0.13,0.07,0.98,2.01,3.48,1.16,983.02,31.1
5954619,-0.13,0.07,0.99,1.89,3.54,1.16,982.92,31.1
5954657,-0.12,0.07,0.99,1.89,3.6,1.22,982.94,31.1
5954695,-0.11,0.07,0.98,1.71,3.36,1.16,982.96,31.1
5954745,-0.12,0.07,0.98,1.83,3.36,1.16,982.9,31.09
5954783,-0.12,0.07,0.98,1.83,3.42,1.22,982.99,31.09
5954821,-0.13,0.07,0.98,1.83,3.42,1.16,982.96,31.1
5954859,-0.13,0.07,0.99,1.89,3.42,1.16,982.93,31.1
5954897,-0.12,0.08,0.98,1.77,3.3,1.22,982.89,31.08
5954935,-0.12,0.08,0.98,2.01,3.42,1.34,982.94,31.1
5954973,-0.12,0.08,0.98,2.01,3.54,1.28,982.99,31.1
5955012,-0.12,0.08,0.98,2.01,3.36,1.1,982.94,31.1
5955050,-0.12,0.07,0.98,2.01,3.36,1.16,982.93,31.1
5955088,-0.12,0.08,0.99,1.89,3.36,1.04,982.96,31.11
5955163,-0.12,0.07,0.98,1.89,3.36,1.28,982.97,31.07
5955202,-0.12,0.07,0.98,1.77,3.48,1.34,982.96,31.09
5955240,-0.12,0.07,0.98,1.77,3.36,1.16,982.95,31.08
5955329,-0.12,0.08,0.98,1.83,3.42,1.16,982.95,31.05
5955367,-0.12,0.08,0.98,1.89,3.36,1.34,982.97,31.08
5955405,-0.12,0.08,0.98,1.77,3.42,1.22,982.97,31.08
5955443,-0.12,0.08,0.98,1.83,3.54,1.28,982.99,31.08
5955482,-0.12,0.07,0.98,1.89,3.36,1.16,982.99,31.08
5955520,-0.12,0.07,0.98,1.89,3.42,1.16,982.95,31.09
5955558,-0.12,0.07,0.98,1.77,3.42,1.28,982.89,31.08
5955608,-0.12,0.07,0.98,1.83,3.3,1.28,982.99,31.09
5955646,-0.12,0.07,0.98,1.71,3.36,1.46,982.97,31.09
5955684,-0.12,0.08,0.98,1.83,3.36,1.1,982.93,31.08
5955722,-0.12,0.08,0.98,1.77,3.3,1.22,983.0,31.08
5955760,-0.13,0.08,0.98,1.89,3.36,1.1,982.99,31.1
5955798,-0.13,0.07,0.98,1.71,3.23,1.22,982.95,31.09
5955836,-0.13,0.08,0.98,1.95,3.17,1.34,982.92,31.09
5955874,-0.12,0.08,0.98,1.95,3.42,1.34,982.91,31.09
5955912,-0.12,0.07,0.98,1.83,3.36,1.16,982.95,31.09
5955950,-0.12,0.07,0.97,1.95,3.48,1.22,982.96,31.1
5956000,-0.12,0.08,0.99,2.08,3.36,1.28,982.96,31.09
5956038,-0.12,0.07,0.99,1.95,3.48,1.28,982.97,31.1
5956076,-0.12,0.07,0.98,2.01,3.42,1.34,982.95,31.09
5956115,-0.13,0.07,0.98,1.83,3.66,1.4,983.0,31.1
5956153,-0.12,0.07,0.98,1.59,3.72,1.16,982.91,31.1
5956191,-0.11,0.08,0.98,1.83,3.48,1.16,983.01,31.11
5956229,-0.12,0.08,0.97,1.95,3.48,1.28,982.93,31.1
5956267,-0.11,0.08,0.99,2.01,3.3,1.1,982.91,31.1
5956305,-0.12,0.07,0.99,1.83,3.54,1.28,982.96,31.1
5956343,-0.13,0.07,0.99,1.89,3.48,1.22,982.96,31.1
5956393,-0.12,0.07,0.98,1.95,3.36,1.22,982.97,31.09
5956431,-0.12,0.07,0.98,1.83,3.3,1.22,982.96,31.1
5956469,-0.12,0.08,0.98,1.71,3.3,1.34,982.93,31.09
5956507,-0.12,0.08,0.97,1.95,3.36,1.22,982.99,31.11
5956545,-0.12,0.08,0.99,1.95,3.23,1.22,982.91,31.1
5956584,-0.12,0.08,0.99,1.83,3.36,1.22,982.99,31.11
5956622,-0.12,0.07,0.98,1.71,3.42,1.22,982.95,31.1
5956660,-0.12,0.07,0.98,1.83,3.48,1.16,982.99,31.1
5956698,-0.12,0.07,0.98,1.95,3.42,1.16,982.95,31.12
5956748,-0.12,0.07,0.98,1.89,3.42,1.22,982.95,31.09
5956786,-0.12,0.08,0.98,2.01,3.42,1.4,982.92,31.11
5956824,-0.12,0.08,0.98,2.14,3.42,1.1,982.91,31.1
5956862,-0.12,0.08,0.98,1.83,3.42,1.1,982.97,31.1
5956900,-0.13,0.08,0.99,1.71,3.42,1.22,982.94,31.12
5956938,-0.12,0.07,0.98,1.83,3.48,1.16,982.91,31.11
5956977,-0.12,0.07,0.98,1.83,3.42,1.1,982.99,31.12
5957015,-0.12,0.07,0.98,2.01,3.48,1.34,982.98,31.13
5957053,-0.12,0.07,0.98,1.83,3.42,1.28,982.97,31.11
5957091,-0.11,0.08,0.98,2.01,3.23,1.28,982.92,31.11
5957141,-0.12,0.08,0.98,1.83,3.42,1.1,982.92,31.09
5957179,-0.13,0.08,0.99,1.77,3.23,1.22,982.94,31.1
5957217,-0.13,0.07,0.98,1.77,3.36,1.16,982.98,31.11
5957255,-0.12,0.08,0.98,1.95,3.3,1.16,982.99,31.12
5957293,-0.12,0.08,0.98,1.77,3.42,1.28,982.96,31.1
5957331,-0.12,0.08,0.98,1.83,3.42,1.4,982.96,31.12
5957369,-0.12,0.07,0.98,1.95,3.42,1.4,982.98,31.11
5957408,-0.12,0.07,0.98,2.01,3.54,1.28,982.91,31.1
5957446,-0.12,0.07,0.98,1.71,3.54,1.22,982.96,31.12
5957484,-0.12,0.07,0.98,2.01,3.3,1.22,982.97,31.11
5957534,-0.12,0.08,0.98,2.08,3.54,1.22,982.94,31.1
5957572,-0.12,0.07,0.98,2.08,3.42,1.28,982.97,31.11
5957610,-0.12,0.07,0.98,2.01,3.54,1.28,982.94,31.12
5957648,-0.12,0.07,0.98,1.89,3.48,1.28,982.91,31.1
5957686,-0.12,0.07,0.98,1.71,3.48,1.16,982.98,31.11
5957724,-0.12,0.07,0.98,1.89,3.42,1.28,982.97,31.12
5957762,-0.12,0.07,0.98,1.83,3.36,1.34,982.95,31.1
5957801,-0.12,0.07,0.98,1.89,3.54,1.28,982.95,31.09
5957839,-0.12,0.08,0.98,1.83,3.54,1.28,982.91,31.11
5957877,-0.12,0.08,0.98,1.89,3.48,1.22,982.97,31.12
5957927,-0.12,0.07,0.98,1.83,3.36,1.1,982.9,31.1
5957965,-0.12,0.07,0.98,1.89,3.36,1.22,982.99,31.11
5958003,-0.12,0.07,0.98,2.01,3.23,1.34,982.93,31.11
5958041,-0.12,0.07,0.98,1.77,3.54,1.28,982.98,31.12
5958079,-0.12,0.07,0.98,1.95,3.54,1.28,982.95,31.1
5958117,-0.12,0.08,0.98,1.77,3.54,1.34,982.99,31.11
5958155,-0.12,0.08,0.98,2.08,3.48,1.34,982.95,31.12
5958193,-0.12,0.07,0.98,1.83,3.66,1.28,983.02,31.12
5958232,-0.12,0.07,0.98,1.95,3.42,1.28,982.94,31.12
5958270,-0.12,0.07,0.98,1.83,3.48,1.34,982.95,31.12
5958347,-0.12,0.08,0.98,1.89,3.54,1.28,982.92,31.08
5958385,-0.12,0.08,0.98,1.95,3.36,1.34,983.02,31.11
5958423,-0.12,0.07,0.98,1.83,3.42,1.16,982.94,31.1
5958512,-0.12,0.07,0.98,1.83,3.36,1.22,982.98,31.07
5958551,-0.12,0.08,0.98,1.71,3.36,1.34,982.95,31.08
5958589,-0.12,0.08,0.98,1.95,3.3,1.28,982.91,31.08
5958627,-0.12,0.08,0.98,2.01,3.36,1.22,982.93,31.1
5958665,-0.12,0.07,0.98,1.89,3.36,1.16,982.97,31.09
5958703,-0.12,0.08,0.98,1.89,3.48,1.28,982.99,31.1
5958741,-0.12,0.07,0.98,1.83,3.48,1.4,982.91,31.09
5958791,-0.12,0.08,0.98,1.95,3.3,1.22,982.98,31.09
5958829,-0.12,0.07,0.98,2.08,3.6,1.28,982.97,31.09
5958867,-0.12,0.07,0.98,2.01,3.36,1.22,982.93,31.09
5958905,-0.12,0.07,0.98,1.83,3.54,1.16,982.9,31.1
5958943,-0.12,0.07,0.98,1.71,3.72,1.1,982.96,31.1
5958982,-0.12,0.08,0.98,1.83,3.6,1.22,982.91,31.11
5959020,-0.12,0.08,0.98,1.95,3.3,1.1,982.91,31.1
5959058,-0.12,0.08,0.99,1.89,3.42,1.28,982.96,31.11
5959096,-0.12,0.07,0.98,1.83,3.3,1.16,983.0,31.11
5959146,-0.12,0.07,0.98,1.89,3.48,1.28,982.92,31.08
5959184,-0.12,0.08,0.98,1.83,3.36,1.28,982.96,31.12
5959222,-0.12,0.08,0.98,1.89,3.42,1.34,982.94,31.1
5959260,-0.12,0.08,0.98,1.89,3.42,1.28,982.99,31.12
5959298,-0.12,0.07,0.98,1.83,3.3,1.28,982.95,31.11
5959336,-0.12,0.07,0.98,1.89,3.48,1.16,982.95,31.1
5959374,-0.12,0.07,0.98,1.95,3.42,1.28,982.95,31.11
5959413,-0.12,0.07,0.98,2.01,3.3,1.22,982.93,31.12
5959451,-0.12,0.08,0.98,1.77,3.48,1.28,982.92,31.1
5959489,-0.12,0.08,0.98,1.89,3.36,1.22,982.94,31.12
5959539,-0.12,0.08,0.98,2.01,3.54,1.28,982.95,31.11
5959577,-0.12,0.07,0.98,1.95,3.48,1.22,982.99,31.09
5959615,-0.12,0.07,0.98,1.71,3.42,1.16,982.92,31.11
5959653,-0.12,0.08,0.98,1.95,3.42,1.28,982.93,31.1
5959691,-0.12,0.08,0.98,1.77,3.54,1.22,982.93,31.11
5959729,-0.12,0.08,0.98,1.77,3.36,1.28,982.97,31.11
5959767,-0.12,0.07,0.98,1.95,3.42,1.16,983.01,31.12
5959806,-0.12,0.07,0.98,1.89,3.42,1.4,983.03,31.12
5959844,-0.12,0.07,0.98,1.83,3.23,1.28,982.91,31.11
5959882,-0.12,0.07,0.98,1.65,3.23,1.22,982.93,31.12
5959931,-0.12,0.07,0.98,1.95,3.23,1.28,982.94,31.1
5959970,-0.12,0.07,0.98,1.89,3.3,1.1,982.89,31.1
5960008,-0.12,0.07,0.98,1.77,3.36,1.22,982.93,31.11
5960046,-0.13,0.08,0.98,1.77,3.42,1.16,982.97,31.12
5960084,-0.13,0.08,0.98,2.08,3.42,1.22,982.97,31.11
5960122,-0.13,0.08,0.98,1.89,3.3,1.46,982.99,31.12
5960160,-0.13,0.08,0.99,1.77,3.3,1.16,982.94,31.11
5960198,-0.12,0.07,0.98,1.83,3.42,1.28,982.87,31.11
5960236,-0.11,0.07,0.98,1.89,3.42,1.28,982.92,31.12
5960274,-0.11,0.07,0.98,1.71,3.42,1.28,982.95,31.11
5960324,-0.12,0.07,0.98,1.83,3.36,1.28,982.96,31.12
5960362,-0.13,0.07,0.98,1.77,3.36,1.16,983.01,31.12
5960400,-0.12,0.08,0.98,2.08,3.36,1.16,983.0,31.11
5960439,-0.12,0.08,0.98,1.83,3.48,1.16,982.98,31.12
5960477,-0.12,0.08,0.98,1.83,3.3,1.28,982.97,31.12
5960515,-0.12,0.07,0.98,1.77,3.36,1.28,982.95,31.12
5960553,-0.12,0.07,0.98,1.83,3.36,1.22,982.94,31.12
5960591,-0.12,0.07,0.99,1.89,3.42,1.16,982.96,31.12
5960629,-0.12,0.07,0.99,1.95,3.48,1.16,982.95,31.13
5960667,-0.12,0.07,0.98,1.71,3.3,1.28,983.01,31.12
5960717,-0.12,0.07,0.98,1.77,3.6,1.28,983.03,31.11
5960755,-0.12,0.07,0.98,1.77,3.36,1.22,982.95,31.12
5960793,-0.13,0.08,0.98,1.77,3.42,1.34,982.93,31.11
5960831,-0.12,0.08,0.98,1.77,3.3,1.16,982.99,31.12
5960870,-0.12,0.08,0.98,1.83,3.36,1.28,982.97,31.12
5960908,-0.12,0.07,0.98,1.83,3.54,1.1,983.02,31.12
5960946,-0.12,0.07,0.98,2.01,3.42,1.34,982.92,31.12
5960984,-0.12,0.07,0.99,2.01,3.23,1.16,982.95,31.12
5961022,-0.13,0.07,0.98,1.77,3.36,1.22,982.95,31.12
5961060,-0.12,0.07,0.98,1.71,3.42,1.16,982.95,31.12
5961110,-0.12,0.07,0.98,2.01,3.48,1.22,982.92,31.11
5961148,-0.12,0.08,0.98,1.95,3.36,1.16,982.95,31.1
5961186,-0.13,0.08,0.98,1.83,3.36,1.22,982.92,31.12
5961224,-0.13,0.08,0.98,1.83,3.36,1.28,982.94,31.11
5961262,-0.13,0.07,0.98,1.77,3.3,1.22,982.88,31.11
5961301,-0.12,0.07,0.98,1.89,3.3,1.04,982.91,31.11
5961339,-0.12,0.07,0.98,2.01,3.17,1.1,982.99,31.11
5961377,-0.12,0.08,0.98,1.83,3.36,1.16,982.94,31.12
5961415,-0.12,0.08,0.98,1.71,3.42,1.16,982.96,31.12
5961453,-0.12,0.08,0.98,1.77,3.3,1.16,982.94,31.12
5961529,-0.12,0.07,0.98,2.01,3.48,1.22,982.93,31.08
5961567,-0.11,0.07,0.98,2.01,3.3,1.22,983.01,31.11
5961605,-0.12,0.07,0.98,1.89,3.42,1.1,982.96,31.1
5961694,-0.13,0.07,0.99,1.77,3.36,1.22,982.94,31.05
5961733,-0.13,0.08,0.98,1.83,3.36,1.16,982.94,31.08
5961771,-0.12,0.08,0.98,1.83,3.23,1.34,982.9,31.09
5961809,-0.12,0.08,0.98,1.83,3.36,1.34,982.97,31.1
5961847,-0.12,0.08,0.98,1.83,3.3,1.04,982.98,31.11
5961885,-0.12,0.07,0.99,1.89,3.23,1.22,983.02,31.12
5961935,-0.12,0.07,0.98,1.83,3.3,1.28,982.93,31.08
5961973,-0.12,0.07,0.98,1.65,3.23,1.22,982.94,31.09
5962011,-0.12,0.08,0.98,1.89,3.3,1.28,982.97,31.09
5962049,-0.13,0.08,0.98,1.71,3.36,1.04,982.91,31.1
5962087,-0.13,0.07,0.98,1.89,3.42,1.28,982.93,31.1
5962125,-0.13,0.07,0.98,1.83,3.3,1.34,982.96,31.11
5962163,-0.12,0.07,0.98,1.83,3.42,1.28,983.01,31.12
5962202,-0.12,0.08,0.98,1.83,3.36,1.22,982.92,31.11
5962240,-0.12,0.07,0.98,1.89,3.48,1.28,982.96,31.11
5962278,-0.12,0.07,0.98,1.83,3.36,1.1,982.97,31.11
5962328,-0.11,0.07,0.98,1.83,3.23,1.16,982.94,31.1
5962366,-0.12,0.08,0.98,1.65,3.36,1.16,982.91,31.11
5962404,-0.12,0.08,0.98,1.71,3.23,1.1,982.96,31.11
5962442,-0.12,0.08,0.98,1.89,3.23,1.28,982.97,31.12
5962480,-0.12,0.07,0.98,1.83,3.48,1.28,983.0,31.11
5962518,-0.13,0.07,0.99,1.89,3.17,1.1,982.97,31.12
5962556,-0.12,0.07,0.98,1.83,3.23,1.22,982.97,31.12
5962595,-0.12,0.07,0.98,1.83,3.3,1.34,982.91,31.12
5962633,-0.12,0.08,0.98,1.77,3.42,1.1,982.98,31.13
5962671,-0.12,0.07,0.98,1.71,3.17,1.1,982.89,31.12
5962721,-0.12,0.07,0.98,1.71,3.42,1.22,983.03,31.11
5962759,-0.12,0.08,0.98,1.89,3.36,1.4,982.94,31.12
5962797,-0.12,0.07,0.99,1.89,3.36,1.4,982.94,31.12
5962835,-0.12,0.08,0.98,1.77,3.48,1.22,982.89,31.11
5962873,-0.12,0.07,0.98,1.83,3.36,1.28,982.94,31.11
5962911,-0.12,0.07,0.99,1.83,3.42,1.34,982.98,31.12
5962949,-0.12,0.08,0.98,1.77,3.3,1.22,982.88,31.11
5962988,-0.12,0.08,0.98,1.77,3.3,1.22,982.99,31.14
5963026,-0.11,0.08,0.98,1.95,3.36,1.22,982.9,31.13
5963064,-0.12,0.08,0.98,2.01,3.3,1.16,982.94,31.12
5963114,-0.12,0.07,0.98,1.89,3.42,1.22,982.97,31.12
5963152,-0.12,0.07,0.98,1.95,3.54,1.4,982.95,31.11
5963190,-0.12,0.07,0.99,1.77,3.42,1.22,982.96,31.13
5963228,-0.12,0.08,0.98,1.77,3.36,1.16,982.97,31.12
5963266,-0.12,0.07,0.98,1.77,3.3,1.22,982.93,31.13
5963304,-0.12,0.08,0.98,1.95,3.17,1.16,982.98,31.12
5963342,-0.12,0.07,0.98,1.95,3.42,1.22,982.95,31.12
5963381,-0.12,0.08,0.98,2.08,3.42,1.22,982.91,31.12
5963419,-0.12,0.07,0.98,1.95,3.42,1.22,982.98,31.12
5963457,-0.12,0.08,0.98,1.77,3.42,1.22,982.98,31.12
5963507,-0.12,0.08,0.98,1.89,3.42,1.34,982.97,31.12
5963545,-0.12,0.08,0.98,1.83,3.48,1.4,982.88,31.1
5963583,-0.12,0.07,0.98,1.71,3.42,1.16,982.94,31.13
5963621,-0.12,0.07,0.98,2.01,3.54,1.28,982.94,31.12
5963659,-0.12,0.07,0.98,1.83,3.48,1.22,982.9,31.12
5963697,-0.12,0.07,0.98,1.89,3.3,1.22,982.91,31.12
5963735,-0.12,0.07,0.98,1.89,3.42,1.22,982.96,31.11
5963774,-0.12,0.07,0.98,1.83,3.48,1.28,982.93,31.13
5963812,-0.12,0.08,0.98,2.08,3.42,1.28,982.97,31.14
5963850,-0.12,0.08,0.98,1.89,3.3,1.34,982.96,31.13
5963900,-0.12,0.08,0.98,1.83,3.42,1.22,982.93,31.12
5963938,-0.12,0.07,0.98,1.83,3.42,1.34,982.92,31.11
5963976,-0.12,0.07,0.98,1.83,3.3,1.22,982.92,31.12
5964014,-0.12,0.07,0.98,1.95,3.3,1.22,982.95,31.12
5964052,-0.12,0.07,0.98,1.71,3.36,1.28,982.94,31.13
5964090,-0.12,0.07,0.98,1.77,3.3,1.22,982.99,31.13
5964128,-0.12,0.08,0.98,1.83,3.36,1.1,982.97,31.12
5964167,-0.12,0.08,0.98,1.83,3.3,1.22,982.95,31.13
5964205,-0.12,0.07,0.98,1.95,3.42,1.28,982.95,31.12
5964255,-0.12,0.07,0.98,1.71,3.42,1.22,982.99,31.12
5964293,-0.12,0.07,0.98,2.01,3.42,1.22,982.95,31.13
5964331,-0.12,0.08,0.98,1.71,3.48,1.22,982.94,31.12
5964369,-0.12,0.07,0.98,1.83,3.42,1.16,982.91,31.12
5964407,-0.12,0.07,0.98,1.89,3.42,1.28,982.92,31.12
5964445,-0.12,0.07,0.98,1.89,3.42,1.22,982.91,31.12
5964483,-0.12,0.07,0.98,1.83,3.48,1.28,982.94,31.12
5964521,-0.12,0.08,0.98,1.89,3.42,1.22,982.95,31.13
5964560,-0.12,0.08,0.98,1.83,3.3,1.28,982.94,31.13
5964598,-0.12,0.08,0.98,1.83,3.54,1.22,982.92,31.14
5964673,-0.12,0.07,0.98,1.89,3.17,1.16,982.94,31.1
5964712,-0.12,0.07,0.98,1.77,3.36,1.4,982.9,31.11
5964750,-0.12,0.07,0.98,1.95,3.54,1.16,982.92,31.11
5964839,-0.12,0.07,0.98,1.89,3.36,1.22,982.95,31.08
5964877,-0.12,0.07,0.98,1.65,3.36,1.16,983.01,31.09
5964915,-0.12,0.07,0.98,1.77,3.42,1.34,982.93,31.1
5964954,-0.12,0.08,0.98,1.89,3.42,1.28,982.92,31.09
5964992,-0.12,0.08,0.98,1.89,3.48,1.04,982.97,31.1
5965030,-0.12,0.07,0.98,1.89,3.54,1.16,982.95,31.1
5965068,-0.12,0.07,0.98,2.01,3.42,1.28,982.93,31.12
5965118,-0.12,0.07,0.98,1.77,3.48,1.28,982.96,31.1
5965156,-0.12,0.08,0.98,1.77,3.42,1.22,982.92,31.1
5965194,-0.12,0.08,0.98,1.95,3.48,1.28,982.98,31.12
5965232,-0.12,0.08,0.98,1.95,3.42,1.22,982.98,31.11
5965270,-0.12,0.08,0.98,1.71,3.42,1.28,982.92,31.12
5965308,-0.12,0.07,0.98,1.89,3.36,1.28,982.94,31.12
5965346,-0.12,0.07,0.98,1.89,3.48,1.28,982.92,31.12
5965384,-0.12,0.07,0.98,1.77,3.36,1.22,982.92,31.11
5965422,-0.12,0.08,0.98,1.95,3.3,1.28,982.98,31.13
5965461,-0.13,0.08,0.98,1.83,3.42,1.28,982.97,31.12
5965510,-0.12,0.08,0.98,1.77,3.42,1.22,982.94,31.11
5965548,-0.12,0.07,0.98,1.89,3.3,1.28,982.93,31.12
5965587,-0.12,0.07,0.98,1.89,3.42,1.28,982.97,31.13
5965625,-0.12,0.07,0.98,1.89,3.48,1.22,983.02,31.12
5965663,-0.12,0.07,0.99,1.83,3.36,1.22,982.95,31.11
5965701,-0.12,0.07,0.98,1.83,3.42,1.16,982.95,31.12
5965739,-0.12,0.07,0.98,1.77,3.54,1.28,982.98,31.12
5965777,-0.12,0.07,0.98,1.71,3.54,1.34,982.98,31.13
5965815,-0.12,0.08,0.98,1.89,3.36,1.28,982.93,31.12
5965853,-0.13,0.08,0.98,1.89,3.3,1.34,982.92,31.12
5965903,-0.12,0.08,0.98,1.95,3.48,1.28,982.97,31.1
5965941,-0.12,0.07,0.98,1.95,3.48,1.28,982.98,31.13
5965979,-0.12,0.07,0.98,1.83,3.42,1.28,982.96,31.12
5966017,-0.11,0.07,0.98,1.89,3.36,1.16,982.95,31.13
5966056,-0.12,0.07,0.98,1.89,3.54,1.22,982.97,31.13
5966094,-0.12,0.08,0.99,1.77,3.23,1.28,982.94,31.13
5966132,-0.12,0.08,0.98,1.95,3.42,1.28,982.94,31.12
5966170,-0.12,0.07,0.98,1.95,3.42,1.34,982.95,31.13
5966208,-0.12,0.07,0.98,1.89,3.48,1.1,982.98,31.13
5966246,-0.12,0.07,0.98,1.71,3.36,1.28,982.99,31.14
5966296,-0.12,0.08,0.98,1.89,3.36,1.22,982.96,31.13
5966334,-0.12,0.08,0.98,1.89,3.42,1.34,982.96,31.13
5966372,-0.12,0.08,0.98,1.95,3.48,1.16,983.01,31.13
5966410,-0.12,0.07,0.98,1.83,3.42,1.22,982.93,31.13
5966448,-0.12,0.07,0.98,1.89,3.3,1.1,982.98,31.13
5966486,-0.13,0.07,0.98,1.83,3.48,1.22,982.93,31.13
5966525,-0.12,0.07,0.98,1.83,3.3,1.4,982.97,31.13
5966563,-0.12,0.07,0.98,1.83,3.42,1.16,983.0,31.13
5966601,-0.11,0.08,0.98,1.83,3.54,1.28,982.96,31.13
5966639,-0.12,0.07,0.98,1.83,3.36,1.22,982.98,31.13
5966689,-0.13,0.07,0.98,1.83,3.36,1.22,982.98,31.12
5966727,-0.13,0.07,0.98,1.83,3.54,1.22,982.97,31.13
5966765,-0.12,0.08,0.98,2.08,3.42,1.34,982.96,31.14
5966803,-0.12,0.08,0.99,1.95,3.54,1.22,982.98,31.14
5966841,-0.12,0.08,0.98,1.71,3.48,1.16,982.97,31.15
5966879,-0.11,0.08,0.98,1.83,3.54,1.22,982.92,31.14
5966917,-0.12,0.07,0.98,1.83,3.42,1.28,982.97,31.13
5966956,-0.12,0.08,0.98,2.01,3.36,1.16,983.01,31.14
5966994,-0.12,0.08,0.98,1.89,3.42,1.34,983.0,31.15
5967043,-0.12,0.07,0.98,1.89,3.48,1.22,982.92,31.12
5967082,-0.12,0.07,0.98,1.89,3.48,1.34,982.93,31.12
5967120,-0.12,0.08,0.98,2.08,3.48,1.28,982.91,31.13
5967158,-0.12,0.08,0.98,1.89,3.42,1.34,983.01,31.13
5967196,-0.12,0.07,0.98,1.71,3.42,1.22,982.92,31.13
5967234,-0.12,0.07,0.98,1.77,3.36,1.1,982.96,31.13
5967272,-0.12,0.07,0.98,1.71,3.36,1.1,982.97,31.15
5967310,-0.12,0.07,0.98,2.01,3.42,1.22,982.95,31.14
5967348,-0.12,0.07,0.98,1.89,3.54,1.4,982.94,31.14
5967386,-0.12,0.08,0.98,1.95,3.36,1.22,982.95,31.14
5967436,-0.12,0.08,0.98,1.89,3.48,1.28,982.97,31.13
5967474,-0.13,0.08,0.98,1.89,3.42,1.16,982.96,31.14
5967512,-0.12,0.07,0.98,2.01,3.48,1.16,982.94,31.14
5967550,-0.12,0.07,0.98,1.95,3.42,1.22,982.95,31.13
5967589,-0.12,0.08,0.98,1.89,3.36,1.1,982.99,31.15
5967627,-0.12,0.07,0.98,1.89,3.42,1.34,982.99,31.14
5967665,-0.12,0.07,0.99,1.95,3.42,1.4,983.02,31.13
5967703,-0.12,0.07,0.98,1.71,3.54,1.4,982.95,31.13
5967741,-0.12,0.07,0.98,1.83,3.42,1.22,982.99,31.14
5967779,-0.12,0.07,0.98,1.71,3.23,1.34,982.95,31.15
5967855,-0.12,0.08,0.99,1.89,3.3,1.16,982.94,31.1
5967893,-0.11,0.08,0.98,1.89,3.48,1.4,982.97,31.13
5967931,-0.12,0.08,0.98,1.71,3.42,1.4,982.94,31.13
5968020,-0.12,0.07,0.98,2.01,3.42,1.34,982.99,31.1
5968059,-0.12,0.07,0.98,1.83,3.3,1.22,982.95,31.09
5968097,-0.12,0.07,0.98,1.83,3.48,1.28,982.94,31.1
5968135,-0.13,0.07,0.98,1.89,3.54,1.28,982.99,31.11
5968173,-0.12,0.07,0.98,1.89,3.36,1.28,982.93,31.11
5968211,-0.12,0.07,0.98,1.95,3.66,1.22,983.0,31.12
5968249,-0.12,0.08,0.98,1.77,3.48,1.34,982.96,31.13
5968299,-0.12,0.07,0.98,1.89,3.42,1.28,983.01,31.12
5968337,-0.12,0.08,0.98,1.83,3.42,1.34,982.99,31.13
5968375,-0.12,0.07,0.98,1.89,3.6,1.34,982.94,31.12
5968413,-0.12,0.07,0.98,1.89,3.3,1.28,982.94,31.12
5968451,-0.12,0.08,0.98,1.83,3.36,1.34,983.0,31.13
5968489,-0.12,0.07,0.98,1.89,3.3,1.16,982.97,31.12
5968528,-0.12,0.07,0.98,1.83,3.23,1.16,982.97,31.13
5968566,-0.12,0.07,0.98,1.89,3.48,1.28,982.93,31.13
5968604,-0.12,0.07,0.98,1.89,3.3,1.22,982.94,31.12
5968642,-0.12,0.08,0.98,2.01,3.36,1.1,982.93,31.14
5968692,-0.12,0.07,0.98,1.95,3.42,1.28,982.94,31.11
5968730,-0.12,0.08,0.98,1.89,3.42,1.46,982.99,31.12
5968768,-0.12,0.07,0.98,2.01,3.42,1.34,982.94,31.13
5968806,-0.12,0.07,0.98,1.89,3.36,1.22,982.94,31.14
5968844,-0.12,0.07,0.98,1.77,3.42,1.34,982.91,31.13
5968882,-0.13,0.07,0.98,2.14,3.3,1.34,982.99,31.13
5968920,-0.13,0.07,0.98,1.95,3.42,1.28,982.93,31.13
5968958,-0.13,0.07,0.98,1.89,3.54,1.28,982.92,31.13
5968996,-0.12,0.08,0.98,1.95,3.48,1.16,982.94,31.13
5969035,-0.12,0.08,0.98,1.95,3.42,1.34,982.95,31.14
5969084,-0.12,0.07,0.98,1.95,3.48,1.28,982.96,31.14
5969122,-0.12,0.07,0.98,1.95,3.36,1.4,982.95,31.14
5969161,-0.12,0.07,0.98,1.71,3.36,1.22,983.01,31.13
5969199,-0.12,0.08,0.98,1.89,3.3,1.4,982.97,31.14
5969237,-0.12,0.08,0.98,2.01,3.36,1.34,982.95,31.12
5969275,-0.12,0.08,0.98,1.95,3.36,1.34,982.96,31.15
5969313,-0.13,0.07,0.98,1.95,3.42,1.4,982.97,31.13
5969351,-0.12,0.07,0.98,1.95,3.42,1.22,982.92,31.14
5969389,-0.12,0.07,0.98,1.83,3.54,1.16,982.89,31.14
5969439,-0.12,0.07,0.98,2.01,3.48,1.22,982.99,31.13
5969477,-0.12,0.08,0.98,1.83,3.42,1.22,983.0,31.13
5969515,-0.12,0.08,0.99,1.83,3.36,1.04,982.95,31.13
5969553,-0.13,0.07,0.98,1.89,3.54,1.16,983.0,31.14
5969591,-0.12,0.07,0.98,1.89,3.3,1.28,982.9,31.14
5969630,-0.12,0.08,0.98,1.77,3.48,1.28,982.95,31.15
5969668,-0.12,0.07,0.98,1.95,3.54,1.16,983.01,31.13
5969706,-0.12,0.07,0.98,1.89,3.36,1.34,982.96,31.14
5969744,-0.13,0.07,0.98,1.89,3.72,1.28,982.94,31.15
5969782,-0.12,0.07,0.98,1.89,3.54,1.16,982.88,31.14
5969832,-0.13,0.08,0.98,1.83,3.54,1.22,982.94,31.14
5969870,-0.12,0.08,0.98,1.83,3.48,1.22,982.98,31.16
5969908,-0.12,0.07,0.98,1.95,3.42,1.22,982.93,31.13
5969946,-0.12,0.07,0.98,1.77,3.48,1.28,982.94,31.13
5969984,-0.12,0.07,0.98,1.71,3.42,1.28,982.97,31.15
5970023,-0.12,0.07,0.98,1.95,3.36,1.1,982.97,31.14
5970061,-0.12,0.07,0.98,1.89,3.42,1.22,982.96,31.15
5970099,-0.13,0.07,0.98,1.89,3.3,1.22,982.89,31.14
5970137,-0.12,0.08,0.98,1.77,3.42,1.28,982.96,31.15
5970175,-0.12,0.08,0.98,1.89,3.36,1.28,982.98,31.14
5970225,-0.12,0.07,0.98,1.95,3.54,1.1,983.0,31.15
5970263,-0.12,0.07,0.98,1.83,3.36,1.28,982.95,31.15
5970301,-0.12,0.07,0.98,2.08,3.48,1.34,982.93,31.13
5970339,-0.12,0.07,0.98,1.95,3.36,1.28,983.01,31.14
5970377,-0.12,0.07,0.99,2.01,3.48,1.16,982.95,31.15
5970416,-0.12,0.07,0.99,2.01,3.3,1.28,982.9,31.15
5970454,-0.12,0.08,0.98,1.77,3.54,1.16,983.0,31.15
5970492,-0.12,0.08,0.97,1.65,3.42,1.1,983.01,31.17
5970530,-0.13,0.08,0.98,1.83,3.3,1.16,982.96,31.15
5970568,-0.13,0.08,0.98,1.89,3.36,0.98,982.94,31.15
5970618,-0.11,0.07,0.98,2.01,3.3,1.22,982.97,31.13
5970656,-0.12,0.07,0.99,1.95,3.36,1.28,983.03,31.15
5970694,-0.12,0.07,0.99,1.83,3.54,1.34,982.93,31.14
5970732,-0.19,0.06,0.99,1.95,3.72,1.04,982.97,31.14
5970770,-0.12,0.08,0.99,2.14,3.78,1.22,982.95,31.14
5970808,-0.12,0.08,0.98,1.89,2.99,1.22,982.91,31.15
5970847,-0.11,0.08,0.98,2.01,3.3,1.22,982.99,31.16
5970885,-0.11,0.08,0.98,2.01,3.36,1.28,982.98,31.16
5970923,-0.11,0.08,0.99,2.01,3.17,1.22,982.97,31.15
5970961,-0.13,0.07,0.99,2.01,3.36,1.34,982.94,31.15
5971037,-0.13,0.08,0.99,1.83,3.48,1.34,982.99,31.13
5971075,-0.12,0.07,0.97,1.83,3.6,1.34,982.94,31.12
5971113,-0.11,0.08,0.98,2.08,3.3,1.34,982.99,31.14
5971202,-0.12,0.07,1.0,2.01,3.42,1.22,982.95,31.1
5971241,-0.13,0.08,0.99,2.14,3.3,1.28,982.98,31.12
5971279,-0.13,0.08,0.99,1.77,3.42,1.22,983.01,31.13
5971317,-0.13,0.08,0.98,1.83,3.66,1.46,982.98,31.12
5971355,-0.13,0.07,0.97,1.71,3.54,1.53,982.96,31.13
5971393,-0.12,0.07,0.97,1.95,3.3,1.22,982.92,31.13
5971431,-0.11,0.07,0.97,2.01,3.48,1.16,982.96,31.14
5971481,-0.11,0.08,0.99,2.08,3.36,1.22,982.95,31.12
5971519,-0.12,0.08,0.99,2.01,3.42,1.16,983.03,31.13
5971557,-0.13,0.07,0.99,1.89,3.42,1.22,982.93,31.13
5971595,-0.13,0.07,0.98,1.77,3.6,1.28,982.92,31.13
5971633,-0.13,0.07,0.98,1.95,3.54,1.28,982.93,31.12
5971672,-0.12,0.07,0.98,1.89,3.48,1.4,982.94,31.14
5971710,-0.12,0.08,0.98,1.95,3.48,1.16,982.94,31.14
5971748,-0.12,0.08,0.98,1.95,3.23,1.22,982.92,31.13
5971786,-0.11,0.08,0.99,2.01,3.23,1.1,982.99,31.13
5971824,-0.12,0.07,0.98,2.01,3.42,1.22,982.97,31.14
5971874,-0.13,0.07,0.98,1.83,3.42,1.16,982.96,31.13
5971912,-0.13,0.07,0.98,1.83,3.42,1.22,982.96,31.14
5971950,-0.13,0.07,0.98,1.89,3.48,1.34,982.93,31.13
5971988,-0.12,0.08,0.98,2.01,3.54,1.28,982.92,31.14
5972026,-0.12,0.08,0.98,1.89,3.42,1.4,982.96,31.14
5972064,-0.11,0.08,0.99,1.89,3.48,1.34,982.93,31.15
5972103,-0.12,0.07,0.98,1.77,3.48,1.16,982.92,31.14
5972141,-0.13,0.07,0.98,1.95,3.42,1.28,983.0,31.15
5972179,-0.12,0.07,0.98,1.71,3.3,1.16,982.93,31.15
5972229,-0.12,0.07,0.98,1.77,3.48,1.28,982.95,31.14
5972267,-0.12,0.07,0.98,1.95,3.36,1.4,982.95,31.14
5972305,-0.12,0.08,0.98,1.95,3.48,1.28,982.98,31.15
5972343,-0.12,0.08,0.99,2.08,3.54,1.34,982.96,31.13
5972381,-0.12,0.08,0.98,1.77,3.54,1.28,982.97,31.15
5972419,-0.12,0.08,0.98,1.83,3.48,1.16,982.92,31.14
5972457,-0.12,0.07,0.98,1.83,3.48,1.34,982.93,31.15
5972496,-0.12,0.07,0.98,1.89,3.42,1.34,982.91,31.14
5972534,-0.12,0.07,0.98,2.08,3.48,1.16,982.97,31.14
5972572,-0.12,0.07,0.98,1.83,3.3,1.34,982.97,31.16
5972622,-0.12,0.08,0.98,1.83,3.54,1.1,982.95,31.15
5972660,-0.12,0.08,0.98,1.95,3.48,1.28,982.93,31.15
5972698,-0.12,0.07,0.98,1.95,3.42,1.16,982.98,31.15
5972736,-0.12,0.07,0.98,1.95,3.6,1.28,982.99,31.15
5972774,-0.12,0.08,0.98,2.08,3.48,1.34,982.97,31.16
5972812,-0.12,0.08,0.98,1.95,3.42,1.28,982.97,31.15
5972851,-0.12,0.08,0.98,1.77,3.42,1.28,982.95,31.16
5972889,-0.12,0.07,0.98,2.01,3.6,1.22,982.99,31.16
5972927,-0.12,0.07,0.98,2.01,3.42,1.28,982.98,31.17
5972965,-0.12,0.07,0.98,1.77,3.48,1.1,982.94,31.16
5973015,-0.12,0.07,0.98,1.71,3.48,1.28,982.91,31.14
5973053,-0.12,0.07,0.98,1.89,3.54,1.28,982.96,31.15
5973091,-0.12,0.07,0.98,1.89,3.36,0.98,982.95,31.15
5973129,-0.12,0.07,0.98,1.89,3.72,1.34,982.93,31.15
5973167,-0.12,0.08,0.98,1.89,3.42,1.28,982.96,31.16
5973205,-0.12,0.08,0.98,2.01,3.54,1.34,983.01,31.15
5973244,-0.12,0.08,0.98,1.83,3.48,1.28,982.95,31.15
5973282,-0.12,0.08,0.98,1.95,3.54,1.28,982.88,31.15
5973320,-0.12,0.07,0.98,1.83,3.48,1.16,982.95,31.15
5973358,-0.12,0.07,0.98,1.89,3.48,1.4,982.92,31.16
5973408,-0.12,0.07,0.98,1.83,3.42,1.34,983.02,31.15
5973446,-0.12,0.08,0.98,1.83,3.6,1.16,982.92,31.14
5973484,-0.12,0.08,0.98,1.83,3.42,1.1,982.95,31.15
5973522,-0.12,0.08,0.98,1.95,3.3,1.16,982.91,31.15
5973560,-0.11,0.08,0.99,1.89,3.36,1.34,982.95,31.16
5973599,-0.12,0.08,0.98,1.95,3.42,1.28,982.93,31.15
5973637,-0.12,0.08,0.98,1.83,3.36,1.22,982.97,31.15
5973675,-0.13,0.08,0.99,1.77,3.42,1.34,983.01,31.17
5973713,-0.13,0.08,0.98,2.08,3.6,1.22,982.92,31.15
5973751,-0.11,0.07,0.98,1.95,3.54,1.1,982.92,31.16
5973801,-0.13,0.07,0.98,1.83,3.36,1.1,982.99,31.16
5973839,-0.13,0.07,0.98,1.89,3.42,1.1,983.01,31.15
5973877,-0.13,0.07,0.98,2.08,3.3,1.22,982.93,31.14
5973915,-0.12,0.07,0.98,1.95,3.48,1.28,982.97,31.14
5973953,-0.12,0.07,0.99,1.77,3.6,1.22,982.96,31.15
5973991,-0.12,0.07,0.98,1.83,3.6,1.28,982.93,31.14
5974029,-0.12,0.07,0.98,1.83,3.42,1.22,982.96,31.14
5974068,-0.12,0.07,0.97,1.83,3.48,1.16,982.94,31.17
5974106,-0.12,0.08,0.98,1.83,3.48,1.1,982.93,31.14
5974144,-0.12,0.08,0.98,1.95,3.48,1.1,982.95,31.15
5974219,-0.12,0.08,0.98,1.89,3.54,1.22,982.96,31.13
5974258,-0.12,0.08,0.98,1.83,3.42,1.34,982.99,31.14
5974296,-0.11,0.08,0.99,1.89,3.36,1.22,982.97,31.15
5974385,-0.13,0.07,0.98,1.89,3.23,1.22,982.91,31.1
5974423,-0.12,0.07,0.98,1.83,3.3,1.28,982.99,31.12
5974461,-0.12,0.07,0.98,1.77,3.48,1.22,982.94,31.12
5974499,-0.12,0.07,0.98,2.01,3.3,1.16,982.94,31.13
5974538,-0.12,0.07,0.98,1.65,3.3,1.22,982.96,31.13
5974576,-0.12,0.07,0.99,1.89,3.42,1.16,982.96,31.14
5974625,-0.12,0.07,0.98,1.89,3.36,1.22,982.96,31.12
5974664,-0.12,0.08,0.98,1.77,3.42,1.16,982.94,31.15
5974702,-0.12,0.08,0.98,1.77,3.48,1.16,983.0,31.14
5974740,-0.12,0.08,0.98,1.95,3.72,1.22,982.93,31.13
5974778,-0.13,0.09,0.98,1.89,3.36,1.22,982.96,31.13
5974816,-0.12,0.08,0.99,1.89,3.3,0.98,982.96,31.14
5974854,-0.12,0.07,0.98,1.89,3.42,1.28,983.01,31.15
5974892,-0.12,0.08,0.98,2.01,3.48,1.34,982.95,31.14
5974930,-0.12,0.07,0.98,1.83,3.42,1.1,982.95,31.15
5974968,-0.12,0.07,0.98,1.83,3.54,1.34,982.99,31.14
5975018,-0.13,0.07,0.98,1.89,3.36,1.28,982.93,31.13
5975056,-0.12,0.07,0.98,1.89,3.48,1.34,982.97,31.14
5975094,-0.12,0.07,0.98,1.83,3.23,1.28,982.96,31.14
5975133,-0.12,0.08,0.99,1.83,3.54,1.16,982.94,31.14
5975171,-0.13,0.08,0.98,1.83,3.42,1.4,982.91,31.14
5975209,-0.13,0.08,0.98,1.95,3.36,1.4,982.96,31.15
5975247,-0.12,0.08,0.98,1.83,3.3,1.22,982.94,31.15
5975285,-0.12,0.08,0.98,1.71,3.42,1.16,982.93,31.14
5975323,-0.11,0.08,0.98,1.95,3.36,1.28,982.95,31.15
5975361,-0.12,0.08,0.98,1.71,3.48,1.28,982.94,31.14
5975411,-0.12,0.07,0.98,1.95,3.6,1.28,982.95,31.13
5975449,-0.12,0.07,0.98,2.01,3.36,1.16,982.97,31.15
5975487,-0.12,0.07,0.98,1.83,3.42,1.34,982.99,31.16
5975525,-0.12,0.07,0.98,1.83,3.54,1.46,982.91,31.15
5975563,-0.12,0.07,0.98,1.83,3.48,1.28,982.92,31.14
5975601,-0.13,0.07,0.99,2.08,3.54,1.34,982.89,31.15
5975639,-0.12,0.07,0.98,1.89,3.6,1.16,982.93,31.15
5975678,-0.12,0.07,0.98,1.77,3.36,1.16,982.96,31.15
5975716,-0.11,0.07,0.98,1.83,3.6,1.28,982.99,31.16
5975754,-0.11,0.07,0.98,1.95,3.36,1.34,983.02,31.16
5975804,-0.12,0.07,0.98,1.95,3.23,1.16,982.93,31.14
5975842,-0.12,0.08,0.99,1.95,3.23,1.28,982.96,31.15
5975880,-0.12,0.09,0.99,1.95,3.54,1.4,982.97,31.15
5975918,-0.16,0.08,0.98,1.89,3.3,1.22,983.01,31.15
5975956,-0.14,0.08,0.98,1.89,3.3,1.16,983.0,31.15
5975994,-0.11,0.08,0.97,1.77,3.48,1.16,982.94,31.14
5976032,-0.11,0.08,0.98,1.89,3.42,1.28,982.96,31.15
5976070,-0.11,0.07,0.98,2.01,3.54,1.46,982.96,31.16
5976108,-0.12,0.07,0.98,1.89,3.3,1.34,982.9,31.14
5976146,-0.12,0.07,0.99,1.95,3.48,1.28,982.96,31.15
5976196,-0.13,0.08,0.98,1.89,3.36,1.4,982.95,31.14
5976234,-0.13,0.08,0.99,1.95,3.66,1.34,982.98,31.15
5976272,-0.13,0.07,0.98,1.89,3.6,1.28,982.97,31.15
5976310,-0.12,0.07,0.98,1.77,3.48,1.34,982.99,31.16
5976349,-0.12,0.07,0.98,1.95,3.36,1.34,982.99,31.15
5976387,-0.12,0.07,0.98,1.89,3.48,1.34,982.95,31.14
5976425,-0.11,0.07,0.98,2.08,3.66,1.34,982.96,31.16
5976463,-0.12,0.07,0.98,2.01,3.48,1.28,982.96,31.14
5976501,-0.12,0.07,0.99,1.95,3.48,1.34,982.99,31.15
5976539,-0.13,0.07,0.98,1.95,3.54,1.4,982.95,31.15
5976589,-0.12,0.08,0.98,2.01,3.36,1.34,982.9,31.13
5976627,-0.12,0.08,0.98,1.77,3.48,1.22,982.93,31.15
5976665,-0.12,0.08,0.98,1.89,3.42,1.04,982.92,31.15
5976703,-0.12,0.07,0.98,2.01,3.54,1.28,982.97,31.15
5976741,-0.12,0.07,0.99,1.83,3.42,1.16,982.96,31.15
5976779,-0.13,0.07,0.98,1.95,3.54,1.28,982.97,31.15
5976818,-0.13,0.07,0.98,1.83,3.54,1.34,982.99,31.15
5976856,-0.12,0.07,0.98,2.01,3.42,1.1,982.89,31.14
5976894,-0.12,0.08,0.98,1.95,3.3,1.28,982.99,31.15
5976932,-0.12,0.08,0.98,2.01,3.6,1.22,982.99,31.15
5976982,-0.12,0.08,0.99,1.77,3.54,1.34,982.92,31.13
5977020,-0.13,0.08,0.98,1.83,3.36,1.22,982.98,31.14
5977058,-0.13,0.07,0.98,1.77,3.48,1.16,982.96,31.15
5977096,-0.12,0.06,0.98,1.95,3.36,1.22,982.94,31.14
5977134,-0.11,0.07,0.98,2.08,3.36,1.16,982.91,31.14
5977172,-0.12,0.07,0.99,1.89,3.48,1.28,982.94,31.14
5977210,-0.12,0.07,0.99,1.77,3.36,1.28,982.96,31.15
5977248,-0.13,0.07,0.99,1.89,3.36,1.28,982.9,31.15
5977286,-0.12,0.07,0.98,1.95,3.6,1.22,982.95,31.15
5977436,-0.12,0.09,0.99,1.95,3.48,1.28,982.95,31.08
5977474,-0.11,0.09,0.99,1.71,3.48,1.28,982.94,31.1
5977513,-0.12,0.08,0.97,1.83,3.36,1.28,982.95,31.11
5977602,-0.12,0.07,0.98,2.2,3.42,1.34,982.97,31.08
5977640,-0.13,0.06,0.99,2.01,3.3,1.28,982.95,31.1
5977678,-0.13,0.06,0.99,1.89,3.23,1.34,982.96,31.11
5977716,-0.12,0.06,0.99,1.83,3.6,1.34,982.95,31.1
5977754,-0.13,0.07,0.99,1.89,3.6,1.28,982.97,31.12
5977793,-0.12,0.07,0.98,1.83,3.54,1.22,982.89,31.13
5977831,-0.11,0.05,0.99,1.77,3.42,1.28,982.97,31.12
5977880,-0.09,0.06,0.97,1.95,3.23,1.28,982.93,31.12
5977919,-0.13,0.08,0.99,2.01,3.36,1.22,982.92,31.12
5977957,-0.14,0.09,0.99,2.2,3.11,0.98,982.98,31.14
5977995,-0.13,0.1,1.01,2.14,3.54,1.34,982.95,31.13
5978033,-0.12,0.1,0.98,1.83,3.42,1.28,982.96,31.13
5978071,-0.13,0.08,0.97,1.46,3.72,1.1,982.97,31.13
5978109,-0.12,0.07,0.97,1.77,3.48,1.22,982.98,31.13
5978147,-0.11,0.05,0.98,2.08,3.48,1.28,982.91,31.13
5978185,-0.11,0.06,0.98,2.2,3.23,1.22,982.95,31.14
5978224,-0.12,0.06,0.97,2.01,3.36,1.34,982.97,31.14
5978273,-0.13,0.08,1.0,2.08,3.6,1.4,982.92,31.12
5978311,-0.14,0.09,0.99,1.95,3.97,1.28,982.91,31.14
5978350,-0.13,0.1,0.98,1.95,3.78,1.28,983.0,31.14
5978388,-0.11,0.09,0.97,1.77,3.54,1.22,982.95,31.14
5978426,-0.11,0.09,0.98,1.83,3.36,1.22,982.99,31.15
5978464,-0.11,0.09,0.97,2.08,3.48,1.34,982.97,31.14
5978502,-0.11,0.07,0.98,2.08,3.23,1.34,982.92,31.14
5978540,-0.12,0.06,0.99,2.14,3.17,1.28,982.94,31.15
5978578,-0.14,0.06,0.99,1.95,3.54,1.28,982.97,31.14
5978616,-0.13,0.06,0.98,1.77,3.6,1.53,982.94,31.14
5978666,-0.13,0.07,0.97,1.95,3.54,1.4,982.98,31.13
5978704,-0.12,0.08,0.98,1.89,3.3,1.22,982.96,31.14
5978742,-0.12,0.08,0.98,1.95,3.48,1.4,982.97,31.14
5978780,-0.12,0.08,0.98,2.14,3.48,1.22,982.89,31.14
5978819,-0.11,0.07,0.97,1.89,3.36,1.16,982.95,31.14
5978857,-0.12,0.07,0.98,2.01,3.36,1.16,982.93,31.15
5978895,-0.11,0.07,0.98,2.01,3.6,1.28,982.97,31.15
5978933,-0.12,0.07,0.98,1.95,3.66,1.34,982.99,31.15
5978971,-0.14,0.07,0.98,1.77,3.6,1.34,982.95,31.16
5979009,-0.12,0.07,0.98,1.77,3.42,1.34,982.96,31.16
5979059,-0.12,0.08,0.98,1.83,3.42,1.28,982.91,31.14
5979097,-0.12,0.08,0.98,2.01,3.42,1.4,982.92,31.14
5979135,-0.12,0.08,0.98,1.89,3.23,1.28,982.94,31.14
5979173,-0.12,0.08,0.98,1.77,3.42,1.16,982.93,31.15
5979211,-0.12,0.08,0.99,2.01,3.17,1.28,982.97,31.15
5979250,-0.11,0.07,0.98,2.01,3.42,1.16,982.91,31.15
5979288,-0.12,0.07,0.98,1.77,3.23,1.16,982.93,31.15
5979326,-0.12,0.08,0.98,1.89,3.48,1.28,982.96,31.16
5979364,-0.12,0.08,0.98,1.95,3.54,1.34,983.0,31.17
5979402,-0.13,0.08,0.98,2.01,3.54,1.28,982.92,31.15
5979452,-0.12,0.08,0.98,1.83,3.66,1.34,982.93,31.14
5979490,-0.11,0.07,0.98,1.89,3.48,1.28,982.95,31.15
5979528,-0.11,0.07,0.99,1.95,3.3,1.28,982.94,31.14
5979566,-0.13,0.06,0.98,1.89,3.72,1.34,983.0,31.17
5979605,-0.13,0.07,0.99,1.89,3.48,1.4,982.97,31.15
5979643,-0.13,0.06,0.98,2.01,3.54,1.4,982.97,31.16
5979681,-0.13,0.07,0.99,1.89,3.23,1.28,982.96,31.16
5979719,-0.12,0.07,0.98,1.95,3.42,1.28,982.92,31.14
5979757,-0.12,0.08,0.99,1.83,3.42,1.22,982.96,31.15
5979807,-0.12,0.08,0.99,1.95,3.3,1.28,982.92,31.14
5979845,-0.12,0.08,0.98,1.83,3.66,1.16,982.95,31.15
5979883,-0.12,0.07,0.98,1.95,3.3,1.22,982.9,31.14
5979921,-0.12,0.08,0.98,1.77,3.6,1.22,982.96,31.15
5979959,-0.12,0.08,0.98,1.89,3.23,1.34,982.98,31.15
5979998,-0.12,0.08,0.98,1.89,3.48,1.34,982.88,31.14
5980036,-0.12,0.07,0.98,2.14,3.48,1.22,982.95,31.15
5980074,-0.12,0.07,0.98,1.95,3.48,1.34,982.91,31.14
5980112,-0.12,0.07,0.99,2.08,3.42,1.28,982.95,31.15
5980150,-0.12,0.07,0.98,1.83,3.6,1.16,982.88,31.15
5980200,-0.13,0.07,0.98,1.83,3.6,1.34,982.97,31.13
5980238,-0.13,0.08,0.98,1.89,3.36,1.16,982.94,31.15
5980276,-0.12,0.08,0.98,1.89,3.36,1.22,982.93,31.15
5980314,-0.12,0.08,0.98,1.83,3.11,1.22,982.97,31.14
5980352,-0.12,0.07,0.98,1.77,3.66,1.16,982.95,31.15
5980390,-0.12,0.07,0.98,1.89,3.11,1.4,982.97,31.15
5980429,-0.12,0.07,0.98,1.89,3.36,1.28,982.97,31.17
5980467,-0.13,0.07,0.99,1.95,3.23,1.28,982.96,31.15
5980505,-0.13,0.08,0.98,1.77,3.42,1.04,982.91,31.17
5980543,-0.12,0.08,0.97,2.08,3.11,1.28,982.92,31.15
5980619,-0.12,0.08,0.99,2.01,3.48,1.28,982.96,31.13
5980657,-0.13,0.08,0.98,2.2,3.36,1.28,982.94,31.13
5980695,-0.13,0.08,0.99,2.08,3.6,1.34,982.98,31.15
5980784,-0.12,0.06,0.97,1.95,3.66,1.46,982.91,31.1
5980823,-0.12,0.06,0.97,1.83,3.54,1.4,982.98,31.13
5980861,-0.12,0.07,0.98,2.01,3.6,1.34,982.92,31.13
5980899,-0.13,0.07,0.99,1.83,3.66,1.4,982.95,31.13
5980937,-0.12,0.07,0.99,1.71,3.78,1.34,982.97,31.14
5980975,-0.12,0.07,0.97,1.71,3.6,1.16,983.0,31.15
5981013,-0.11,0.07,0.97,1.59,3.54,1.1,982.93,31.14
5981063,-0.12,0.07,0.99,1.4,3.23,1.28,983.01,31.13
5981101,-0.12,0.07,1.0,1.65,3.42,1.22,983.0,31.14
5981139,-0.13,0.07,0.98,1.89,3.48,1.16,982.96,31.14
5981177,-0.12,0.08,0.95,1.89,3.48,1.34,983.01,31.15
5981216,-0.12,0.09,0.98,1.83,3.23,1.22,982.97,31.15
5981254,-0.12,0.09,0.99,1.95,3.36,1.22,982.9,31.14
5981292,-0.12,0.07,0.99,2.08,3.3,1.16,982.93,31.14
5981330,-0.13,0.07,0.97,2.14,3.54,1.16,983.01,31.15
5981368,-0.13,0.07,0.99,2.01,3.3,1.16,982.96,31.15
5981406,-0.11,0.07,1.0,1.95,3.48,1.34,982.91,31.15
5981456,-0.12,0.07,0.97,1.77,3.78,1.16,982.98,31.15
5981494,-0.13,0.06,0.96,1.71,3.48,1.16,983.01,31.15
5981532,-0.12,0.07,0.97,1.83,3.54,1.16,982.98,31.15
5981570,-0.13,0.08,1.01,2.32,3.23,1.28,982.99,31.15
5981609,-0.12,0.1,0.99,2.26,3.54,1.22,982.96,31.17
5981647,-0.12,0.1,0.98,2.2,3.66,1.34,982.92,31.15
5981685,-0.12,0.08,0.97,2.14,3.42,1.1,982.96,31.17
5981723,-0.08,0.07,0.97,2.32,3.36,1.22,982.99,31.15
5981761,-0.12,0.07,0.99,1.89,3.36,1.16,982.89,31.15
5981799,-0.09,0.06,1.0,1.77,3.11,1.34,982.94,31.15
5981849,-0.11,0.06,0.98,1.95,3.3,1.28,982.98,31.16
5981887,-0.15,0.07,0.97,1.65,3.42,1.46,983.01,31.15
5981925,-0.12,0.07,0.97,1.83,3.54,1.34,982.98,31.17
5981963,-0.12,0.07,0.98,1.53,3.48,1.28,982.95,31.15
5982001,-0.12,0.07,0.99,1.71,3.11,1.1,982.98,31.14
5982040,-0.14,0.07,0.98,1.59,3.3,1.1,982.97,31.15
5982078,-0.13,0.08,0.99,1.59,3.3,1.16,982.95,31.15
5982116,-0.12,0.08,1.0,2.01,3.6,1.16,983.0,31.17
5982154,-0.12,0.08,0.99,2.08,3.66,1.22,982.97,31.16
5982192,-0.12,0.08,0.97,2.01,3.97,1.1,982.95,31.16
5982242,-0.13,0.07,0.96,1.95,3.78,1.28,982.97,31.15
5982280,-0.13,0.08,0.98,1.95,3.36,1.34,983.01,31.16
5982318,-0.12,0.08,0.99,1.77,3.11,1.34,982.93,31.16
5982356,-0.13,0.08,1.0,2.01,3.23,1.34,982.91,31.15
5982394,-0.12,0.08,0.98,1.89,3.66,1.34,982.97,31.17
5982432,-0.13,0.07,0.98,1.77,3.54,1.28,982.94,31.17
5982470,-0.13,0.07,0.98,1.83,3.54,1.34,982.94,31.17
5982509,-0.13,0.07,0.97,1.65,3.48,1.16,982.95,31.17
5982547,-0.13,0.07,0.97,1.77,3.11,1.22,982.92,31.17
5982596,-0.11,0.08,0.99,1.95,3.3,1.1,982.98,31.15
5982635,-0.11,0.08,1.0,2.44,3.11,1.16,982.96,31.17
5982673,-0.11,0.07,0.99,2.08,3.23,1.16,982.94,31.15
5982711,-0.12,0.07,0.99,1.89,3.78,1.16,982.93,31.17
5982749,-0.13,0.07,0.97,2.08,3.66,1.34,982.96,31.15
5982787,-0.14,0.07,0.96,1.89,3.3,1.22,982.96,31.17
5982825,-0.14,0.07,0.97,1.95,3.54,1.28,982.94,31.17
5982863,-0.13,0.08,0.98,1.71,3.42,1.46,982.97,31.16
5982902,-0.12,0.08,1.0,1.77,3.3,1.34,982.91,31.15
5982940,-0.12,0.07,0.98,1.77,3.66,1.22,982.94,31.16
5982989,-0.11,0.07,0.99,1.83,3.6,1.1,982.97,31.16
5983028,-0.11,0.07,0.98,1.89,3.91,1.22,982.94,31.16
5983066,-0.11,0.07,0.98,1.89,3.66,1.22,982.96,31.16
5983104,-0.12,0.07,0.98,2.01,3.48,1.16,982.98,31.16
5983142,-0.13,0.07,0.98,2.01,3.23,1.34,982.95,31.15
5983180,-0.12,0.07,0.98,1.89,3.48,1.34,982.94,31.16
5983218,-0.12,0.08,0.98,1.65,3.85,1.34,982.96,31.18
5983256,-0.12,0.09,0.99,1.53,3.42,1.16,982.95,31.17
5983294,-0.12,0.08,0.98,1.65,3.36,1.16,982.99,31.17
5983332,-0.13,0.07,0.97,1.59,3.23,1.16,982.99,31.18
5983382,-0.12,0.07,0.97,1.95,3.54,1.04,982.96,31.16
5983420,-0.12,0.07,1.0,1.95,2.99,1.22,982.93,31.16
5983459,-0.12,0.07,1.0,2.01,3.17,1.22,982.98,31.16
5983497,-0.13,0.08,0.98,1.89,3.66,1.22,982.94,31.16
5983535,-0.13,0.08,0.97,2.01,3.66,1.28,982.97,31.16
5983573,-0.13,0.08,0.98,2.01,3.54,1.28,982.93,31.16
5983611,-0.13,0.07,0.99,1.89,3.42,1.28,983.0,31.17
5983649,-0.13,0.07,0.99,1.83,3.54,1.16,982.97,31.16
5983687,-0.12,0.08,0.97,1.89,3.36,1.28,982.91,31.17
5983725,-0.12,0.07,0.97,1.65,3.54,1.16,982.94,31.17
5983801,-0.12,0.07,1.0,1.89,3.91,1.16,982.94,31.13
5983839,-0.12,0.07,0.98,2.01,3.85,1.34,983.03,31.16
5983877,-0.12,0.07,0.97,2.2,3.6,1.16,982.97,31.15
5983967,-0.13,0.08,1.0,1.89,3.36,1.28,982.92,31.12
5984005,-0.13,0.07,0.98,1.83,3.42,1.28,982.91,31.13
5984043,-0.12,0.07,0.97,1.71,3.23,1.34,982.92,31.13
5984081,-0.11,0.07,0.98,1.77,3.3,1.28,982.94,31.15
5984119,-0.12,0.07,0.99,1.71,3.3,1.34,982.95,31.15
5984157,-0.13,0.07,0.98,1.89,3.54,1.28,982.98,31.16
5984196,-0.13,0.08,0.96,2.14,3.17,1.28,982.96,31.15
5984245,-0.12,0.08,0.99,2.14,3.54,1.4,982.9,31.14
5984283,-0.12,0.08,1.0,1.89,3.48,1.16,982.96,31.15
5984322,-0.12,0.07,0.99,1.65,3.6,1.22,982.94,31.15
5984360,-0.13,0.06,0.96,1.77,3.78,1.22,982.94,31.15
5984398,-0.12,0.07,0.99,1.95,3.23,1.22,982.92,31.15
5984436,-0.11,0.08,1.0,2.01,3.66,1.22,983.01,31.17
5984474,-0.13,0.08,0.99,1.77,3.91,1.22,982.93,31.16
5984512,-0.13,0.09,0.98,1.77,3.78,1.1,982.94,31.17
5984550,-0.13,0.07,0.97,1.95,3.66,1.28,982.91,31.15
5984588,-0.12,0.08,0.99,2.14,3.48,1.28,982.93,31.15
5984638,-0.12,0.07,0.99,2.14,3.6,1.28,982.95,31.15
5984676,-0.12,0.07,0.98,1.95,3.66,1.34,982.97,31.16
5984714,-0.11,0.07,0.98,2.01,3.42,1.34,982.93,31.17
5984753,-0.11,0.06,0.98,1.83,3.54,1.34,983.01,31.16
5984791,-0.12,0.07,0.98,1.77,3.48,1.34,982.97,31.17
5984829,-0.11,0.07,0.96,1.59,3.6,1.34,983.01,31.16
5984867,-0.12,0.07,0.97,1.71,3.17,1.22,982.95,31.17
5984905,-0.14,0.08,1.0,1.89,2.87,1.28,982.92,31.17
5984943,-0.13,0.08,1.0,2.26,3.05,1.28,983.0,31.17
5984993,-0.13,0.07,0.98,2.2,3.36,1.04,982.95,31.16
5985031,-0.13,0.07,0.99,2.2,3.54,1.16,982.96,31.16
5985069,-0.11,0.06,0.97,2.01,3.42,1.28,982.96,31.17
5985107,-0.12,0.06,0.97,1.95,3.48,1.16,982.93,31.17
5985145,-0.12,0.07,0.97,1.65,3.6,1.28,982.95,31.16
5985183,-0.12,0.08,0.98,1.77,3.42,1.22,982.99,31.17
5985222,-0.13,0.08,0.99,1.34,3.48,1.16,982.99,31.18
5985260,-0.12,0.08,1.0,1.22,3.91,1.28,982.95,31.17
5985298,-0.13,0.08,1.0,1.46,3.72,1.16,982.94,31.17
5985336,-0.13,0.07,0.96,1.89,3.91,1.16,982.97,31.17
5985386,-0.11,0.07,0.96,2.01,3.54,1.22,983.01,31.17
5985424,-0.11,0.09,1.01,2.08,3.17,1.16,982.95,31.17
5985462,-0.11,0.07,1.01,1.89,3.3,1.28,982.9,31.16
5985500,-0.11,0.07,0.98,1.53,3.66,1.22,982.96,31.18
5985538,-0.11,0.08,0.97,1.46,3.36,1.28,982.95,31.18
5985576,-0.11,0.07,0.98,1.59,3.42,1.4,982.96,31.17
5985614,-0.13,0.07,0.98,1.83,3.17,1.28,982.93,31.17
5985653,-0.16,0.07,0.98,1.77,3.11,1.53,982.97,31.18
5985691,-0.14,0.08,0.98,1.83,3.11,1.46,982.93,31.17
5985729,-0.12,0.08,0.97,1.59,3.11,1.34,982.98,31.18
5985779,-0.11,0.09,0.98,1.95,3.42,1.16,982.91,31.16
5985817,-0.11,0.08,0.97,1.89,3.6,0.92,982.97,31.16
5985855,-0.11,0.07,0.99,2.01,3.54,1.04,982.95,31.17
5985893,-0.16,0.07,0.98,1.71,3.48,0.92,982.95,31.17
5985931,-0.13,0.08,0.98,1.77,3.72,1.1,982.92,31.17
5985969,-0.13,0.09,0.97,1.95,3.66,1.04,982.93,31.17
5986008,-0.13,0.08,0.97,2.08,3.6,1.28,982.91,31.17
5986046,-0.13,0.08,0.99,2.01,3.85,1.16,982.99,31.17
5986084,-0.12,0.08,0.99,1.89,3.66,1.22,982.99,31.17
5986122,-0.12,0.08,0.99,1.83,3.72,1.22,982.94,31.17
5986172,-0.1,0.07,0.98,1.71,3.85,1.28,982.92,31.14
5986210,-0.1,0.07,0.98,1.83,3.48,1.22,982.93,31.16
5986248,-0.12,0.07,0.99,2.01,3.54,1.28,982.96,31.16
5986286,-0.13,0.07,0.98,2.01,3.66,1.16,982.93,31.16
5986324,-0.13,0.07,0.99,1.83,3.48,1.1,982.99,31.17
5986362,-0.13,0.07,0.98,1.89,3.42,1.28,982.93,31.17
5986400,-0.12,0.07,0.98,1.71,3.05,1.16,982.95,31.16
5986439,-0.11,0.07,0.98,1.77,3.3,1.28,982.94,31.16
5986477,-0.11,0.08,0.98,2.01,3.36,1.16,982.96,31.17
5986515,-0.12,0.08,0.98,1.83,3.3,1.22,982.98,31.16
5986565,-0.12,0.07,0.99,1.77,3.23,1.28,983.0,31.17
5986603,-0.13,0.07,0.98,1.71,3.6,1.28,982.99,31.16
5986641,-0.13,0.08,0.97,1.89,3.36,1.16,982.97,31.16
5986679,-0.13,0.08,0.97,1.89,3.36,1.34,982.91,31.17
5986717,-0.12,0.08,0.99,1.89,3.6,1.28,983.05,31.16
5986755,-0.13,0.08,0.99,1.77,3.54,1.28,982.93,31.16
5986793,-0.12,0.08,0.99,2.01,3.72,1.28,982.95,31.16
5986831,-0.12,0.07,0.98,1.71,3.66,1.1,982.98,31.17
5986870,-0.12,0.08,0.98,1.83,3.72,1.22,982.94,31.16
5986908,-0.12,0.08,0.97,1.95,3.78,1.1,982.99,31.16
5986983,-0.12,0.08,0.99,1.95,3.48,1.28,982.97,31.14
5987022,-0.12,0.07,0.99,1.83,3.54,1.28,982.96,31.15
5987060,-0.12,0.08,0.97,1.71,3.36,1.34,982.98,31.15
5987149,-0.12,0.07,0.98,1.83,3.36,1.22,982.96,31.12
5987187,-0.12,0.07,0.98,2.01,3.42,1.16,982.94,31.14
5987226,-0.12,0.07,0.99,2.01,3.36,1.22,982.94,31.13
5987264,-0.12,0.07,0.98,1.71,3.48,1.22,982.99,31.14
5987302,-0.12,0.08,0.98,1.89,3.48,1.28,982.94,31.15
5987340,-0.12,0.08,0.98,1.89,3.48,1.28,982.98,31.14
5987378,-0.13,0.08,0.98,1.77,3.48,1.34,982.96,31.15
5987428,-0.13,0.08,0.98,1.83,3.36,1.34,982.94,31.14
5987466,-0.13,0.08,0.98,1.77,3.54,1.04,982.97,31.14
5987504,-0.12,0.08,0.98,2.08,3.6,1.22,982.89,31.14
5987542,-0.12,0.08,0.98,2.01,3.42,1.28,982.96,31.14
5987580,-0.12,0.07,0.98,2.08,3.6,1.28,982.97,31.15
5987619,-0.12,0.07,0.98,1.83,3.6,1.34,982.97,31.15
5987657,-0.12,0.07,0.98,1.83,3.42,1.1,982.99,31.15
5987695,-0.12,0.07,0.99,1.83,3.42,1.34,982.94,31.15
5987733,-0.12,0.08,0.98,1.89,3.54,1.22,982.93,31.16
5987783,-0.12,0.08,0.98,1.83,3.6,1.34,982.99,31.15
5987821,-0.12,0.08,0.98,2.01,3.23,1.16,982.94,31.15
5987859,-0.12,0.08,0.98,1.89,3.42,1.16,982.93,31.14
5987897,-0.12,0.08,0.98,2.01,3.3,1.28,982.92,31.15
5987935,-0.12,0.07,0.98,1.71,3.42,1.22,982.96,31.15
5987974,-0.12,0.07,0.98,1.89,3.3,1.28,982.99,31.16
5988012,-0.12,0.07,0.98,1.83,3.42,1.34,982.99,31.16
5988050,-0.12,0.07,0.98,1.83,3.48,1.16,982.97,31.16
5988088,-0.13,0.08,0.98,1.83,3.48,1.22,982.9,31.15
5988126,-0.12,0.08,0.98,2.01,3.42,1.16,982.95,31.17
5988176,-0.12,0.08,0.98,1.95,3.42,1.1,982.97,31.16
5988214,-0.12,0.08,0.98,1.95,3.6,1.28,982.94,31.15
5988252,-0.12,0.07,0.98,2.01,3.6,1.16,982.97,31.15
5988290,-0.12,0.07,0.98,1.89,3.6,1.28,982.93,31.15
5988328,-0.12,0.08,0.98,1.95,3.48,1.28,983.0,31.16
5988367,-0.12,0.08,0.98,1.95,3.48,1.22,982.97,31.16
5988405,-0.12,0.08,0.98,1.89,3.48,1.1,982.97,31.17
5988443,-0.12,0.08,0.98,1.83,3.6,1.04,982.93,31.15
5988481,-0.12,0.07,0.98,1.77,3.54,1.34,982.95,31.16
5988519,-0.12,0.07,0.98,1.71,3.48,1.16,983.0,31.17
5988569,-0.12,0.08,0.98,1.89,3.48,1.16,982.98,31.15
5988607,-0.12,0.08,0.98,1.77,3.42,1.22,982.95,31.15
5988645,-0.12,0.08,0.98,1.71,3.48,1.22,982.96,31.16
5988683,-0.12,0.08,0.98,1.65,3.36,1.4,982.88,31.15
5988721,-0.12,0.08,0.98,1.89,3.3,1.16,982.96,31.16
5988760,-0.12,0.08,0.98,1.89,3.48,1.22,982.93,31.16
5988798,-0.12,0.08,0.98,1.89,3.48,1.16,982.97,31.15
5988836,-0.12,0.08,0.98,1.77,3.17,1.28,982.95,31.17
5988874,-0.12,0.07,0.98,1.89,3.36,1.16,982.87,31.16
5988912,-0.12,0.07,0.98,1.89,3.48,1.28,982.95,31.17
5988962,-0.12,0.08,0.98,1.95,3.66,1.28,983.0,31.16
5989000,-0.12,0.08,0.98,1.95,3.54,1.28,982.91,31.17
5989038,-0.12,0.08,0.98,1.77,3.48,1.34,982.96,31.18
5989076,-0.12,0.07,0.98,1.95,3.48,1.16,982.97,31.16
5989114,-0.12,0.07,0.98,1.83,3.6,1.22,982.97,31.18
5989152,-0.12,0.07,0.98,1.95,3.48,1.16,982.96,31.16
5989190,-0.12,0.06,0.98,1.95,3.54,1.1,982.91,31.17
5989229,-0.09,0.07,0.98,2.14,3.11,1.4,982.94,31.16
5989267,-0.13,0.07,0.99,1.71,3.48,1.28,982.99,31.17
5989305,-0.13,0.08,0.98,1.71,3.6,1.28,982.91,31.17
5989355,-0.11,0.07,0.96,1.77,3.54,1.34,982.94,31.15
5989393,-0.13,0.09,0.95,2.2,3.72,1.22,982.98,31.18
5989431,-0.13,0.03,0.99,2.5,3.11,1.28,982.95,31.16
5989469,-0.1,0.09,1.03,1.77,2.99,1.22,982.99,31.16
5989507,-0.11,0.06,0.98,1.46,3.48,1.22,982.91,31.16
5989545,-0.11,0.07,0.96,1.53,3.66,1.4,982.98,31.17
5989584,-0.13,0.07,0.96,1.95,3.91,1.22,982.98,31.18
5989622,-0.12,0.07,0.95,2.08,3.48,1.4,982.98,31.17
5989660,-0.11,0.08,1.0,2.01,3.54,1.4,982.96,31.18
5989698,-0.14,0.07,0.99,1.83,3.42,1.4,983.0,31.17
5989748,-0.11,0.08,0.97,1.77,3.48,1.22,982.94,31.16
5989786,-0.12,0.09,0.99,1.89,2.87,1.28,982.91,31.17
5989824,-0.12,0.07,0.95,1.95,4.39,1.16,982.99,31.16
5989862,-0.11,0.07,1.0,1.89,2.99,1.28,982.93,31.17
5989900,-0.13,0.06,0.98,1.77,3.6,1.34,982.94,31.17
5989939,-0.13,0.08,0.97,1.77,3.17,1.4,982.94,31.16
5989977,-0.12,0.08,0.97,1.89,3.91,1.34,982.95,31.17
5990015,-0.11,0.08,0.99,2.01,2.87,1.16,982.93,31.17
5990053,-0.13,0.09,0.98,2.2,3.91,1.1,983.01,31.17
5990129,-0.12,0.07,0.99,1.53,3.66,1.28,982.96,31.15
5990167,-0.13,0.07,0.97,1.83,3.36,1.22,982.91,31.14
5990205,-0.12,0.08,0.97,2.08,3.66,1.22,982.93,31.15
5990294,-0.13,0.08,0.97,1.95,3.78,1.28,982.97,31.12
5990333,-0.13,0.07,1.0,2.01,3.23,1.34,982.9,31.13
5990371,-0.13,0.07,0.97,1.77,3.66,1.34,982.91,31.14
5990409,-0.12,0.07,0.99,2.01,3.48,1.34,982.99,31.15
5990447,-0.11,0.07,0.97,1.83,3.42,1.22,982.94,31.14
5990485,-0.11,0.08,0.99,2.01,3.42,1.28,983.0,31.16
5990523,-0.13,0.08,0.98,1.89,3.54,1.22,982.83,31.13
5990573,-0.13,0.08,0.98,1.89,3.42,1.34,982.95,31.14
5990611,-0.13,0.07,0.98,1.89,3.36,1.22,982.95,31.15
5990649,-0.12,0.08,0.98,2.01,3.54,1.22,982.94,31.15
5990687,-0.11,0.08,0.98,1.95,3.23,1.22,982.95,31.15
5990725,-0.12,0.07,0.98,1.89,3.6,1.16,982.94,31.15
5990764,-0.13,0.07,0.98,1.83,3.36,1.22,982.95,31.16
5990802,-0.13,0.08,0.98,1.77,3.54,1.34,982.89,31.15
5990840,-0.12,0.08,0.99,1.95,3.42,1.16,982.97,31.16
5990878,-0.12,0.08,0.98,1.71,3.6,1.34,982.94,31.15
5990916,-0.12,0.07,0.98,1.71,3.36,1.28,982.97,31.16
5990966,-0.12,0.07,0.98,1.89,3.48,1.22,982.94,31.15
5991004,-0.12,0.08,0.99,2.01,3.54,1.16,982.98,31.15
5991042,-0.12,0.08,0.99,1.83,3.48,1.28,983.02,31.17
5991080,-0.12,0.08,0.99,1.95,3.6,1.34,982.98,31.16
5991118,-0.12,0.07,0.97,1.77,3.48,1.34,983.0,31.17
5991157,-0.12,0.07,0.98,1.89,3.48,1.28,982.93,31.17
5991195,-0.12,0.07,0.98,2.08,3.36,1.28,982.97,31.16
5991233,-0.12,0.07,0.99,1.95,3.48,1.22,982.98,31.17
5991271,-0.12,0.08,0.99,1.83,3.42,1.28,982.95,31.16
5991309,-0.12,0.08,0.98,1.71,3.48,1.28,982.98,31.17
5991359,-0.12,0.08,0.98,1.83,3.36,1.34,982.93,31.16
5991397,-0.12,0.07,0.98,1.89,3.6,1.34,982.97,31.17
5991435,-0.12,0.07,0.99,1.83,3.36,1.22,982.98,31.17
5991473,-0.12,0.08,0.98,1.83,3.42,1.16,982.95,31.18
5991511,-0.12,0.08,0.98,1.77,3.42,1.16,983.03,31.17
5991550,-0.12,0.08,0.98,1.95,3.54,1.22,983.02,31.17
5991588,-0.12,0.08,0.98,2.01,3.48,1.28,982.97,31.16
5991626,-0.12,0.07,0.98,2.01,3.36,1.22,982.97,31.17
5991664,-0.12,0.07,0.98,1.95,3.54,1.16,983.01,31.19
5991702,-0.12,0.07,0.98,2.01,3.54,1.34,982.95,31.17
5991752,-0.12,0.08,0.98,1.83,3.48,1.16,982.96,31.15
5991790,-0.12,0.08,0.98,2.01,3.54,1.28,983.0,31.17
5991828,-0.12,0.07,0.98,1.77,3.42,1.1,982.92,31.17
5991866,-0.12,0.07,0.98,1.83,3.54,1.16,982.92,31.18
5991905,-0.12,0.07,0.98,1.77,3.48,1.34,982.94,31.17
5991943,-0.12,0.08,0.98,1.83,3.42,1.22,982.97,31.17
5991981,-0.12,0.08,0.98,2.08,3.54,1.28,982.91,31.17
5992019,-0.12,0.08,0.98,2.08,3.42,1.22,982.91,31.17
5992057,-0.12,0.07,0.98,1.83,3.6,1.16,982.93,31.19
5992095,-0.12,0.07,0.98,1.77,3.48,1.28,983.0,31.18
5992145,-0.12,0.08,0.98,1.83,3.36,1.34,982.96,31.16
5992183,-0.12,0.08,0.98,1.95,3.42,1.1,982.98,31.17
5992221,-0.12,0.08,0.98,1.95,3.42,1.22,982.92,31.18
5992259,-0.12,0.07,0.98,1.95,3.54,1.16,982.96,31.18
5992298,-0.13,0.07,0.98,1.89,3.42,1.28,982.97,31.18
5992336,-0.12,0.08,0.98,1.83,3.48,1.1,982.99,31.18
5992374,-0.12,0.08,0.98,1.89,3.42,1.16,982.93,31.18
5992412,-0.12,0.08,0.98,1.83,3.36,1.22,983.02,31.19
5992450,-0.12,0.08,0.98,1.95,3.42,1.28,982.96,31.18
5992488,-0.12,0.07,0.98,1.77,3.54,1.34,983.0,31.18
5992538,-0.12,0.08,0.98,1.89,3.42,1.28,982.93,31.17
5992576,-0.12,0.08,0.98,1.77,3.6,1.34,982.91,31.17
5992614,-0.12,0.08,0.98,1.95,3.6,1.16,982.96,31.18
5992652,-0.12,0.07,0.98,1.83,3.42,1.1,982.95,31.19
5992691,-0.12,0.07,0.98,1.95,3.54,1.1,982.98,31.19
5992729,-0.12,0.08,0.98,1.89,3.6,1.28,982.98,31.18
5992767,-0.12,0.08,0.98,1.83,3.48,1.16,982.95,31.19
5992805,-0.12,0.08,0.98,1.89,3.42,1.28,982.94,31.19
5992843,-0.12,0.08,0.98,2.01,3.48,1.34,982.99,31.2
5992893,-0.12,0.07,0.98,1.89,3.54,1.28,983.02,31.18
5992931,-0.12,0.08,0.98,1.95,3.36,1.28,982.93,31.18
5992969,-0.12,0.08,0.98,1.95,3.66,1.34,982.9,31.19
5993008,-0.12,0.08,0.98,1.89,3.42,1.16,982.97,31.19
5993046,-0.12,0.08,0.98,1.95,3.54,1.28,982.94,31.19
5993084,-0.12,0.07,0.98,1.83,3.54,1.16,982.94,31.18
5993122,-0.12,0.07,0.98,1.83,3.6,1.34,982.93,31.18
5993160,-0.12,0.08,0.98,1.83,3.48,1.22,983.02,31.2
5993198,-0.12,0.08,0.98,1.77,3.36,1.16,982.88,31.19
5993237,-0.12,0.08,0.98,1.95,3.54,1.22,982.96,31.2
5993312,-0.12,0.08,0.98,1.95,3.54,1.28,982.96,31.15
5993350,-0.12,0.08,0.98,2.01,3.36,1.28,982.93,31.16
5993389,-0.12,0.08,0.98,1.89,3.48,1.16,982.96,31.18
5993478,-0.12,0.08,0.98,1.77,3.36,1.16,982.93,31.14
5993516,-0.12,0.08,0.98,1.83,3.54,1.22,982.97,31.15
5993555,-0.12,0.07,0.98,1.95,3.48,1.28,982.98,31.17
5993593,-0.12,0.08,0.98,2.01,3.54,1.22,983.0,31.16
5993631,-0.12,0.08,0.98,1.83,3.6,1.28,982.95,31.16
5993669,-0.12,0.08,0.98,1.83,3.42,1.22,982.98,31.18
5993707,-0.12,0.08,0.98,1.89,3.36,1.16,982.95,31.17
5993757,-0.12,0.08,0.98,1.95,3.42,1.4,982.96,31.16
5993795,-0.12,0.08,0.98,1.77,3.42,1.28,982.93,31.17
5993833,-0.12,0.08,0.98,1.89,3.42,1.4,982.94,31.16
5993871,-0.12,0.08,0.98,1.83,3.6,1.16,982.97,31.18
5993910,-0.12,0.08,0.98,1.83,3.3,1.22,982.96,31.18
5993948,-0.12,0.08,0.98,1.89,3.6,1.22,982.94,31.17
5993986,-0.12,0.07,0.98,2.01,3.48,1.28,982.95,31.17
5994024,-0.12,0.08,0.98,1.89,3.42,1.16,982.94,31.18
5994062,-0.12,0.08,0.98,1.89,3.54,1.16,982.92,31.19
5994100,-0.12,0.08,0.98,1.95,3.54,1.22,982.96,31.19
5994150,-0.12,0.08,0.98,2.01,3.54,1.28,982.96,31.17
5994188,-0.12,0.07,0.98,1.83,3.23,1.28,982.95,31.18
5994226,-0.12,0.08,0.98,1.83,3.6,1.28,982.96,31.18
5994264,-0.12,0.08,0.98,1.95,3.54,1.28,982.95,31.17
5994303,-0.12,0.08,0.98,2.01,3.42,1.16,982.98,31.17
5994341,-0.12,0.08,0.98,1.89,3.36,1.16,982.96,31.18
5994379,-0.12,0.07,0.98,2.01,3.54,1.34,982.92,31.17
5994417,-0.12,0.08,0.98,1.89,3.48,1.22,982.99,31.18
5994455,-0.12,0.07,0.98,1.95,3.42,1.16,982.98,31.19
5994493,-0.12,0.08,0.98,1.95,3.42,1.28,982.98,31.19
5994543,-0.12,0.07,0.98,2.08,3.36,1.1,982.94,31.17
5994581,-0.12,0.08,0.98,1.89,3.6,1.22,983.01,31.18
5994619,-0.12,0.08,0.98,1.89,3.54,1.16,982.95,31.17
5994658,-0.12,0.07,0.98,1.83,3.48,1.16,982.96,31.18
5994696,-0.12,0.08,0.98,1.89,3.6,1.28,982.95,31.18
5994734,-0.12,0.08,0.98,1.89,3.54,1.1,982.93,31.18
5994772,-0.11,0.06,0.99,1.77,3.54,1.16,982.99,31.18
5994810,-0.11,0.07,0.98,1.89,3.3,1.34,983.01,31.18
5994848,-0.12,0.08,0.99,2.01,3.11,1.4,982.94,31.17
5994887,-0.13,0.08,0.98,1.83,3.23,1.22,982.92,31.19
5994936,-0.12,0.07,0.98,1.83,3.36,1.28,983.0,31.17
5994974,-0.13,0.08,0.98,1.89,3.6,1.28,982.95,31.17
5995013,-0.12,0.07,0.98,1.89,3.66,1.34,982.94,31.18
5995051,-0.12,0.07,0.98,1.83,3.3,1.28,982.96,31.19
5995089,-0.12,0.07,0.98,1.95,3.6,1.22,982.94,31.18
5995127,-0.12,0.08,0.98,1.89,3.42,1.53,982.92,31.18
5995165,-0.16,0.08,0.98,1.95,3.48,1.34,982.92,31.18
5995203,-0.12,0.08,0.98,1.89,3.48,1.22,982.97,31.18
5995241,-0.12,0.08,0.98,1.89,3.42,1.34,983.02,31.19
5995291,-0.12,0.07,0.99,1.95,3.42,1.16,982.92,31.18
5995329,-0.12,0.07,0.98,1.89,3.3,1.34,982.99,31.18
5995367,-0.12,0.08,0.98,1.89,3.54,1.1,982.94,31.18
5995405,-0.12,0.07,0.98,1.83,3.48,1.22,982.92,31.17
5995444,-0.12,0.07,0.98,1.83,3.42,1.28,982.96,31.19
5995482,-0.12,0.08,0.99,2.01,3.48,1.04,982.95,31.17
5995520,-0.13,0.08,0.98,1.89,3.48,1.1,982.92,31.17
5995558,-0.12,0.08,0.98,1.89,3.54,1.28,982.98,31.2
5995596,-0.12,0.07,0.98,1.89,3.48,1.16,982.9,31.18
5995634,-0.12,0.07,0.98,1.89,3.6,1.28,982.93,31.18
5995684,-0.12,0.08,0.98,1.95,3.48,1.22,982.98,31.18
5995722,-0.12,0.07,0.99,1.83,3.3,1.28,983.0,31.18
5995760,-0.13,0.07,0.98,1.83,3.48,1.22,982.97,31.18
5995798,-0.12,0.08,0.98,1.89,3.42,1.34,983.01,31.17
5995836,-0.12,0.07,0.98,1.95,3.48,1.28,982.95,31.18
5995875,-0.13,0.07,0.97,1.95,3.54,1.16,982.94,31.19
5995913,-0.13,0.08,0.99,1.95,3.48,1.34,982.98,31.18
5995951,-0.11,0.08,0.98,1.83,3.3,1.28,982.97,31.17
5995989,-0.12,0.07,0.98,1.83,3.54,1.16,982.95,31.18
5996027,-0.13,0.07,0.98,1.83,3.6,1.28,982.92,31.18
5996077,-0.11,0.08,0.98,1.77,3.54,1.34,982.96,31.17
5996115,-0.12,0.08,0.98,1.95,3.42,1.1,982.93,31.18
5996153,-0.13,0.08,0.98,1.83,3.48,1.28,982.98,31.2
5996191,-0.12,0.07,0.98,1.95,3.23,1.22,982.97,31.17
5996229,-0.12,0.07,0.99,1.95,3.3,1.28,982.95,31.17
5996268,-0.12,0.08,0.98,1.77,3.6,1.22,982.95,31.18
5996306,-0.12,0.08,0.97,1.89,3.48,1.22,983.03,31.19
5996344,-0.12,0.07,0.99,1.83,3.42,1.22,982.98,31.19
5996382,-0.13,0.07,0.99,1.83,3.48,1.04,982.91,31.18
5996420,-0.13,0.08,0.98,1.89,3.42,1.1,983.0,31.19
5996496,-0.12,0.08,0.99,2.01,3.36,1.34,982.94,31.17
5996534,-0.12,0.08,0.99,1.89,3.3,0.98,982.93,31.17
5996572,-0.13,0.07,0.98,1.83,3.48,1.28,982.91,31.18
5996661,-0.12,0.08,0.98,2.01,3.42,1.34,982.99,31.13
5996700,-0.12,0.08,0.98,1.89,3.36,1.34,982.92,31.16
5996738,-0.12,0.08,0.98,1.71,3.48,1.22,982.97,31.16
5996776,-0.12,0.07,0.99,1.83,3.36,1.16,982.96,31.17
5996814,-0.12,0.07,0.98,1.77,3.48,1.28,982.95,31.17
5996852,-0.12,0.07,0.98,1.89,3.54,1.22,982.94,31.17
5996890,-0.12,0.08,0.98,1.83,3.42,1.16,982.97,31.18
5996940,-0.12,0.08,0.98,1.77,3.42,1.34,982.97,31.17
5996978,-0.12,0.08,0.98,1.83,3.36,1.1,983.0,31.19
5997016,-0.12,0.08,0.98,1.95,3.42,1.22,982.96,31.17
5997054,-0.12,0.07,0.98,1.65,3.42,1.22,982.93,31.19
5997092,-0.12,0.08,0.98,1.89,3.3,1.22,982.93,31.18
5997131,-0.12,0.08,0.98,1.83,3.42,1.1,982.92,31.18
5997169,-0.12,0.08,0.98,1.95,3.36,1.22,982.92,31.19
5997207,-0.12,0.07,0.98,1.71,3.48,1.16,982.96,31.19
5997245,-0.12,0.07,0.98,1.89,3.36,1.28,982.92,31.19
5997283,-0.13,0.08,0.98,1.89,3.48,1.4,982.93,31.19
5997333,-0.12,0.08,0.98,1.89,3.42,1.16,982.97,31.18
5997371,-0.12,0.08,0.98,1.77,3.42,1.34,983.02,31.2
5997409,-0.12,0.08,0.98,1.89,3.54,1.28,982.94,31.2
5997447,-0.12,0.08,0.98,1.95,3.3,1.22,982.92,31.19
5997485,-0.12,0.08,0.99,1.77,3.36,1.28,982.96,31.18
5997524,-0.12,0.07,0.98,1.95,3.48,1.1,982.96,31.19
5997562,-0.05,0.22,0.85,2.08,4.33,0.55,982.96,31.19
5997600,0.05,-0.02,0.86,1.4,4.94,0.85,983.01,31.2
5997638,-0.15,0.1,1.04,1.95,2.32,1.1,982.98,31.2
5997676,-0.09,0.09,1.01,1.16,3.23,1.22,982.99,31.2
5997726,-0.13,0.08,0.96,1.83,3.91,0.98,982.91,31.18
5997764,-0.16,0.09,0.98,1.89,2.69,1.28,982.93,31.19
5997802,-0.11,0.08,0.97,2.01,3.17,1.4,982.96,31.18
5997840,-0.12,0.06,0.99,1.95,3.17,1.16,982.95,31.19
5997879,-0.12,0.07,1.0,1.95,3.17,1.22,983.0,31.2
5997917,-0.13,0.09,0.98,1.89,3.3,1.28,982.97,31.19
5997955,-0.11,0.08,0.96,1.71,3.91,1.16,982.94,31.19
5997993,-0.12,0.07,0.98,1.71,3.42,1.16,982.94,31.19
5998031,-0.14,0.08,0.99,2.14,3.42,1.4,982.91,31.19
5998081,-0.11,0.07,0.98,1.95,3.36,1.28,982.94,31.19
5998119,-0.12,0.08,0.98,1.65,3.17,1.4,982.95,31.18
5998157,-0.12,0.09,0.99,1.71,3.23,1.34,982.92,31.19
5998195,-0.11,0.08,0.98,1.89,3.54,1.4,982.97,31.19
5998233,-0.13,0.07,0.99,1.89,3.6,1.22,982.98,31.19
5998272,-0.14,0.07,0.98,1.83,3.6,1.4,983.0,31.19
5998310,-0.12,0.07,0.98,1.77,3.11,1.4,982.91,31.2
5998348,-0.12,0.08,0.98,2.01,3.48,1.4,982.97,31.19
5998386,-0.11,0.08,0.98,1.95,3.42,1.1,982.94,31.2
5998424,-0.12,0.08,0.99,1.95,3.3,1.16,982.95,31.2
5998474,-0.09,0.07,0.98,1.83,3.48,1.28,982.98,31.19
5998512,-0.13,0.07,0.98,1.95,3.23,1.22,982.94,31.19
5998550,-0.13,0.08,0.98,1.89,3.48,1.28,982.9,31.19
5998588,-0.11,0.08,0.98,1.89,3.48,1.34,982.97,31.2
5998626,-0.11,0.09,0.98,1.89,3.48,1.28,982.9,31.2
5998665,-0.14,0.08,0.98,1.95,3.23,1.22,983.02,31.19
5998703,-0.12,0.07,0.98,2.01,3.36,1.34,982.92,31.19
5998741,-0.12,0.07,0.98,1.83,3.42,1.34,982.99,31.2
5998779,-0.13,0.08,0.99,1.77,3.42,1.22,982.97,31.21
5998817,-0.13,0.08,0.98,2.01,3.6,1.34,982.97,31.2
5998867,-0.12,0.08,0.98,1.89,3.3,1.28,982.92,31.18
5998905,-0.13,0.08,0.99,2.01,3.48,1.34,982.96,31.2
5998943,-0.12,0.07,0.98,2.01,3.3,1.34,982.99,31.19
5998981,-0.12,0.07,0.99,1.77,3.6,1.22,982.92,31.19
5999019,-0.11,0.08,0.99,1.95,3.54,1.34,982.97,31.2
5999058,-0.12,0.08,0.98,1.89,3.54,1.22,982.95,31.19
5999096,-0.13,0.08,0.98,2.01,3.54,1.16,982.92,31.19
5999134,-0.13,0.08,0.98,1.71,3.48,1.22,982.91,31.19
5999172,-0.12,0.07,0.98,1.83,3.3,1.16,982.91,31.2
5999210,-0.12,0.07,0.98,1.95,3.3,1.16,982.98,31.21
5999260,-0.12,0.08,0.98,1.83,3.42,1.22,982.95,31.19
5999298,-0.12,0.07,0.98,1.83,3.36,1.22,982.95,31.19
5999336,-0.12,0.07,0.98,1.95,3.3,1.22,982.94,31.2
5999374,-0.13,0.08,0.98,1.95,3.42,1.22,983.0,31.2
5999412,-0.12,0.08,0.98,1.83,3.6,1.28,982.89,31.2
5999451,-0.12,0.08,0.98,1.95,3.42,1.1,982.94,31.19
5999489,-0.12,0.08,0.98,1.95,3.54,1.34,982.96,31.19
5999527,-0.12,0.08,0.98,1.77,3.54,1.22,982.95,31.2
5999565,-0.12,0.07,0.98,1.83,3.54,1.16,982.93,31.2
5999603,-0.12,0.07,0.98,1.83,3.36,1.34,982.93,31.2
5999732,-0.12,0.08,0.98,1.89,3.54,1.1,982.97,31.14
5999770,-0.12,0.08,0.98,1.89,3.54,1.16,982.92,31.15
5999809,-0.12,0.08,0.98,1.83,3.54,1.16,982.94,31.16
5999898,-0.12,0.08,0.98,1.89,3.48,1.4,982.94,31.13
5999936,-0.12,0.08,0.98,2.01,3.42,1.22,982.97,31.16
5999974,-0.13,0.08,0.98,1.77,3.54,1.16,982.96,31.16
6000013,-0.12,0.08,0.98,2.14,3.66,1.22,982.96,31.16
6000051,-0.12,0.08,0.98,1.89,3.48,1.28,982.89,31.17
6000089,-0.12,0.08,0.99,2.08,3.36,1.22,982.95,31.16
6000127,-0.12,0.08,0.98,1.71,3.72,1.22,982.96,31.17
6000177,-0.13,0.08,0.98,1.89,3.66,1.1,982.94,31.16
6000215,-0.12,0.08,0.98,1.95,3.36,1.16,982.98,31.17
6000253,-0.12,0.07,0.98,2.01,3.54,1.22,982.98,31.17
6000291,-0.13,0.08,0.98,1.95,3.66,1.16,982.99,31.18
6000330,-0.13,0.08,0.98,1.95,3.42,1.46,982.93,31.18
6000368,-0.12,0.07,0.98,1.89,3.48,1.28,982.92,31.17
6000406,-0.12,0.08,0.98,1.95,3.42,1.1,982.94,31.18
6000444,-0.12,0.08,0.98,1.95,3.6,1.4,982.94,31.18
6000482,-0.13,0.07,0.98,1.77,3.42,1.22,982.95,31.18
6000532,-0.12,0.08,0.98,1.95,3.48,1.22,982.87,31.17
6000570,-0.13,0.08,0.98,1.77,3.48,1.28,982.93,31.17
6000608,-0.12,0.08,0.98,1.95,3.42,1.28,982.98,31.19
6000646,-0.12,0.08,0.98,1.77,3.42,1.1,982.95,31.19
6000684,-0.12,0.08,0.98,1.89,3.3,1.28,982.95,31.18
6000723,-0.12,0.08,0.98,1.83,3.36,1.22,982.96,31.19
6000761,-0.12,0.08,0.98,2.01,3.54,1.16,982.94,31.18
6000799,-0.12,0.08,0.98,1.95,3.48,1.28,982.92,31.18
6000837,-0.12,0.07,0.98,2.08,3.6,1.46,982.92,31.18
6000875,-0.12,0.08,0.98,1.89,3.42,1.1,982.98,31.19
6000925,-0.12,0.07,0.97,1.89,3.42,1.34,982.94,31.17
6000963,-0.13,0.07,0.99,1.89,3.48,1.22,982.96,31.19
6001001,-0.13,0.08,0.99,1.89,3.48,1.16,982.94,31.19
6001040,-0.12,0.07,0.98,1.77,3.6,1.28,982.96,31.18
6001078,-0.12,0.07,0.98,1.95,3.48,1.28,982.97,31.18
6001116,-0.12,0.08,0.98,1.89,3.6,1.22,982.93,31.18
6001154,-0.12,0.08,0.98,1.95,3.48,1.28,982.99,31.19
6001192,-0.13,0.08,0.98,2.01,3.54,1.28,982.98,31.19
6001230,-0.12,0.08,0.98,1.83,3.48,1.34,982.94,31.19
6001268,-0.12,0.08,0.98,1.89,3.42,1.1,982.95,31.18
6001318,-0.12,0.07,0.98,1.89,3.54,1.34,982.99,31.18
6001356,-0.12,0.07,0.98,1.77,3.3,1.22,982.97,31.18
6001395,-0.13,0.07,0.99,2.08,3.3,1.28,982.92,31.19
6001433,-0.12,0.07,0.98,1.89,3.42,1.22,982.93,31.18
6001471,-0.12,0.08,0.98,1.95,3.36,1.28,982.91,31.17
6001509,-0.12,0.08,0.98,1.95,3.42,1.22,982.94,31.19
6001547,-0.12,0.07,0.98,1.95,3.48,1.28,982.99,31.19
6001585,-0.12,0.07,0.98,1.77,3.36,1.28,982.95,31.17
6001623,-0.12,0.07,0.98,1.89,3.48,1.4,982.91,31.19
6001662,-0.12,0.08,0.98,1.77,3.48,1.22,982.95,31.19
6001712,-0.12,0.08,0.98,1.77,3.48,1.16,982.95,31.16
6001750,-0.12,0.08,0.98,1.95,3.54,1.28,982.98,31.19
6001788,-0.12,0.08,0.98,1.95,3.42,1.22,982.96,31.18
6001826,-0.12,0.07,0.98,1.89,3.3,1.16,982.97,31.18
6001864,-0.12,0.07,0.98,2.01,3.48,1.4,983.01,31.19
6001902,-0.12,0.08,0.98,1.83,3.42,1.28,982.91,31.18
6001940,-0.12,0.08,0.98,1.95,3.42,1.28,982.95,31.19
6001978,-0.12,0.08,0.98,2.01,3.66,1.28,982.99,31.18
6002017,-0.12,0.07,0.98,1.83,3.3,1.22,982.96,31.18
6002055,-0.12,0.08,0.98,1.89,3.48,1.28,982.94,31.18
6002105,-0.12,0.08,0.98,1.77,3.54,1.04,982.93,31.16
6002143,-0.12,0.08,0.98,1.95,3.42,1.28,982.95,31.18
6002181,-0.12,0.08,0.98,1.77,3.6,1.4,982.98,31.19
6002219,-0.12,0.07,0.98,1.83,3.54,1.22,982.97,31.17
6002257,-0.12,0.07,0.98,1.89,3.3,1.34,982.98,31.17
6002295,-0.12,0.08,0.98,1.83,3.54,1.28,982.98,31.19
6002333,-0.12,0.08,0.98,1.89,3.54,1.1,982.98,31.19
6002372,-0.12,0.08,0.98,1.77,3.48,1.4,982.94,31.18
6002410,-0.12,0.07,0.98,1.89,3.42,1.4,982.99,31.18
6002448,-0.12,0.07,0.98,1.83,3.6,1.16,982.95,31.18
6002498,-0.12,0.08,0.98,1.95,3.48,1.28,982.92,31.17
6002536,-0.12,0.08,0.98,1.89,3.42,1.22,982.94,31.17
6002574,-0.12,0.08,0.98,1.95,3.36,1.22,982.89,31.17
6002612,-0.12,0.08,0.98,1.89,3.48,1.34,982.98,31.19
6002650,-0.12,0.08,0.98,1.89,3.36,1.22,982.9,31.18
6002688,-0.12,0.08,0.98,1.77,3.36,1.34,982.97,31.19
6002727,-0.12,0.08,0.98,1.95,3.42,1.28,982.96,31.19
6002765,-0.12,0.07,0.98,2.01,3.36,1.34,982.91,31.19
6002803,-0.12,0.07,0.98,1.89,3.48,1.4,983.0,31.2
6002841,-0.12,0.08,0.98,1.83,3.48,1.34,982.94,31.19
6002917,-0.12,0.08,0.98,1.95,3.66,1.4,982.89,31.15
6002955,-0.12,0.08,0.98,1.89,3.54,1.16,982.98,31.18
6002993,-0.12,0.08,0.98,1.95,3.3,1.22,982.93,31.18
6003082,-0.12,0.08,0.98,1.95,3.6,1.28,982.94,31.15
6003121,-0.12,0.08,0.98,1.95,3.66,1.22,982.95,31.16
6003159,-0.12,0.08,0.98,2.01,3.42,1.34,982.89,31.15
6003197,-0.12,0.08,0.98,2.01,3.48,1.22,982.95,31.17
6003235,-0.12,0.08,0.98,1.83,3.48,1.34,982.92,31.17
6003273,-0.12,0.08,0.98,2.2,3.48,1.28,982.99,31.17
6003323,-0.12,0.08,0.98,1.95,3.66,1.22,982.98,31.16
6003361,-0.12,0.07,0.98,1.95,3.48,1.34,982.96,31.17
6003400,-0.12,0.08,0.98,1.95,3.42,1.22,982.96,31.16
6003438,-0.12,0.08,0.98,1.77,3.54,1.28,982.98,31.17
6003476,-0.12,0.08,0.98,2.01,3.42,1.28,983.01,31.17
6003514,-0.12,0.07,0.98,2.08,3.6,1.22,983.0,31.17
6003552,-0.12,0.08,0.98,1.95,3.48,1.28,982.97,31.17
6003590,-0.12,0.08,0.98,1.77,3.36,1.22,982.9,31.17
6003628,-0.12,0.08,0.98,1.83,3.36,1.16,982.96,31.18
6003667,-0.12,0.08,0.98,1.89,3.6,1.22,982.89,31.17
6003717,-0.12,0.08,0.98,1.89,3.54,1.34,982.98,31.16
6003755,-0.12,0.08,0.98,2.01,3.42,1.22,982.92,31.17
6003793,-0.12,0.08,0.98,2.2,3.48,1.16,982.99,31.17
6003831,-0.12,0.08,0.98,1.83,3.54,1.28,982.97,31.18
6003869,-0.12,0.08,0.98,1.89,3.48,1.28,982.92,31.18
6003907,-0.12,0.07,0.98,1.95,3.42,1.34,982.99,31.18
6003945,-0.12,0.08,0.98,1.77,3.48,1.22,982.97,31.18
6003984,-0.12,0.08,0.98,1.89,3.48,1.16,982.99,31.18
6004022,-0.12,0.08,0.98,1.95,3.6,1.28,982.93,31.17
6004060,-0.12,0.08,0.98,1.95,3.36,1.16,982.97,31.17
6004110,-0.12,0.08,0.98,1.71,3.66,1.46,982.95,31.16
6004148,-0.12,0.08,0.98,1.77,3.48,1.22,982.92,31.16
6004186,-0.12,0.08,0.98,1.83,3.54,1.4,982.97,31.17
6004224,-0.12,0.08,0.98,2.08,3.36,1.4,982.96,31.17
6004262,-0.12,0.08,0.98,1.89,3.48,1.16,982.92,31.16
6004300,-0.12,0.08,0.98,1.89,3.54,1.4,982.91,31.17
6004339,-0.12,0.08,0.98,1.89,3.6,1.4,982.98,31.19
6004377,-0.12,0.08,0.98,1.83,3.36,1.28,982.93,31.17
6004415,-0.12,0.08,0.98,1.89,3.48,1.22,982.93,31.18
6004453,-0.12,0.07,0.98,1.95,3.54,1.4,982.95,31.17
6004503,-0.12,0.08,0.98,1.65,3.6,1.28,982.9,31.16
6004541,-0.12,0.08,0.98,2.01,3.3,1.28,983.02,31.17
6004579,-0.12,0.08,0.98,1.83,3.42,1.34,982.88,31.16
6004617,-0.12,0.08,0.98,1.95,3.42,1.22,982.94,31.16
6004655,-0.12,0.08,0.98,1.95,3.54,1.22,982.95,31.18
6004694,-0.12,0.08,0.98,1.77,3.6,1.1,982.92,31.18
6004732,-0.12,0.08,0.98,1.89,3.3,1.4,982.95,31.18
6004770,-0.12,0.08,0.98,1.95,3.36,1.34,982.97,31.18
6004808,-0.12,0.08,0.98,2.14,3.48,1.16,982.95,31.18
6004846,-0.12,0.08,0.98,1.71,3.48,1.28,982.96,31.17
6004896,-0.12,0.08,0.98,1.77,3.54,1.34,982.98,31.16
6004934,-0.12,0.08,0.98,2.01,3.42,1.28,982.94,31.16
6004972,-0.12,0.08,0.98,1.71,3.54,1.22,982.95,31.17
6005010,-0.12,0.08,0.98,1.95,3.42,1.28,982.95,31.16
6005048,-0.12,0.08,0.98,1.77,3.6,1.4,982.94,31.17
6005087,-0.12,0.08,0.98,2.08,3.48,1.16,982.98,31.17
6005125,-0.12,0.08,0.98,1.89,3.6,1.28,982.97,31.18
6005163,-0.12,0.07,0.98,1.83,3.6,1.4,982.91,31.18
6005201,-0.12,0.08,0.98,2.08,3.6,1.28,982.91,31.16
6005239,-0.12,0.08,0.98,1.89,3.6,1.22,982.97,31.17
6005289,-0.12,0.08,0.98,1.71,3.48,1.28,982.92,31.16
6005327,-0.12,0.08,0.98,1.95,3.42,1.16,982.97,31.17
6005365,-0.12,0.08,0.98,1.83,3.3,1.4,982.91,31.16
6005404,-0.12,0.08,0.98,1.95,3.36,1.28,982.98,31.16
6005442,-0.12,0.08,0.98,1.89,3.36,1.04,982.97,31.17
6005480,-0.12,0.08,0.98,1.95,3.42,1.28,982.93,31.17
6005518,-0.12,0.08,0.98,1.95,3.48,1.28,982.92,31.17
6005556,-0.12,0.08,0.98,1.89,3.36,1.22,982.98,31.17
6005594,-0.12,0.08,0.98,2.01,3.54,1.34,983.02,31.18
6005644,-0.12,0.08,0.98,2.01,3.42,1.34,982.91,31.16
6005682,-0.12,0.08,0.98,1.89,3.6,1.16,983.01,31.16
6005720,-0.12,0.08,0.98,1.89,3.66,1.22,982.99,31.17
6005758,-0.12,0.08,0.98,1.95,3.6,1.34,982.96,31.17
6005796,-0.12,0.08,0.98,2.01,3.54,1.04,982.95,31.18
6005835,-0.12,0.07,0.98,1.95,3.3,1.22,982.96,31.17
6005873,-0.12,0.08,0.98,1.83,3.66,1.1,982.96,31.17
6005911,-0.12,0.08,0.98,1.95,3.42,1.4,982.92,31.18
6005949,-0.12,0.08,0.98,2.01,3.48,1.22,982.98,31.18
6005987,-0.12,0.07,0.98,1.83,3.54,1.22,982.99,31.19
6006063,-0.12,0.08,0.98,1.95,3.54,1.16,982.9,31.14
6006101,-0.12,0.08,0.98,1.95,3.48,1.28,982.97,31.17
6006139,-0.12,0.08,0.98,2.01,3.48,1.28,982.93,31.17
6006229,-0.12,0.08,0.98,1.95,3.54,1.22,982.9,31.12
6006267,-0.12,0.08,0.98,1.89,3.54,1.16,982.91,31.14
6006305,-0.12,0.08,0.98,1.83,3.54,1.4,982.92,31.15
6006343,-0.12,0.08,0.98,2.01,3.54,1.16,983.01,31.15
6006381,-0.12,0.08,0.98,1.89,3.6,1.22,982.98,31.16
6006419,-0.12,0.08,0.98,2.01,3.54,1.46,982.95,31.17
6006457,-0.12,0.08,0.98,1.71,3.54,1.34,982.96,31.17
6006507,-0.12,0.08,0.98,1.89,3.42,1.28,982.96,31.13
6006545,-0.12,0.08,0.98,2.01,3.48,1.22,982.98,31.16
6006584,-0.12,0.07,0.98,1.83,3.42,1.16,982.97,31.15
6006622,-0.12,0.08,0.98,2.14,3.36,1.16,982.91,31.15
6006660,-0.12,0.08,0.98,2.01,3.48,1.22,982.97,31.17
6006698,-0.12,0.08,0.98,1.95,3.54,1.16,982.91,31.15
6006736,-0.12,0.08,0.98,1.95,3.36,1.46,982.92,31.16
6006774,-0.12,0.08,0.98,1.89,3.48,1.04,983.0,31.17
6006812,-0.12,0.08,0.98,1.95,3.48,1.22,982.97,31.17
6006851,-0.12,0.08,0.98,1.89,3.48,1.28,982.96,31.16
6006900,-0.12,0.08,0.98,1.89,3.42,1.16,982.98,31.15
6006939,-0.12,0.08,0.98,1.83,3.54,1.16,982.88,31.16
6006977,-0.12,0.08,0.98,1.95,3.6,1.22,983.01,31.17
6007015,-0.12,0.08,0.98,1.77,3.72,1.4,982.99,31.16
6007053,-0.12,0.08,0.98,1.89,3.66,1.22,982.96,31.17
6007091,-0.12,0.08,0.98,2.08,3.48,1.28,982.98,31.17
6007129,-0.12,0.08,0.98,2.01,3.6,1.28,983.0,31.18
6007167,-0.12,0.08,0.98,1.89,3.66,1.34,983.01,31.17
6007206,-0.12,0.08,0.98,2.14,3.42,1.22,982.97,31.16
6007244,-0.12,0.08,0.98,1.77,3.48,1.1,982.99,31.17
6007293,-0.12,0.08,0.98,1.89,3.54,1.28,982.97,31.17
6007332,-0.12,0.08,0.98,1.89,3.48,1.04,982.98,31.17
6007370,-0.12,0.08,0.98,1.95,3.48,1.04,982.93,31.17
6007408,-0.12,0.07,0.98,1.83,3.36,1.22,982.95,31.16
6007446,-0.12,0.08,0.98,2.14,3.54,1.28,982.93,31.18
6007484,-0.12,0.08,0.98,1.77,3.42,1.22,982.92,31.17
6007522,-0.12,0.08,0.98,1.95,3.36,1.22,983.01,31.18
6007560,-0.12,0.08,0.98,1.65,3.48,1.46,982.99,31.19
6007599,-0.12,0.07,0.98,1.77,3.6,1.22,982.97,31.18
6007637,-0.12,0.08,0.98,2.01,3.36,1.1,982.96,31.17
6007686,-0.12,0.08,0.98,1.95,3.42,1.28,982.99,31.17
6007725,-0.12,0.08,0.98,1.95,3.42,1.16,982.97,31.17
6007763,-0.12,0.08,0.98,1.95,3.42,1.22,982.96,31.17
6007801,-0.12,0.08,0.98,1.83,3.66,1.22,982.89,31.16
6007839,-0.12,0.08,0.98,1.83,3.36,1.28,982.94,31.17
6007877,-0.12,0.07,0.98,1.89,3.48,1.22,982.99,31.17
6007915,-0.12,0.08,0.98,1.83,3.36,1.34,982.95,31.16
6007953,-0.12,0.08,0.98,1.95,3.48,1.22,982.99,31.18
6007991,-0.12,0.08,0.98,1.89,3.42,1.1,982.94,31.15
6008030,-0.12,0.08,0.98,2.01,3.42,1.16,982.93,31.17
6008079,-0.12,0.08,0.98,2.01,3.17,1.22,982.96,31.17
6008118,-0.12,0.08,0.98,1.77,3.36,1.22,982.95,31.17
6008156,-0.12,0.08,0.98,1.89,3.48,1.1,982.95,31.18
6008194,-0.12,0.08,0.98,1.65,3.42,1.22,982.98,31.17
6008232,-0.12,0.08,0.98,1.89,3.54,1.1,982.99,31.18
6008270,-0.12,0.08,0.98,1.95,3.54,1.1,982.95,31.18
6008308,-0.12,0.08,0.98,1.83,3.54,1.22,982.96,31.18
6008346,-0.12,0.08,0.98,1.95,3.42,1.1,982.91,31.17
6008385,-0.12,0.08,0.98,1.77,3.42,1.34,982.97,31.18
6008434,-0.12,0.08,0.98,1.83,3.66,1.28,982.96,31.16
6008472,-0.12,0.08,0.98,1.77,3.54,1.34,983.01,31.17
6008511,-0.12,0.08,0.98,1.89,3.48,1.1,982.92,31.17
6008549,-0.12,0.08,0.98,1.83,3.54,1.28,982.98,31.17
6008587,-0.12,0.08,0.98,1.95,3.54,1.16,982.95,31.19
6008625,-0.12,0.08,0.98,1.83,3.48,1.22,983.02,31.18
6008663,-0.12,0.07,0.98,1.95,3.3,1.28,982.98,31.19
6008701,-0.12,0.08,0.98,2.08,3.42,1.16,982.95,31.17
6008739,-0.12,0.08,0.98,1.77,3.54,1.34,982.93,31.18
6008778,-0.12,0.08,0.98,2.01,3.42,1.28,982.88,31.17
6008827,-0.12,0.08,0.98,2.08,3.36,1.28,982.92,31.17
6008865,-0.12,0.07,0.98,1.95,3.48,1.22,982.98,31.17
6008904,-0.12,0.08,0.98,1.95,3.48,1.22,982.95,31.18
6008942,-0.12,0.08,0.98,1.95,3.42,1.22,982.89,31.17
6008980,-0.12,0.08,0.98,1.83,3.48,1.22,982.99,31.18
6009018,-0.12,0.08,0.98,1.77,3.42,1.22,982.92,31.17
6009056,-0.12,0.08,0.98,1.89,3.48,1.04,982.9,31.18
6009094,-0.12,0.08,0.98,2.01,3.54,1.28,982.96,31.18
6009132,-0.12,0.08,0.98,1.95,3.42,1.22,982.96,31.19
6009171,-0.12,0.08,0.98,1.83,3.36,1.22,982.96,31.19
6009246,-0.12,0.08,0.98,1.95,3.54,1.22,982.98,31.16
6009285,-0.12,0.08,0.98,1.89,3.48,1.28,982.93,31.16
6009323,-0.12,0.08,0.98,2.08,3.48,1.16,982.92,31.16
6009412,-0.12,0.08,0.98,1.77,3.6,1.4,982.96,31.13
6009450,-0.12,0.08,0.98,1.83,3.66,1.22,982.95,31.15
6009488,-0.12,0.08,0.98,1.83,3.54,1.16,982.94,31.15
6009527,-0.12,0.08,0.98,1.83,3.42,1.4,982.95,31.15
6009565,-0.12,0.08,0.98,1.83,3.42,1.16,982.94,31.17
6009603,-0.12,0.08,0.98,1.89,3.54,1.22,983.0,31.17
6009641,-0.12,0.08,0.98,1.77,3.54,1.16,982.94,31.18
6009691,-0.12,0.08,0.98,1.89,3.48,1.22,982.99,31.16
6009729,-0.12,0.08,0.98,2.01,3.48,1.28,982.91,31.17
6009767,-0.12,0.08,0.98,1.83,3.54,1.34,982.94,31.17
6009805,-0.12,0.08,0.98,1.89,3.48,1.16,982.95,31.18
6009843,-0.12,0.08,0.98,1.95,3.48,1.1,982.96,31.17
6009882,-0.12,0.08,0.98,1.95,3.36,1.22,982.92,31.18
6009920,-0.12,0.08,0.98,1.83,3.42,1.22,982.96,31.18
6009958,-0.12,0.08,0.98,1.83,3.36,1.28,982.96,31.18
6009996,-0.12,0.08,0.98,1.95,3.6,1.22,982.94,31.19
6010034,-0.12,0.08,0.98,1.95,3.42,1.22,982.96,31.18
6010084,-0.12,0.08,0.98,1.89,3.42,1.4,982.96,31.17
6010122,-0.12,0.08,0.98,1.77,3.48,1.28,982.94,31.18
6010160,-0.12,0.08,0.98,1.89,3.6,1.16,982.94,31.18
6010198,-0.12,0.08,0.98,1.77,3.42,1.22,982.94,31.18
6010236,-0.12,0.08,0.98,1.83,3.42,1.22,982.93,31.18
6010274,-0.12,0.08,0.98,1.95,3.42,1.1,982.99,31.19
6010313,-0.12,0.08,0.98,1.95,3.54,1.34,982.95,31.18
6010351,-0.12,0.08,0.98,2.01,3.42,1.34,982.97,31.18
6010389,-0.12,0.08,0.98,2.01,3.48,1.1,982.94,31.19
6010427,-0.12,0.08,0.98,1.83,3.48,1.22,982.95,31.19
6010477,-0.12,0.08,0.98,1.95,3.42,1.28,982.96,31.18
6010515,-0.12,0.08,0.98,1.83,3.36,1.22,982.96,31.19
6010553,-0.12,0.08,0.98,1.89,3.6,1.46,982.97,31.18
6010591,-0.12,0.08,0.98,1.89,3.3,1.22,982.97,31.19
6010629,-0.12,0.08,0.98,1.95,3.3,1.16,982.97,31.18
6010668,-0.12,0.08,0.98,1.89,3.36,1.34,982.95,31.18
6010706,-0.12,0.08,0.98,1.77,3.42,1.16,982.91,31.18
6010744,-0.12,0.07,0.98,1.89,3.54,1.28,982.96,31.17
6010782,-0.12,0.08,0.98,1.83,3.48,1.22,982.92,31.19
6010832,-0.12,0.08,0.98,1.95,3.48,1.46,983.0,31.18
6010870,-0.12,0.08,0.98,2.01,3.42,1.34,982.95,31.18
6010908,-0.12,0.08,0.98,1.89,3.54,1.34,982.92,31.18
6010946,-0.12,0.08,0.98,1.77,3.42,1.16,982.96,31.18
6010984,-0.12,0.08,0.98,1.89,3.42,1.28,982.96,31.19
6011022,-0.12,0.08,0.98,1.95,3.42,1.16,982.92,31.17
6011060,-0.12,0.08,0.98,1.89,3.54,1.34,982.94,31.18
6011099,-0.12,0.08,0.98,2.08,3.48,1.22,982.94,31.19
6011137,-0.12,0.08,0.98,1.95,3.42,1.28,982.96,31.17
6011175,-0.12,0.07,0.98,1.95,3.54,1.16,982.95,31.19
6011225,-0.12,0.08,0.98,2.01,3.54,1.28,982.99,31.17
6011263,-0.12,0.08,0.98,2.01,3.36,1.4,982.89,31.17
6011301,-0.12,0.08,0.98,1.71,3.48,1.4,982.94,31.17
6011339,-0.12,0.08,0.98,2.08,3.66,1.34,982.94,31.18
6011377,-0.12,0.08,0.98,1.89,3.48,1.34,982.97,31.19
6011415,-0.12,0.08,0.98,2.08,3.36,1.04,983.0,31.19
6011453,-0.12,0.08,0.98,2.01,3.42,1.16,982.95,31.18
6011491,-0.12,0.08,0.98,1.77,3.36,1.34,982.92,31.17
6011530,-0.12,0.08,0.98,1.83,3.48,1.28,982.9,31.18
6011568,-0.12,0.08,0.98,1.95,3.42,1.34,982.99,31.18
6011617,-0.12,0.08,0.98,1.77,3.42,1.22,982.97,31.17
6011656,-0.12,0.08,0.98,1.83,3.42,1.16,982.94,31.18
6011694,-0.12,0.08,0.98,1.89,3.42,1.16,982.93,31.19
6011732,-0.12,0.08,0.98,2.14,3.42,1.34,982.98,31.19
6011770,-0.12,0.08,0.98,1.77,3.66,1.22,983.01,31.19
6011808,-0.12,0.08,0.98,1.89,3.42,1.28,982.97,31.19
6011846,-0.12,0.08,0.98,1.95,3.42,1.22,982.98,31.19
6011884,-0.12,0.08,0.98,1.89,3.48,1.22,983.0,31.19
6011922,-0.12,0.08,0.98,2.01,3.54,1.28,983.0,31.19
6011961,-0.12,0.08,0.98,1.83,3.42,1.28,982.98,31.2
6012010,-0.12,0.08,0.98,2.01,3.54,1.16,982.99,31.18
6012048,-0.12,0.07,0.98,1.89,3.54,1.34,982.95,31.18
6012087,-0.12,0.08,0.98,1.89,3.42,1.34,982.94,31.17
6012125,-0.12,0.08,0.98,1.89,3.48,1.28,982.96,31.18
6012163,-0.12,0.08,0.98,1.95,3.48,1.22,982.91,31.18
6012201,-0.12,0.08,0.98,1.95,3.48,1.4,982.98,31.18
6012239,-0.12,0.08,0.98,1.89,3.6,1.28,982.95,31.19
6012277,-0.12,0.08,0.98,1.83,3.48,1.4,982.9,31.18
6012315,-0.12,0.08,0.98,1.89,3.36,1.22,983.0,31.18
6012353,-0.12,0.08,0.98,1.77,3.6,1.22,983.01,31.19
6012429,-0.12,0.08,0.98,1.77,3.54,1.46,982.98,31.16
6012467,-0.12,0.08,0.98,1.95,3.42,1.22,982.96,31.17
6012505,-0.12,0.08,0.98,1.95,3.54,1.22,982.99,31.17
6012595,-0.12,0.07,0.98,2.01,3.54,1.22,982.92,31.13
6012633,-0.12,0.07,0.98,1.95,3.42,1.28,982.94,31.13
6012671,-0.12,0.08,0.98,1.77,3.54,1.34,982.93,31.14
6012709,-0.12,0.08,0.98,1.89,3.48,1.22,982.99,31.16
6012748,-0.12,0.08,0.98,2.01,3.54,1.34,982.93,31.15
6012786,-0.12,0.08,0.98,2.08,3.54,1.22,982.94,31.14
6012824,-0.12,0.07,0.98,1.89,3.6,1.34,982.94,31.15
6012874,-0.12,0.08,0.98,1.83,3.54,1.28,982.95,31.15
6012912,-0.12,0.08,0.98,1.95,3.6,1.34,982.94,31.15
6012950,-0.12,0.08,0.98,1.89,3.6,1.16,982.99,31.15
6012988,-0.12,0.08,0.98,1.95,3.48,1.16,982.95,31.17
6013026,-0.12,0.08,0.98,1.83,3.42,1.34,982.93,31.15
6013064,-0.12,0.08,0.98,2.08,3.42,1.16,983.0,31.16
6013103,-0.12,0.08,0.98,1.89,3.42,1.16,982.93,31.16
6013141,-0.12,0.08,0.98,1.95,3.48,1.22,982.99,31.16
6013179,-0.12,0.08,0.98,1.77,3.66,1.22,982.93,31.15
6013217,-0.12,0.08,0.98,2.08,3.42,1.4,982.98,31.16
6013267,-0.12,0.08,0.98,1.77,3.54,1.46,982.94,31.14
6013305,-0.12,0.07,0.98,1.95,3.36,1.34,982.93,31.15
6013343,-0.12,0.08,0.98,1.95,3.48,1.28,982.99,31.15
6013381,-0.12,0.08,0.98,1.95,3.54,1.16,982.97,31.17
6013419,-0.12,0.08,0.98,2.2,3.48,1.22,983.04,31.18
6013457,-0.12,0.08,0.98,2.01,3.48,1.16,982.96,31.15
6013495,-0.12,0.08,0.98,1.95,3.48,1.28,982.96,31.16
6013534,-0.12,0.08,0.98,1.95,3.48,1.16,982.92,31.16
6013572,-0.12,0.08,0.98,2.14,3.36,1.22,982.96,31.17
6013621,-0.12,0.08,0.98,1.95,3.3,1.4,982.92,31.15
6013660,-0.12,0.08,0.98,1.89,3.48,1.22,982.95,31.17
6013698,-0.12,0.08,0.98,1.95,3.6,1.28,982.96,31.17
6013736,-0.12,0.08,0.98,1.83,3.6,1.28,982.95,31.17
6013774,-0.12,0.08,0.98,1.95,3.6,1.16,982.99,31.17
6013812,-0.12,0.07,0.98,2.01,3.54,1.28,982.99,31.17
6013850,-0.12,0.08,0.98,1.95,3.48,1.22,983.0,31.17
6013888,-0.12,0.08,0.98,1.95,3.54,1.34,982.96,31.17
6013926,-0.12,0.08,0.98,1.95,3.6,1.22,982.98,31.17
6013965,-0.12,0.08,0.98,1.95,3.42,1.28,982.95,31.18
6014014,-0.12,0.08,0.98,2.01,3.3,1.4,982.96,31.17
6014053,-0.12,0.08,0.98,1.95,3.54,1.22,982.92,31.17
6014091,-0.12,0.08,0.98,1.95,3.54,1.34,982.98,31.17
6014129,-0.12,0.08,0.98,1.95,3.6,1.22,982.95,31.18
6014167,-0.12,0.08,0.98,1.83,3.6,1.22,982.91,31.17
6014205,-0.12,0.08,0.98,2.01,3.54,1.22,982.97,31.18
6014243,-0.12,0.08,0.98,1.83,3.42,1.28,982.98,31.18
6014281,-0.12,0.08,0.98,2.01,3.48,1.34,983.01,31.18
6014320,-0.12,0.08,0.98,2.08,3.36,1.4,982.96,31.18
6014358,-0.12,0.08,0.98,1.95,3.42,1.28,983.0,31.18
6014407,-0.12,0.08,0.98,1.89,3.6,1.28,982.97,31.17
6014446,-0.12,0.08,0.98,1.95,3.48,1.28,982.97,31.18
6014484,-0.12,0.08,0.98,2.01,3.3,1.34,982.99,31.16
6014522,-0.12,0.08,0.98,1.77,3.3,1.34,982.92,31.17
6014560,-0.12,0.08,0.98,2.08,3.6,1.22,982.93,31.16
6014598,-0.12,0.07,0.98,1.77,3.6,1.34,982.93,31.17
6014636,-0.12,0.07,0.98,1.89,3.42,1.28,983.0,31.17
6014674,-0.12,0.08,0.98,2.08,3.48,1.16,983.02,31.19
6014713,-0.12,0.08,0.98,2.01,3.42,1.28,982.96,31.17
6014751,-0.12,0.08,0.98,1.89,3.66,1.28,983.0,31.18
6014800,-0.12,0.08,0.98,1.83,3.54,1.28,982.96,31.16
6014839,-0.12,0.07,0.98,1.95,3.42,1.34,982.98,31.17
6014877,-0.12,0.07,0.98,1.95,3.6,1.22,982.95,31.17
6014915,-0.12,0.07,0.98,1.83,3.72,1.4,982.99,31.17
6014953,-0.12,0.08,0.98,1.71,3.48,1.4,982.94,31.17
6014991,-0.12,0.07,0.98,2.14,3.54,1.22,982.97,31.17
6015029,-0.12,0.08,0.98,2.08,3.42,1.22,982.95,31.17
6015067,-0.13,0.08,0.98,1.95,3.6,1.34,982.96,31.17
6015106,-0.12,0.08,0.98,1.95,3.48,1.28,982.94,31.16
6015144,-0.12,0.08,0.98,1.95,3.48,1.34,982.94,31.17
6015194,-0.12,0.07,0.98,1.89,3.48,1.46,982.9,31.16
6015232,-0.12,0.08,0.98,1.77,3.42,1.1,982.96,31.16
6015270,-0.12,0.07,0.98,1.89,3.6,1.34,982.98,31.17
6015308,-0.12,0.08,0.98,1.89,3.3,1.34,983.01,31.18
6015346,-0.12,0.08,0.98,1.95,3.36,1.28,982.96,31.16
6015384,-0.12,0.08,0.98,1.83,3.42,1.34,982.94,31.17
6015422,-0.12,0.07,0.98,2.01,3.36,1.1,982.99,31.2
6015460,-0.12,0.07,0.98,1.83,3.6,1.4,982.95,31.18
6015499,-0.12,0.08,0.98,1.89,3.48,1.22,982.95,31.18
6015537,-0.12,0.07,0.99,1.95,3.66,1.28,982.97,31.18
6015612,-0.12,0.08,0.98,1.89,3.36,1.28,982.98,31.16
6015651,-0.12,0.08,0.98,2.01,3.48,1.16,982.96,31.16
6015689,-0.12,0.07,0.98,2.2,3.6,1.04,982.96,31.17
6015778,-0.12,0.07,0.98,1.83,3.6,1.4,982.93,31.13
6015816,-0.12,0.08,0.99,1.83,3.6,1.34,982.97,31.14
6015855,-0.12,0.07,0.98,1.83,3.54,1.28,982.98,31.15
6015893,-0.12,0.08,0.98,1.89,3.54,1.16,982.98,31.16
6015931,-0.12,0.07,0.98,1.95,3.42,1.16,982.92,31.16
6015969,-0.12,0.08,0.98,1.89,3.6,1.28,982.93,31.18
6016019,-0.12,0.08,0.98,2.01,3.48,1.28,982.97,31.16
6016057,-0.12,0.08,0.98,1.89,3.36,1.28,982.95,31.17
6016095,-0.12,0.07,0.98,1.89,3.6,1.28,982.95,31.16
6016133,-0.12,0.07,0.97,1.89,3.54,1.22,982.94,31.18
6016171,-0.12,0.08,0.98,2.01,3.48,1.1,982.96,31.17
6016210,-0.11,0.07,0.98,1.89,3.42,1.34,982.96,31.17
6016248,-0.11,0.06,0.98,1.89,3.48,1.34,982.91,31.17
6016286,-0.14,0.07,1.0,2.08,3.23,1.22,982.95,31.18
6016324,-0.12,0.08,0.98,1.77,3.23,1.34,982.99,31.18
6016362,-0.12,0.07,0.98,2.01,3.3,1.28,982.97,31.18
6016412,-0.12,0.08,0.98,1.95,3.48,1.34,982.96,31.18
6016450,-0.12,0.08,0.98,1.95,3.42,1.28,982.96,31.17
6016488,-0.13,0.08,0.98,1.95,3.36,1.4,982.94,31.18
6016526,-0.12,0.08,0.98,2.08,3.42,1.34,982.98,31.18
6016564,-0.12,0.07,0.98,1.89,3.48,1.22,982.95,31.18
6016603,-0.12,0.07,0.98,1.89,3.48,1.34,982.94,31.17
6016641,-0.12,0.08,0.98,1.77,3.6,1.34,982.96,31.18
6016679,-0.12,0.08,0.98,1.77,3.42,1.4,982.97,31.18
6016717,-0.12,0.08,0.98,1.89,3.36,1.1,982.96,31.18
6016755,-0.12,0.08,0.98,1.83,3.54,1.28,982.92,31.18
6016805,-0.12,0.08,0.99,1.89,3.54,1.46,982.97,31.17
6016843,-0.12,0.07,0.98,1.83,3.3,1.34,982.95,31.17
6016881,-0.12,0.07,0.98,1.77,3.54,1.16,982.94,31.17
6016919,-0.12,0.07,0.98,1.95,3.36,1.22,982.9,31.18
6016958,-0.12,0.08,0.98,1.95,3.42,1.28,982.94,31.17
6016996,-0.12,0.08,0.98,1.83,3.3,1.34,983.01,31.17
6017034,-0.12,0.08,0.98,1.83,3.48,1.16,982.99,31.17
6017072,-0.12,0.08,0.98,1.83,3.48,1.28,983.01,31.17
6017110,-0.12,0.07,0.98,1.83,3.48,1.28,982.95,31.17
6017148,-0.12,0.08,0.98,1.83,3.6,1.28,982.95,31.17
6017198,-0.12,0.08,0.98,1.95,3.42,1.22,982.98,31.16
6017236,-0.12,0.08,0.98,1.89,3.48,1.34,982.95,31.17
6017274,-0.12,0.08,0.98,1.95,3.42,1.34,982.93,31.15
6017313,-0.12,0.08,0.98,1.95,3.36,1.16,982.96,31.16
6017351,-0.12,0.08,0.98,1.95,3.42,1.4,982.96,31.17
6017389,-0.12,0.07,0.98,1.95,3.48,1.28,982.93,31.16
6017427,-0.12,0.08,0.98,1.89,3.42,1.22,982.95,31.17
6017465,-0.12,0.08,0.98,1.95,3.42,1.28,982.97,31.17
6017503,-0.12,0.08,0.98,1.95,3.42,1.28,982.92,31.17
6017542,-0.12,0.08,0.98,1.95,3.42,1.22,982.96,31.17
6017591,-0.12,0.08,0.98,2.08,3.54,1.28,982.9,31.14
6017629,-0.12,0.07,0.98,1.95,3.6,1.22,982.94,31.17
6017668,-0.12,0.08,0.98,1.89,3.48,1.28,982.94,31.17
6017706,-0.12,0.08,0.98,1.83,3.3,1.22,982.94,31.17
6017744,-0.12,0.08,0.98,1.89,3.48,1.1,982.92,31.17
6017782,-0.12,0.08,0.98,1.83,3.48,1.34,982.99,31.17
6017820,-0.12,0.07,0.98,2.08,3.54,1.28,983.01,31.17
6017858,-0.12,0.08,0.98,2.01,3.36,1.28,982.94,31.17
6017896,-0.12,0.08,0.98,1.89,3.42,1.4,982.97,31.17
6017935,-0.12,0.08,0.98,1.83,3.42,1.16,982.92,31.16
6017984,-0.12,0.07,0.98,1.89,3.54,1.28,982.92,31.15
6018023,-0.12,0.08,0.98,1.95,3.54,1.28,982.91,31.16
6018061,-0.12,0.08,0.98,1.71,3.54,1.28,983.01,31.17
6018099,-0.12,0.08,0.98,1.89,3.42,1.22,983.0,31.17
6018137,-0.12,0.08,0.98,1.89,3.48,1.22,983.0,31.17
6018175,-0.12,0.07,0.98,1.89,3.54,1.22,983.0,31.18
6018213,-0.12,0.08,0.98,2.01,3.48,1.34,982.98,31.18
6018252,-0.12,0.08,0.98,2.01,3.54,1.34,982.96,31.17
6018290,-0.12,0.08,0.98,1.77,3.48,1.16,982.98,31.17
6018328,-0.12,0.08,0.98,1.95,3.36,1.22,982.94,31.17
6018378,-0.12,0.08,0.98,1.95,3.42,1.28,982.97,31.16
6018416,-0.12,0.08,0.98,1.89,3.54,1.28,982.95,31.18
6018454,-0.12,0.08,0.98,1.77,3.36,1.22,983.0,31.16
6018492,-0.12,0.08,0.98,2.14,3.36,1.1,982.95,31.17
6018530,-0.12,0.08,0.98,1.83,3.36,1.34,983.05,31.18
6018568,-0.12,0.08,0.98,2.08,3.54,1.22,982.91,31.17
6018606,-0.12,0.08,0.98,1.89,3.42,1.34,983.0,31.19
6018645,-0.12,0.08,0.98,1.77,3.36,1.4,982.99,31.19
6018683,-0.12,0.08,0.98,1.89,3.6,1.4,983.02,31.19
6018759,-0.12,0.08,0.98,1.71,3.6,1.34,982.97,31.16
6018797,-0.12,0.08,0.98,1.95,3.48,1.28,982.96,31.15
6018835,-0.12,0.08,0.98,1.83,3.48,1.22,983.0,31.17
6018926,-0.12,0.07,0.98,2.08,3.6,1.34,983.0,31.15
6018964,-0.12,0.08,0.98,1.89,3.66,1.28,983.0,31.15
6019002,-0.12,0.08,0.98,1.89,3.54,1.22,982.95,31.16
6019040,-0.12,0.08,0.98,1.77,3.42,1.16,982.97,31.17
6019078,-0.12,0.08,0.98,1.89,3.54,1.28,982.93,31.17
6019117,-0.12,0.08,0.98,1.89,3.54,1.1,982.95,31.15
6019155,-0.11,0.09,0.95,2.08,3.36,1.34,982.92,31.15
6019204,-0.13,0.08,1.01,2.26,3.3,1.28,982.96,31.15
6019243,-0.13,0.07,0.99,1.71,3.54,1.28,982.91,31.15
6019281,-0.13,0.07,0.97,1.46,3.54,1.34,982.94,31.16
6019319,-0.13,0.07,0.97,1.65,3.78,1.28,982.96,31.17
6019357,-0.11,0.07,0.96,2.08,3.72,1.28,982.96,31.17
6019395,-0.13,0.06,1.0,2.56,3.3,1.16,982.96,31.17
6019433,-0.13,0.05,0.98,1.95,3.66,1.34,982.92,31.16
6019471,-0.11,0.09,1.03,1.65,3.05,1.28,982.94,31.17
6019510,-0.12,0.08,0.97,1.71,3.85,1.22,982.96,31.17
6019548,-0.12,0.08,0.98,1.89,3.6,1.1,982.94,31.17
6019597,-0.12,0.08,0.97,1.77,3.72,1.28,982.95,31.17
6019636,-0.12,0.07,0.99,2.01,3.48,1.34,982.99,31.19
6019674,-0.12,0.08,0.98,2.01,3.23,1.34,982.99,31.19
6019712,-0.12,0.08,0.98,1.89,3.54,1.28,982.97,31.19
6019750,-0.11,0.09,0.99,1.95,3.05,1.22,982.94,31.19
6019788,-0.12,0.07,1.0,1.83,3.97,1.22,982.99,31.18
6019827,-0.13,0.07,0.97,1.65,3.36,1.4,982.97,31.19
6019865,-0.13,0.07,0.99,1.77,3.66,1.4,982.95,31.18
6019903,-0.13,0.06,0.96,1.77,3.3,1.28,982.97,31.19
6019941,-0.12,0.08,0.97,2.01,3.42,1.16,983.0,31.2
6019991,-0.11,0.08,1.0,1.89,3.36,1.16,982.89,31.16
6020029,-0.11,0.08,0.99,1.89,3.66,1.1,982.97,31.18
6020067,-0.12,0.07,0.99,1.77,3.6,1.22,982.97,31.18
6020105,-0.13,0.07,0.98,1.83,3.54,1.4,982.99,31.19
6020143,-0.12,0.08,0.98,1.89,3.42,1.16,982.99,31.19
6020181,-0.11,0.07,0.96,2.08,3.6,1.53,983.06,31.2
6020220,-0.12,0.09,1.0,1.77,3.05,1.4,982.95,31.2
6020258,-0.12,0.08,0.98,1.77,3.66,1.34,982.95,31.18
6020296,-0.13,0.07,0.98,1.83,3.48,1.28,983.04,31.19
6020334,-0.13,0.07,0.97,1.95,3.48,1.34,983.03,31.19
6020384,-0.12,0.07,0.98,1.89,3.6,1.34,983.02,31.18
6020422,-0.11,0.07,0.99,2.08,3.3,1.28,982.97,31.17
6020460,-0.12,0.07,0.98,1.89,3.42,1.34,983.01,31.2
6020498,-0.12,0.08,0.99,1.89,3.3,1.34,982.97,31.17
6020536,-0.12,0.07,0.98,2.08,3.72,1.34,982.97,31.19
6020575,-0.13,0.07,0.98,1.95,3.54,1.28,983.03,31.19
6020613,-0.12,0.08,0.98,1.83,3.66,1.4,982.96,31.19
6020651,-0.12,0.08,0.98,1.83,3.3,1.22,982.91,31.19
6020689,-0.12,0.08,0.97,1.95,3.42,1.53,983.0,31.19
6020727,-0.13,0.08,0.98,2.08,3.48,1.22,982.93,31.19
6020777,-0.12,0.08,0.99,1.95,3.6,1.34,983.04,31.2
6020815,-0.12,0.07,0.98,1.65,3.54,1.22,982.95,31.19
6020853,-0.12,0.07,0.98,1.89,3.36,1.22,982.95,31.19
6020892,-0.12,0.07,0.97,1.65,3.6,1.28,982.92,31.19
6020930,-0.12,0.07,0.98,2.2,3.3,1.4,982.96,31.19
6020968,-0.12,0.08,0.99,2.01,3.48,1.16,982.91,31.19
6021006,-0.12,0.08,0.99,1.83,3.54,1.28,982.94,31.2
6021044,-0.12,0.08,0.98,2.01,3.42,1.16,982.95,31.19
6021082,-0.12,0.08,0.98,1.95,3.66,1.22,982.89,31.19
6021132,-0.12,0.07,0.98,2.08,3.48,1.28,982.92,31.19
6021170,-0.12,0.07,0.98,1.83,3.42,1.22,982.98,31.19
6021209,-0.12,0.08,0.99,1.77,3.6,1.34,982.9,31.19
6021247,-0.12,0.08,0.98,1.89,3.48,1.16,982.91,31.19
6021285,-0.12,0.08,0.98,2.01,3.42,1.28,982.92,31.19
6021323,-0.12,0.08,0.98,1.95,3.54,1.16,982.96,31.2
6021361,-0.12,0.07,0.98,1.83,3.42,1.34,982.92,31.2
6021399,-0.12,0.07,0.99,1.95,3.48,1.46,982.96,31.2
6021437,-0.12,0.08,0.98,1.71,3.42,1.22,982.92,31.19
6021476,-0.12,0.08,0.98,1.89,3.48,1.34,982.95,31.2
6021525,-0.12,0.08,0.98,1.95,3.48,1.16,982.93,31.19
6021563,-0.12,0.08,0.98,2.01,3.36,1.28,982.92,31.19
6021602,-0.13,0.07,0.98,1.89,3.42,1.34,982.96,31.2
6021640,-0.13,0.07,0.98,1.89,3.66,1.16,983.03,31.19
6021678,-0.12,0.08,0.98,2.01,3.3,1.34,982.96,31.19
6021716,-0.12,0.08,0.98,1.95,3.6,1.46,982.93,31.19
6021754,-0.11,0.08,0.98,1.83,3.54,1.4,982.95,31.2
6021792,-0.12,0.08,0.98,1.89,3.36,1.16,982.93,31.19
6021830,-0.13,0.07,0.98,1.83,3.42,1.22,982.97,31.2
6021869,-0.13,0.07,0.98,2.01,3.6,1.34,982.93,31.19
6021944,-0.12,0.08,0.99,1.83,3.48,1.28,982.96,31.17
6021983,-0.12,0.08,0.98,1.95,3.48,1.4,982.88,31.17
6022021,-0.12,0.08,0.97,2.08,3.36,1.1,982.94,31.19
6022110,-0.11,0.07,0.99,1.95,3.48,1.28,982.95,31.14
6022148,-0.13,0.07,0.98,1.95,3.36,1.28,983.02,31.16
6022187,-0.12,0.08,0.98,2.14,3.3,1.46,982.92,31.17
6022225,-0.12,0.07,0.98,2.01,3.48,1.34,982.97,31.18
6022263,-0.12,0.07,0.99,1.95,3.42,1.16,983.0,31.19
6022301,-0.13,0.07,0.98,1.83,3.36,1.1,982.97,31.18
6022339,-0.12,0.08,0.98,1.89,3.42,1.46,982.95,31.18
6022389,-0.12,0.08,0.98,1.89,3.48,1.22,982.99,31.17
6022427,-0.13,0.08,0.99,1.77,3.6,1.4,982.99,31.19
6022465,-0.12,0.07,0.98,2.01,3.6,1.28,982.95,31.18
6022503,-0.12,0.08,0.98,1.89,3.6,1.34,982.98,31.19
6022541,-0.12,0.07,0.98,1.77,3.6,1.16,983.0,31.19
6022580,-0.12,0.08,0.98,1.95,3.36,1.28,982.93,31.2
6022618,-0.12,0.08,0.98,1.89,3.66,1.28,983.0,31.2
6022656,-0.13,0.08,0.98,2.08,3.36,1.34,982.95,31.18
6022694,-0.21,0.05,1.0,1.65,3.48,1.1,982.94,31.18
6022732,-0.32,0.03,0.99,1.89,3.48,1.46,982.98,31.19
6022782,-0.07,0.05,0.96,2.26,4.03,1.28,982.98,31.18
6022820,-0.12,0.07,0.98,1.83,3.23,1.22,982.94,31.19
6022858,-0.1,0.06,0.98,1.95,3.54,1.22,982.96,31.2
6022897,-0.1,0.07,0.99,1.95,3.6,1.16,983.0,31.19
6022935,-0.1,0.07,0.97,1.95,3.6,1.22,982.92,31.2
6022973,-0.12,0.07,0.98,1.95,3.11,1.28,982.94,31.2
6023011,-0.11,0.08,1.0,1.77,3.36,1.22,982.99,31.19
6023049,-0.12,0.08,0.98,1.89,3.3,1.28,982.98,31.2
6023087,-0.12,0.08,0.98,1.77,3.48,1.34,982.96,31.2
6023126,-0.12,0.07,0.98,1.89,3.42,1.16,982.95,31.21
6023175,-0.13,0.08,0.98,1.95,3.23,1.34,983.0,31.19
6023214,-0.12,0.07,0.99,1.77,3.6,1.4,982.97,31.19
6023252,-0.12,0.08,0.98,1.71,3.78,1.22,982.99,31.2
6023290,-0.12,0.08,0.98,2.08,3.66,1.16,982.97,31.2
6023328,-0.12,0.07,0.98,2.08,3.3,1.4,982.97,31.19
6023366,-0.12,0.08,0.98,1.77,3.6,1.28,982.96,31.2
6023405,-0.12,0.07,0.98,1.83,3.48,1.28,982.9,31.21
6023443,-0.12,0.08,0.98,1.77,3.42,1.16,982.96,31.21
6023481,-0.12,0.08,0.98,1.77,3.3,1.34,982.9,31.2
6023519,-0.12,0.08,0.98,1.71,3.42,1.22,982.97,31.21
6023569,-0.12,0.07,0.98,2.01,3.3,1.22,982.96,31.19
6023607,-0.12,0.07,0.98,1.89,3.54,1.1,982.99,31.2
6023645,-0.11,0.07,0.98,2.01,3.6,1.28,983.0,31.21
6023683,-0.12,0.07,0.99,1.89,3.11,1.4,982.99,31.2
6023722,-0.13,0.08,0.99,1.89,3.17,1.22,982.93,31.2
6023760,-0.12,0.08,0.99,1.95,3.42,1.1,982.99,31.21
6023798,-0.12,0.08,0.98,1.77,3.72,1.1,982.93,31.2
6023836,-0.12,0.07,0.98,1.83,3.48,1.22,982.96,31.21
6023874,-0.12,0.07,0.97,1.83,3.6,1.28,982.92,31.21
6023924,-0.12,0.07,0.98,2.08,3.48,1.22,982.92,31.2
6023962,-0.12,0.08,0.99,1.83,3.42,1.16,982.96,31.2
6024000,-0.12,0.08,0.99,1.83,3.48,1.22,982.96,31.2
6024038,-0.12,0.08,0.98,1.83,3.66,1.22,983.0,31.21
6024077,-0.12,0.08,0.98,1.77,3.66,1.28,982.96,31.22
6024115,-0.13,0.07,0.98,2.14,3.36,1.04,982.99,31.22
6024153,-0.12,0.07,0.98,1.77,3.36,1.28,982.98,31.22
6024191,-0.12,0.08,0.98,1.65,3.48,1.34,982.99,31.21
6024229,-0.12,0.08,0.98,1.89,3.3,1.22,982.95,31.21
6024267,-0.12,0.08,0.98,1.83,3.54,1.4,982.93,31.22
6024317,-0.12,0.07,0.98,1.89,3.66,1.34,982.94,31.2
6024355,-0.13,0.07,0.98,1.95,3.48,1.28,982.95,31.2
6024394,-0.12,0.07,0.98,1.71,3.54,1.28,982.95,31.21
6024432,-0.12,0.08,0.98,1.89,3.42,1.28,982.96,31.21
6024470,-0.12,0.08,0.98,2.01,3.42,1.34,982.93,31.21
6024508,-0.12,0.08,0.98,1.89,3.42,1.28,982.94,31.22
6024546,-0.12,0.07,0.98,1.89,3.36,1.22,982.95,31.21
6024584,-0.12,0.07,0.98,1.71,3.36,1.1,982.94,31.21
6024622,-0.13,0.07,0.98,1.77,3.42,1.22,982.99,31.22
6024661,-0.12,0.08,0.98,1.95,3.6,1.4,982.95,31.2
6024711,-0.12,0.08,0.98,1.89,3.42,1.16,982.93,31.2
6024749,-0.12,0.08,0.98,1.89,3.36,1.22,982.96,31.21
6024787,-0.12,0.07,0.98,1.83,3.54,1.28,982.98,31.21
6024825,-0.13,0.07,0.98,1.83,3.36,1.22,982.94,31.21
6024863,-0.12,0.08,0.98,1.95,3.48,1.22,982.99,31.21
6024901,-0.12,0.08,0.98,1.89,3.48,1.22,982.98,31.21
6024940,-0.12,0.08,0.98,2.08,3.36,1.1,983.01,31.23
6024978,-0.11,0.08,0.99,1.83,3.11,1.28,982.97,31.22
6025016,-0.12,0.08,0.98,1.71,3.6,1.34,982.88,31.21
6025054,-0.13,0.07,0.98,1.77,3.36,1.28,982.99,31.22
6025130,-0.12,0.08,0.98,1.95,3.48,1.53,982.94,31.19
6025168,-0.12,0.08,0.98,1.95,3.36,1.34,982.99,31.19
6025206,-0.12,0.08,0.98,1.89,3.54,1.16,982.96,31.21
6025296,-0.13,0.08,0.98,1.95,3.48,1.28,982.98,31.17
6025334,-0.12,0.08,0.98,1.89,3.36,1.34,982.97,31.18
6025372,-0.12,0.07,0.98,1.89,3.48,1.28,982.97,31.19
6025410,-0.13,0.07,0.98,1.83,3.48,1.34,982.89,31.19
6025448,-0.13,0.07,0.98,1.95,3.6,1.28,982.98,31.2
6025486,-0.12,0.07,0.98,1.83,3.54,1.16,982.96,31.2
6025525,-0.12,0.07,0.99,1.95,3.36,1.22,982.99,31.2
6025574,-0.13,0.07,0.98,1.83,3.54,1.34,982.96,31.2
6025613,-0.12,0.07,0.98,1.95,3.42,1.28,982.98,31.21
6025651,-0.13,0.08,0.98,1.89,3.36,1.22,982.94,31.19
6025689,-0.12,0.07,0.98,1.89,3.42,1.16,982.99,31.21
6025727,-0.12,0.07,0.98,1.83,3.48,1.22,982.96,31.21
6025765,-0.12,0.08,0.98,2.01,3.48,1.34,982.99,31.2
6025804,-0.12,0.07,0.98,1.95,3.48,1.34,982.94,31.19
6025842,-0.13,0.08,0.98,1.89,3.36,1.34,982.99,31.2
6025880,-0.13,0.07,0.98,1.89,3.6,1.34,982.89,31.21
6025918,-0.13,0.07,0.99,1.83,3.54,1.22,982.96,31.2
6025968,-0.12,0.07,0.98,1.77,3.42,1.28,982.96,31.2
6026006,-0.12,0.07,0.98,1.77,3.48,1.34,982.96,31.2
6026044,-0.12,0.07,0.98,1.71,3.48,1.22,982.96,31.22
6026082,-0.12,0.07,0.98,1.89,3.54,1.34,982.98,31.21
6026120,-0.12,0.08,0.98,2.14,3.42,1.1,982.96,31.22
6026158,-0.11,0.08,0.99,1.89,3.54,1.28,982.94,31.21
6026197,-0.13,0.08,0.98,2.01,3.36,1.22,982.94,31.2
6026235,-0.12,0.08,0.98,2.08,3.36,1.28,982.97,31.21
6026273,-0.12,0.09,0.98,2.01,3.42,1.28,982.93,31.21
6026323,-0.13,0.08,0.98,1.95,3.54,1.46,982.95,31.2
6026361,-0.12,0.08,0.98,1.95,3.36,1.22,982.97,31.2
6026399,-0.12,0.08,0.98,1.89,3.3,1.34,983.0,31.21
6026437,-0.12,0.08,0.99,1.77,3.42,1.28,982.96,31.21
6026475,-0.12,0.07,0.98,1.83,3.42,1.28,982.99,31.22
6026513,-0.12,0.06,0.98,1.89,3.54,1.34,982.99,31.21
6026552,-0.12,0.06,0.98,1.89,3.66,1.34,982.94,31.2
6026590,-0.12,0.07,0.98,1.89,3.48,1.34,982.94,31.21
6026628,-0.12,0.07,0.98,1.89,3.23,1.28,983.0,31.2
6026666,-0.12,0.07,0.98,1.89,3.54,1.16,982.93,31.21
6026716,-0.12,0.08,0.98,1.89,3.42,1.34,982.94,31.19
6026754,-0.12,0.08,0.98,1.77,3.6,1.1,982.99,31.2
6026792,-0.12,0.08,0.98,1.83,3.3,1.16,982.95,31.2
6026830,-0.12,0.08,0.98,1.77,3.54,1.22,983.0,31.21
6026868,-0.12,0.08,0.98,1.95,3.48,1.28,982.98,31.21
6026906,-0.12,0.08,0.98,1.95,3.36,1.1,982.95,31.2
6026945,-0.12,0.08,0.98,1.95,3.42,1.16,982.94,31.21
6026983,-0.12,0.08,0.98,1.89,3.36,1.28,983.01,31.22
6027021,-0.13,0.07,0.98,1.89,3.48,1.34,982.96,31.21
6027059,-0.12,0.07,0.98,1.95,3.36,1.28,982.89,31.22
6027109,-0.12,0.07,0.98,1.83,3.48,1.16,982.93,31.2
6027147,-0.12,0.08,0.98,1.89,3.3,1.16,982.97,31.21
6027185,-0.12,0.07,0.99,1.83,3.3,1.22,982.97,31.21
6027223,-0.13,0.07,0.98,2.01,3.48,1.22,982.97,31.2
6027261,-0.12,0.07,0.98,1.89,3.54,1.34,982.98,31.21
6027299,-0.12,0.07,0.98,1.95,3.48,1.34,982.98,31.22
6027338,-0.12,0.07,0.98,1.95,3.48,1.28,982.97,31.22
6027376,-0.12,0.08,0.98,2.08,3.54,1.28,983.02,31.23
6027414,-0.12,0.08,0.98,1.83,3.42,1.22,982.9,31.22
6027452,-0.12,0.08,0.98,1.89,3.66,1.1,982.95,31.23
6027502,-0.12,0.08,0.98,1.95,3.66,1.28,983.03,31.21
6027540,-0.12,0.08,0.98,1.95,3.48,1.28,982.94,31.21
6027578,-0.12,0.08,0.98,1.89,3.48,1.28,982.93,31.2
6027616,-0.11,0.08,0.98,2.01,3.36,1.22,983.01,31.22
6027654,-0.12,0.07,0.98,1.95,3.42,1.4,982.97,31.21
6027693,-0.12,0.08,0.98,2.01,3.3,1.34,983.02,31.22
6027731,-0.12,0.08,0.98,1.95,3.36,1.04,982.92,31.2
6027769,-0.12,0.07,0.98,1.95,3.36,1.16,983.0,31.23
6027807,-0.12,0.07,0.98,1.83,3.48,1.34,982.98,31.22
6027845,-0.12,0.07,0.98,1.89,3.48,1.22,982.94,31.22
6027895,-0.12,0.07,0.98,2.01,3.23,1.16,983.0,31.22
6027933,-0.12,0.08,0.98,1.89,3.48,1.28,982.97,31.22
6027971,-0.12,0.08,0.98,1.89,3.54,1.22,982.98,31.22
6028009,-0.12,0.08,0.98,1.89,3.48,1.34,982.94,31.22
6028047,-0.12,0.08,0.98,1.89,3.48,1.22,982.94,31.22
6028086,-0.12,0.08,0.98,1.95,3.54,1.28,983.0,31.23
6028124,-0.12,0.08,0.98,1.83,3.48,1.28,982.93,31.21
6028162,-0.12,0.08,0.98,1.83,3.6,1.16,982.98,31.22
6028200,-0.12,0.08,0.98,1.95,3.48,1.16,982.96,31.23
6028238,-0.12,0.08,0.98,1.83,3.48,1.28,982.97,31.22
6028314,-0.12,0.08,0.98,2.01,3.66,1.34,982.96,31.19
6028352,-0.12,0.08,0.98,2.01,3.42,1.34,982.95,31.22
6028390,-0.12,0.08,0.98,1.89,3.54,1.34,982.95,31.2
6028480,-0.12,0.08,0.98,1.89,3.42,1.34,982.94,31.19
6028518,-0.12,0.08,0.98,1.83,3.36,1.22,982.97,31.18
6028556,-0.12,0.08,0.98,1.89,3.54,1.46,983.0,31.19
6028594,-0.12,0.08,0.98,1.95,3.6,1.22,982.93,31.2
6028632,-0.12,0.08,0.98,1.95,3.48,1.16,983.03,31.2
6028670,-0.12,0.08,0.98,2.01,3.54,1.22,983.0,31.2
6028709,-0.12,0.08,0.98,1.95,3.6,1.22,982.98,31.21
6028758,-0.12,0.08,0.98,1.83,3.48,1.22,982.94,31.2
6028797,-0.12,0.07,0.98,1.83,3.54,1.16,982.93,31.2
6028835,-0.12,0.08,0.98,1.89,3.48,1.16,982.99,31.21
6028873,-0.12,0.08,0.98,1.89,3.36,1.28,982.98,31.2
6028911,-0.12,0.08,0.98,1.89,3.48,1.28,982.97,31.21
6028949,-0.12,0.07,0.98,2.01,3.48,1.28,982.96,31.21
6028987,-0.12,0.08,0.98,1.83,3.54,1.34,982.95,31.22
6029026,-0.12,0.08,0.98,1.83,3.42,1.22,982.95,31.23
6029064,-0.12,0.08,0.98,1.95,3.3,1.28,983.03,31.22
6029113,-0.12,0.08,0.98,1.95,3.42,1.16,982.96,31.2
6029152,-0.12,0.08,0.98,1.77,3.36,1.22,982.94,31.2
6029190,-0.12,0.08,0.98,1.71,3.42,1.22,982.95,31.21
6029228,-0.12,0.08,0.98,1.89,3.42,1.28,982.99,31.22
6029266,-0.12,0.08,0.98,1.95,3.48,1.34,982.92,31.2
6029304,-0.12,0.08,0.98,1.95,3.54,1.22,982.97,31.22
6029342,-0.12,0.08,0.98,1.83,3.42,1.4,982.93,31.2
6029381,-0.12,0.08,0.98,1.89,3.54,1.22,982.98,31.22
6029419,-0.12,0.08,0.98,1.71,3.42,1.4,982.99,31.22
6029457,-0.12,0.08,0.98,1.89,3.6,1.16,982.98,31.22
6029507,-0.12,0.08,0.98,1.95,3.54,1.34,982.95,31.2
6029545,-0.12,0.07,0.98,1.95,3.42,1.16,982.98,31.22
6029583,-0.12,0.08,0.98,1.95,3.48,1.28,982.94,31.22
6029621,-0.12,0.08,0.98,2.01,3.42,1.4,983.02,31.22
6029659,-0.12,0.08,0.98,1.89,3.42,1.22,983.02,31.22
6029698,-0.12,0.08,0.98,2.01,3.42,1.34,982.94,31.22
6029736,-0.12,0.07,0.98,1.83,3.36,1.22,982.95,31.23
6029774,-0.12,0.07,0.98,1.77,3.42,1.28,982.94,31.23
6029812,-0.12,0.08,0.98,1.89,3.48,1.4,982.99,31.22
6029850,-0.12,0.08,0.98,2.08,3.48,1.28,982.97,31.24
6029900,-0.12,0.08,0.98,2.01,3.54,1.34,983.0,31.21
6029938,-0.12,0.08,0.98,1.77,3.48,1.22,982.97,31.21
6029976,-0.12,0.07,0.98,1.83,3.54,1.4,982.95,31.21
6030014,-0.12,0.08,0.98,1.95,3.6,1.28,983.0,31.24
6030053,-0.12,0.08,0.98,2.01,3.6,1.34,983.0,31.23
6030091,-0.12,0.08,0.98,1.83,3.42,1.16,982.96,31.23
6030129,-0.12,0.08,0.98,1.95,3.36,1.16,982.94,31.22
6030167,-0.12,0.08,0.98,2.08,3.54,1.28,982.94,31.23
6030205,-0.12,0.07,0.98,1.89,3.54,1.28,982.97,31.23
6030243,-0.12,0.08,0.98,1.89,3.48,1.34,982.93,31.22
6030293,-0.12,0.08,0.98,2.01,3.36,1.28,982.98,31.2
6030331,-0.12,0.08,0.98,1.77,3.66,1.28,982.91,31.22
6030369,-0.12,0.07,0.98,1.95,3.72,1.1,982.94,31.22
6030408,-0.12,0.07,0.98,1.89,3.42,1.28,982.97,31.22
6030446,-0.12,0.08,0.98,1.89,3.48,1.22,982.99,31.24
6030484,-0.12,0.08,0.98,2.01,3.42,1.16,982.98,31.24
6030522,-0.12,0.08,0.98,1.83,3.48,1.34,982.93,31.22
6030560,-0.12,0.08,0.98,1.83,3.48,1.4,982.94,31.22
6030598,-0.12,0.08,0.98,1.83,3.54,1.16,982.95,31.23
6030636,-0.12,0.08,0.98,1.89,3.54,1.28,982.98,31.24
6030686,-0.12,0.08,0.98,1.89,3.6,1.16,983.01,31.23
6030724,-0.12,0.07,0.98,1.95,3.48,1.4,982.94,31.24
6030763,-0.12,0.08,0.98,2.08,3.48,1.16,982.94,31.23
6030801,-0.12,0.08,0.98,1.89,3.48,1.28,982.95,31.21
6030839,-0.12,0.07,0.98,1.89,3.48,1.28,982.97,31.22
6030877,-0.12,0.07,0.98,1.83,3.54,1.22,982.97,31.23
6030915,-0.12,0.07,0.98,1.89,3.48,1.22,982.95,31.22
6030953,-0.12,0.08,0.98,1.77,3.48,1.34,982.97,31.22
6030992,-0.12,0.08,0.98,1.95,3.36,1.16,982.95,31.23
6031030,-0.12,0.08,0.98,1.83,3.54,1.34,982.88,31.21
6031080,-0.12,0.08,0.98,1.89,3.54,1.4,982.95,31.21
6031118,-0.12,0.08,0.98,2.01,3.36,1.22,982.95,31.22
6031156,-0.12,0.08,0.98,1.89,3.42,1.22,982.96,31.23
6031194,-0.12,0.07,0.98,1.83,3.48,1.28,982.99,31.23
6031232,-0.12,0.07,0.98,1.95,3.48,1.34,982.97,31.22
6031270,-0.12,0.08,0.98,1.77,3.54,1.34,982.95,31.23
6031309,-0.12,0.08,0.98,1.71,3.42,1.34,982.99,31.23
6031347,-0.12,0.07,0.98,1.83,3.42,1.22,982.94,31.23
6031385,-0.12,0.07,0.98,1.89,3.42,1.28,982.98,31.24
6031461,-0.12,0.08,0.98,1.89,3.54,1.34,983.02,31.21
6031499,-0.12,0.07,0.98,2.01,3.54,1.34,982.94,31.22
6031537,-0.12,0.07,0.98,1.71,3.66,1.22,982.95,31.21
6031627,-0.12,0.08,0.98,1.83,3.48,1.28,982.99,31.18
6031665,-0.12,0.08,0.98,1.89,3.48,1.28,982.96,31.19
6031703,-0.12,0.07,0.98,1.83,3.48,1.34,982.98,31.2
6031741,-0.12,0.08,0.98,1.95,3.42,1.22,982.94,31.22
6031779,-0.12,0.07,0.98,1.95,3.48,1.22,982.99,31.22
6031817,-0.12,0.07,0.98,1.83,3.54,1.4,982.95,31.21
6031856,-0.12,0.08,0.98,1.95,3.36,1.28,982.99,31.22
6031906,-0.12,0.08,0.98,1.89,3.54,1.28,983.0,31.22
6031944,-0.12,0.08,0.98,2.14,3.6,1.4,982.97,31.22
6031982,-0.12,0.08,0.98,1.89,3.48,1.22,982.91,31.21
6032020,-0.12,0.08,0.98,1.89,3.42,1.34,982.97,31.22
6032058,-0.12,0.08,0.98,1.89,3.48,1.22,982.98,31.23
6032096,-0.12,0.07,0.98,1.89,3.66,1.16,982.94,31.22
6032134,-0.12,0.08,0.98,1.95,3.48,1.28,983.0,31.22
6032173,-0.12,0.08,0.98,1.95,3.6,1.22,982.95,31.22
6032211,-0.12,0.08,0.98,1.89,3.48,1.16,982.94,31.22
6032249,-0.12,0.07,0.98,1.95,3.48,1.16,982.94,31.22
6032299,-0.12,0.08,0.98,1.89,3.6,1.28,983.01,31.21
6032337,-0.12,0.08,0.98,1.77,3.6,1.1,982.92,31.21
6032375,-0.12,0.07,0.98,2.01,3.42,1.16,983.02,31.22
6032413,-0.12,0.08,0.98,1.89,3.42,1.28,982.96,31.23
6032451,-0.12,0.08,0.98,1.83,3.36,1.16,982.95,31.21
6032490,-0.12,0.08,0.98,1.77,3.3,1.22,982.92,31.22
6032528,-0.12,0.07,0.98,1.77,3.42,1.22,982.9,31.22
6032566,-0.12,0.07,0.98,1.95,3.48,1.34,982.99,31.22
6032604,-0.12,0.08,0.98,1.83,3.48,1.16,982.95,31.23
6032642,-0.12,0.08,0.98,1.89,3.48,1.4,982.95,31.22
6032692,-0.12,0.08,0.98,1.89,3.6,1.34,982.95,31.22
6032730,-0.12,0.08,0.98,1.95,3.54,1.22,982.96,31.23
6032768,-0.12,0.08,0.98,1.77,3.36,1.22,982.93,31.23
6032807,-0.12,0.08,0.98,1.89,3.48,1.1,982.9,31.22
6032845,-0.12,0.08,0.98,1.83,3.36,1.28,982.93,31.23
6032883,-0.12,0.07,0.98,1.89,3.36,1.28,982.97,31.21
6032921,-0.12,0.08,0.98,1.83,3.48,1.16,982.93,31.23
6032959,-0.12,0.08,0.98,1.95,3.48,1.4,982.97,31.22
6032998,-0.12,0.08,0.98,1.95,3.42,1.22,982.97,31.22
6033036,-0.12,0.08,0.98,1.95,3.48,1.34,982.94,31.22
6033086,-0.12,0.08,0.98,1.95,3.6,1.16,983.0,31.21
6033124,-0.12,0.08,0.98,1.95,3.48,1.34,982.96,31.24
6033162,-0.12,0.07,0.98,1.95,3.54,1.22,982.94,31.22
6033200,-0.12,0.08,0.98,1.83,3.6,1.4,983.01,31.24
6033239,-0.12,0.08,0.98,1.83,3.36,1.28,982.99,31.22
6033277,-0.12,0.08,0.98,2.01,3.3,1.28,982.98,31.23
6033315,-0.12,0.08,0.98,1.83,3.42,1.16,982.97,31.22
6033353,-0.12,0.08,0.98,2.08,3.48,1.28,982.98,31.24
6033391,-0.12,0.08,0.98,1.83,3.42,1.16,982.94,31.22
6033429,-0.12,0.08,0.98,1.83,3.48,1.28,983.0,31.22
6033479,-0.12,0.08,0.98,1.95,3.48,1.34,982.96,31.22
6033517,-0.12,0.08,0.98,1.89,3.54,1.22,982.94,31.22
6033555,-0.12,0.08,0.98,2.08,3.42,1.16,982.98,31.23
6033594,-0.12,0.08,0.98,1.89,3.42,1.34,982.97,31.22
6033632,-0.12,0.07,0.98,1.71,3.48,1.16,982.92,31.21
6033670,-0.12,0.08,0.98,1.89,3.54,1.28,982.95,31.22
6033708,-0.12,0.07,0.98,1.95,3.54,1.28,982.94,31.23
6033746,-0.12,0.08,0.98,1.77,3.54,1.1,982.92,31.23
6033784,-0.12,0.08,0.98,1.95,3.48,1.16,983.0,31.23
6033823,-0.12,0.08,0.98,1.83,3.48,1.1,983.02,31.24
6033872,-0.12,0.08,0.98,1.77,3.6,1.22,982.99,31.22
6033910,-0.12,0.08,0.98,2.01,3.66,1.34,982.95,31.22
6033949,-0.12,0.08,0.98,1.83,3.54,1.22,982.95,31.23
6033987,-0.12,0.08,0.98,1.89,3.42,1.34,982.97,31.24
6034025,-0.12,0.08,0.98,1.83,3.42,1.22,982.94,31.23
6034063,-0.12,0.08,0.98,1.95,3.48,1.16,982.94,31.21
6034101,-0.12,0.08,0.98,1.89,3.54,1.28,982.96,31.22
6034139,-0.12,0.08,0.98,1.89,3.54,1.4,982.92,31.23
6034177,-0.12,0.08,0.98,1.89,3.42,1.22,982.98,31.23
6034227,-0.12,0.08,0.98,1.95,3.66,1.1,982.97,31.22
6034266,-0.12,0.08,0.98,1.89,3.54,1.28,982.93,31.22
6034304,-0.12,0.08,0.98,2.14,3.54,1.22,982.97,31.23
6034342,-0.12,0.07,0.98,1.77,3.54,1.4,983.0,31.24
6034380,-0.12,0.07,0.98,1.89,3.54,1.16,982.94,31.23
6034418,-0.12,0.07,0.98,1.83,3.54,1.22,982.96,31.22
6034457,-0.12,0.08,0.98,2.01,3.48,1.1,982.95,31.24
6034495,-0.12,0.08,0.98,1.89,3.36,1.34,982.94,31.21
6034533,-0.12,0.07,0.98,1.89,3.48,1.16,982.94,31.24
6034571,-0.12,0.08,0.98,1.89,3.17,1.34,982.98,31.24
6034647,-0.12,0.08,0.98,1.89,3.48,1.28,983.05,31.22
6034685,-0.12,0.07,0.98,1.95,3.42,1.22,982.98,31.21
6034723,-0.12,0.08,0.98,1.89,3.42,1.22,982.98,31.22
6034813,-0.12,0.07,0.98,1.95,3.3,1.34,982.98,31.19
6034851,-0.12,0.07,0.98,2.08,3.6,1.28,982.97,31.2
6034889,-0.12,0.08,0.98,2.08,3.42,1.16,982.94,31.21
6034927,-0.12,0.08,0.98,1.89,3.48,1.28,982.97,31.22
6034965,-0.12,0.08,0.98,1.89,3.54,1.16,982.94,31.21
6035004,-0.12,0.08,0.98,1.83,3.36,1.28,982.99,31.22
6035042,-0.12,0.08,0.98,1.95,3.54,1.22,982.94,31.23
6035092,-0.12,0.08,0.98,1.89,3.54,1.22,982.97,31.21
6035130,-0.12,0.08,0.98,1.89,3.42,1.28,982.93,31.22
6035168,-0.12,0.08,0.98,2.01,3.48,1.34,982.95,31.21
6035206,-0.12,0.08,0.98,1.95,3.36,1.1,982.9,31.22
6035244,-0.12,0.08,0.98,1.77,3.42,1.28,982.95,31.22
6035282,-0.12,0.08,0.98,1.95,3.6,1.16,982.98,31.24
6035321,-0.12,0.07,0.98,1.71,3.42,1.28,982.88,31.22
6035359,-0.12,0.08,0.98,1.89,3.54,1.22,982.93,31.24
6035397,-0.12,0.08,0.98,2.01,3.42,1.22,982.99,31.23
6035435,-0.12,0.07,0.98,1.95,3.42,1.34,982.89,31.22
