timestamp,acc_x,acc_y,acc_z,rot_x,rot_y,rot_z,qfe,temp,Unnamed: 10
7110523,-0.03,-0.04,1.1,1.16,2.14,1.4,983.35,22.11,
7110561,-0.03,-0.05,1.03,0.67,1.83,1.65,983.31,22.1,
7110599,-0.05,-0.06,1.01,1.1,2.32,1.83,983.37,22.1,
7110637,-0.02,-0.09,1.06,1.28,2.93,1.22,983.32,22.11,
7110676,-0.03,-0.04,1.1,1.59,0.98,1.71,983.16,22.11,
7110726,-0.03,-0.05,1.09,1.53,1.53,1.71,983.1,22.11,
7110764,-0.04,-0.04,1.05,1.16,1.83,1.53,983.31,22.11,
7110802,-0.03,-0.05,1.03,1.34,1.71,1.83,983.17,22.11,
7110840,-0.05,-0.08,1.02,1.1,2.44,1.95,983.29,22.12,
7110879,-0.03,-0.06,1.03,1.22,2.2,1.53,983.22,22.11,
7110917,-0.03,-0.04,1.0,0.79,3.48,1.83,983.29,22.11,
7110955,-0.02,-0.05,1.08,1.04,2.32,1.83,983.18,22.12,
7110994,-0.03,-0.05,1.05,1.28,2.75,1.95,983.13,22.11,
7111032,-0.03,-0.04,1.1,1.53,1.89,1.95,983.08,22.12,
7111070,-0.06,-0.05,1.04,1.46,3.3,2.08,983.08,22.12,
7111120,-0.03,-0.03,1.09,1.83,2.99,1.95,983.02,22.11,
7111158,-0.02,-0.04,1.07,1.46,3.66,1.95,982.89,22.11,
7111197,-0.03,-0.04,1.07,1.53,3.54,2.08,982.77,22.12,
7111235,-0.02,-0.03,1.12,1.89,3.97,2.01,982.69,22.12,
7111273,-0.03,-0.04,1.07,1.59,4.03,2.01,982.6,22.12,
7111312,-0.03,-0.02,1.1,1.89,3.54,2.14,982.49,22.13,
7111350,-0.04,-0.01,1.15,1.71,3.6,2.5,982.33,22.13,
7111388,-0.02,-0.02,1.17,1.53,3.23,2.62,982.17,22.12,
7111426,-0.02,-0.04,1.18,1.1,3.3,2.75,982.28,22.12,
7111476,-0.03,-0.02,1.19,1.28,1.83,2.93,982.2,22.11,
7111515,-0.02,-0.03,1.15,1.46,2.93,3.11,982.09,22.11,
7111553,-0.0,-0.02,1.16,1.22,2.44,2.87,981.92,22.11,
7111591,-0.02,-0.02,1.16,1.34,2.08,3.17,981.89,22.13,
7111630,-0.04,-0.03,1.13,1.28,1.34,3.42,981.91,22.12,
7111668,-0.03,-0.03,1.2,1.04,0.67,3.36,981.88,22.11,
7111706,-0.02,-0.02,1.19,0.73,0.31,3.36,981.84,22.12,
7111744,-0.04,-0.01,1.14,0.55,0.06,3.72,981.81,22.13,
7111783,-0.03,-0.0,1.22,0.98,-0.43,3.72,981.76,22.12,
7111821,-0.02,-0.03,1.2,1.04,0.43,3.78,981.75,22.13,
7111871,-0.02,-0.02,1.24,1.95,0.18,3.78,981.88,22.11,
7111909,-0.02,-0.02,1.15,2.08,0.85,3.85,981.84,22.12,
7111947,-0.03,-0.02,1.2,3.11,0.24,3.42,981.86,22.12,
7111986,-0.02,-0.05,1.12,3.11,2.32,3.78,981.89,22.12,
7112024,-0.0,-0.01,1.14,4.27,1.16,3.54,982.01,22.12,
7112062,-0.02,-0.04,1.11,4.88,3.17,3.72,982.01,22.12,
7112100,-0.02,-0.05,1.0,4.88,2.93,3.72,982.07,22.14,
7112139,-0.02,-0.04,1.08,5.37,2.2,3.48,982.05,22.12,
7112177,-0.01,-0.06,0.97,4.7,4.09,3.42,982.03,22.13,
7112227,-0.01,-0.03,0.93,4.39,4.03,2.99,982.05,22.12,
7112265,0.02,-0.05,0.92,4.15,4.52,3.17,982.12,22.12,
7112304,0.0,-0.06,0.86,3.97,3.97,2.99,982.14,22.12,
7112342,0.01,-0.04,0.88,3.85,3.85,2.81,982.15,22.13,
7112380,0.01,-0.05,0.92,3.85,3.78,2.75,982.06,22.13,
7112418,0.01,-0.05,0.92,3.54,2.26,2.5,982.09,22.13,
7112457,-0.0,-0.05,0.96,3.54,2.01,2.38,982.09,22.13,
7112495,0.01,-0.06,0.94,3.3,3.3,2.2,982.12,22.13,
7112533,0.03,-0.04,0.97,3.54,2.38,1.83,982.04,22.13,
7112571,0.01,-0.02,0.93,3.54,2.44,1.89,981.96,22.13,
7112621,0.02,-0.05,0.88,3.85,2.32,1.77,982.03,22.12,
7112660,0.01,-0.06,0.86,3.78,2.93,1.34,982.18,22.14,
7112698,0.0,-0.07,0.81,4.33,2.5,1.34,982.28,22.14,
7112736,0.0,-0.06,0.75,4.46,2.93,0.98,982.28,22.13,
7112774,0.03,-0.03,0.77,4.94,2.44,0.79,982.24,22.14,
7112813,0.02,-0.07,0.78,5.0,3.48,0.79,982.26,22.14,
7112851,-0.0,-0.07,0.76,4.82,2.99,0.43,982.25,22.14,
7112889,-0.0,-0.06,0.81,5.0,3.6,0.61,982.28,22.15,
7112927,0.02,-0.06,0.75,3.91,5.07,0.37,982.23,22.13,
7112966,-0.01,-0.05,0.82,3.97,4.21,0.18,982.18,22.14,
7113016,-0.0,-0.05,0.83,2.99,5.0,0.24,982.25,22.13,
7113054,0.03,-0.05,0.82,2.81,5.8,0.06,982.19,22.14,
7113092,0.0,-0.04,0.82,2.44,6.47,0.12,982.23,22.14,
7113130,-0.01,-0.03,0.91,1.83,6.47,0.24,982.14,22.14,
7113169,-0.01,-0.06,0.91,2.14,6.71,0.06,982.11,22.14,
7113207,0.0,-0.05,0.89,1.83,7.02,-0.12,982.09,22.14,
7113245,0.01,-0.04,0.96,2.44,6.84,0.0,982.08,22.14,
7113283,-0.01,-0.05,0.83,1.89,7.75,0.06,982.04,22.15,
7113322,0.0,-0.02,0.95,2.56,6.41,-0.18,982.06,22.15,
7113360,0.01,-0.05,0.96,2.5,9.03,-0.24,982.09,22.15,
7113436,-0.03,-0.03,0.98,3.54,6.04,-0.18,982.05,22.12,
7113474,-0.02,-0.02,0.93,3.05,7.39,-0.12,982.07,22.13,
7113512,-0.02,-0.02,1.0,4.15,5.43,-0.06,982.04,22.13,
7113602,-0.01,-0.04,0.9,3.85,3.48,0.18,982.02,22.09,
7113641,-0.02,-0.05,0.8,2.62,4.21,0.18,982.06,22.11,
7113679,-0.0,-0.03,0.88,2.75,1.83,0.31,982.09,22.12,
7113717,0.01,-0.05,0.8,1.83,2.01,0.18,982.07,22.13,
7113755,-0.01,-0.03,0.85,1.1,1.4,0.12,982.06,22.13,
7113794,-0.0,-0.04,0.85,0.92,2.2,0.49,982.04,22.12,
7113844,0.01,-0.02,0.95,0.06,2.26,0.0,982.12,22.12,
7113882,-0.02,-0.04,0.95,-0.31,2.93,-0.06,982.08,22.14,
7113920,-0.01,-0.04,0.97,-0.98,3.6,-0.18,981.98,22.13,
7113958,0.01,-0.05,0.95,-1.46,4.88,-0.24,981.97,22.13,
7113997,-0.01,-0.01,0.97,-1.83,4.39,-0.31,981.89,22.13,
7114035,-0.01,-0.01,0.99,-2.01,5.07,-0.24,981.63,22.11,
7114073,0.01,-0.0,1.07,-2.2,4.88,-0.49,981.52,22.13,
7114111,0.01,-0.02,1.11,-1.65,5.25,-0.67,981.25,22.14,
7114150,-0.03,-0.02,1.1,-1.89,5.55,-0.31,981.16,22.14,
7114188,-0.01,0.01,1.2,-1.22,5.19,-0.61,981.09,22.15,
7114238,-0.03,0.01,1.16,-0.85,6.29,-0.67,981.07,22.12,
7114276,-0.02,0.0,1.16,-0.67,6.23,-0.55,981.04,22.13,
7114314,-0.02,-0.0,1.18,-0.06,6.9,-0.49,981.1,22.13,
7114353,-0.01,0.01,1.13,0.55,6.65,-0.43,981.08,22.14,
7114391,-0.03,0.01,1.13,1.65,5.8,-0.55,980.98,22.14,
7114429,-0.01,-0.0,1.1,2.14,6.9,-0.61,981.01,22.14,
7114467,-0.01,-0.0,1.09,2.62,7.14,-0.73,981.01,22.15,
7114506,-0.03,-0.0,1.08,2.93,7.81,-0.37,980.93,22.13,
7114544,-0.02,-0.01,1.07,3.17,7.75,-0.49,980.98,22.15,
7114594,-0.02,0.02,1.16,3.42,6.9,-0.73,980.95,22.13,
7114632,-0.02,-0.0,1.08,2.87,8.3,-0.55,980.92,22.13,
7114670,-0.01,-0.01,1.09,2.93,7.51,-0.67,980.96,22.13,
7114709,-0.05,-0.01,1.06,2.26,8.61,-0.92,980.98,22.14,
7114747,-0.04,-0.0,1.09,2.32,8.18,-0.49,981.07,22.14,
7114785,-0.02,-0.0,1.06,2.32,7.93,-0.79,981.07,22.15,
7114823,-0.02,-0.0,1.04,2.2,6.77,-0.85,981.09,22.13,
7114862,-0.02,-0.01,1.05,1.71,7.2,-0.37,981.02,22.15,
7114900,-0.02,-0.02,1.0,1.16,6.23,-0.31,981.04,22.14,
7114938,-0.03,-0.02,1.01,1.34,4.7,-0.12,981.04,22.14,
7114988,-0.0,-0.02,0.9,0.24,2.26,0.0,981.07,22.14,
7115026,-0.01,-0.02,0.91,0.55,1.53,0.0,981.05,22.14,
7115064,0.01,-0.03,0.95,0.18,0.98,-0.31,981.05,22.16,
7115103,-0.02,-0.02,0.99,-0.12,0.12,-0.24,981.06,22.15,
7115141,-0.02,-0.0,1.05,0.18,-0.67,-0.12,981.08,22.14,
7115179,-0.05,-0.01,1.06,0.61,-0.31,-0.06,981.08,22.15,
7115217,-0.03,-0.03,1.0,0.73,0.49,-0.43,981.03,22.15,
7115256,-0.05,-0.02,1.0,1.53,-0.18,-0.55,981.06,22.14,
7115294,-0.04,-0.03,0.92,1.04,0.67,-0.37,981.0,22.15,
7115344,-0.0,-0.0,1.01,1.46,0.12,-0.31,980.87,22.14,
7115382,-0.04,-0.02,0.98,0.24,0.79,-0.37,980.99,22.15,
7115420,-0.04,-0.01,1.04,0.49,-0.37,-0.31,980.92,22.15,
7115459,-0.06,-0.0,1.06,0.24,1.22,-0.31,980.92,22.15,
7115497,-0.05,-0.02,1.05,0.49,0.31,-0.24,980.89,22.15,
7115535,-0.05,0.0,1.01,0.12,0.67,-0.12,980.95,22.15,
7115573,-0.04,-0.01,1.02,0.37,0.98,0.0,981.02,22.15,
7115612,-0.02,0.0,0.99,0.0,1.46,0.31,981.04,22.15,
7115650,-0.02,0.0,1.09,0.12,0.0,0.37,981.07,22.15,
7115688,-0.06,-0.02,1.0,-0.43,1.28,0.37,981.15,22.15,
7115738,-0.03,0.0,1.09,0.67,0.49,0.37,981.16,22.14,
7115776,-0.02,-0.01,1.04,0.55,1.95,0.06,981.26,22.13,
7115814,-0.03,0.0,1.0,0.73,-0.24,0.43,981.34,22.14,
7115853,-0.04,-0.0,1.01,1.53,1.53,0.49,981.42,22.14,
7115891,-0.03,-0.01,0.96,1.04,2.2,0.37,981.57,22.13,
7115929,-0.03,-0.01,1.0,1.4,1.22,0.31,981.69,22.15,
7115967,-0.03,-0.01,0.98,0.92,1.46,0.31,981.87,22.14,
7116006,-0.05,-0.01,1.05,1.4,1.34,0.37,981.99,22.15,
7116044,-0.02,-0.03,1.06,0.98,1.71,0.43,982.22,22.13,
7116082,-0.02,-0.03,1.05,1.16,1.65,0.31,982.34,22.14,
7116132,-0.02,-0.02,0.98,1.16,2.38,0.43,982.49,22.13,
7116170,-0.02,-0.03,0.99,1.46,2.2,0.31,982.43,22.14,
7116209,-0.03,-0.03,0.91,1.1,2.81,0.18,982.41,22.13,
7116247,-0.05,-0.04,0.93,1.4,4.21,0.24,982.54,22.14,
7116285,-0.01,-0.04,0.95,1.1,4.58,0.18,982.54,22.14,
7116323,-0.03,-0.04,0.96,1.22,3.91,0.06,982.53,22.14,
7116362,-0.03,-0.04,0.88,0.49,5.74,0.06,982.65,22.14,
7116400,-0.03,-0.03,0.89,0.49,4.94,0.06,982.84,22.15,
7116438,-0.03,-0.03,0.92,1.1,4.52,0.31,982.96,22.14,
7116514,-0.02,-0.03,0.94,0.67,3.36,0.24,982.9,22.11,
7116552,-0.01,-0.04,0.9,0.06,4.52,0.31,982.95,22.13,
7116591,-0.01,-0.02,0.93,-0.18,1.46,0.49,982.97,22.13,
7116681,-0.02,-0.02,1.01,-0.61,1.77,0.43,982.94,22.1,
7116719,0.0,-0.01,1.01,-1.04,1.53,0.43,983.03,22.12,
7116757,-0.04,0.01,1.07,0.06,0.73,0.43,983.08,22.13,
7116795,-0.05,-0.04,1.03,-0.06,2.08,0.43,983.06,22.13,
7116834,0.01,-0.01,1.14,0.73,2.01,0.12,983.08,22.13,
7116872,-0.03,-0.03,1.07,0.55,3.11,0.43,983.08,22.13,
7116910,-0.06,-0.01,0.94,0.79,2.99,0.37,983.22,22.13,
7116960,-0.02,-0.03,0.96,1.22,4.21,-0.06,983.22,22.13,
7116998,0.0,-0.03,0.96,1.46,2.69,0.0,983.19,22.13,
7117037,0.01,-0.03,1.0,1.4,2.38,0.06,983.18,22.14,
7117075,-0.02,-0.01,0.97,0.98,3.72,0.0,983.15,22.13,
7117113,-0.04,-0.01,1.03,1.77,2.44,0.12,983.13,22.14,
7117151,-0.04,-0.04,0.99,1.04,3.3,0.0,983.1,22.14,
7117190,-0.05,-0.05,0.96,0.85,2.69,0.0,983.07,22.14,
7117228,-0.05,-0.03,0.88,-0.24,3.72,0.06,983.11,22.13,
7117266,-0.02,0.0,0.93,-0.49,2.32,-0.37,983.17,22.13,
7117304,-0.03,-0.03,0.96,-0.37,2.5,-0.18,983.17,22.15,
7117354,-0.04,-0.0,1.01,-1.1,1.71,0.06,983.07,22.12,
7117393,-0.07,-0.0,1.08,-1.22,2.69,0.06,983.07,22.14,
7117431,-0.05,-0.0,1.06,-1.46,2.32,0.06,982.96,22.14,
7117469,-0.04,0.05,1.15,-1.16,0.85,0.06,983.05,22.13,
7117507,-0.04,-0.01,1.11,-1.22,2.69,0.18,983.15,22.15,
7117546,-0.07,0.01,1.08,-1.1,1.53,0.18,983.17,22.14,
7117584,-0.05,0.02,1.16,-0.92,1.89,0.24,983.17,22.13,
7117622,-0.04,0.02,1.1,-1.04,1.59,0.37,982.99,22.14,
7117660,-0.06,0.01,1.09,-0.49,1.77,0.61,983.0,22.13,
7117710,-0.06,0.01,1.06,-0.37,2.5,0.67,983.06,22.12,
7117749,-0.04,0.01,1.03,-0.06,2.26,0.55,983.13,22.13,
7117787,-0.04,0.01,1.03,0.43,2.62,0.79,983.06,22.13,
7117825,-0.03,0.01,1.07,1.04,2.44,0.98,983.14,22.13,
7117863,-0.04,0.01,0.98,1.1,3.23,0.98,983.18,22.14,
7117902,-0.08,-0.01,1.02,1.83,2.56,1.04,983.1,22.14,
7117940,-0.05,-0.02,0.96,2.26,3.54,1.34,983.25,22.14,
7117978,-0.05,-0.02,0.94,2.56,2.56,1.28,983.23,22.14,
7118016,-0.05,0.01,0.87,2.62,2.75,1.65,983.18,22.14,
7118055,-0.05,-0.01,0.85,2.62,1.89,1.71,983.18,22.13,
7118105,-0.04,-0.02,0.9,2.32,1.71,2.14,983.12,22.12,
7118143,-0.05,0.01,0.95,1.95,0.92,2.26,983.13,22.13,
7118181,-0.05,-0.01,0.95,1.65,1.22,2.38,983.12,22.13,
7118219,-0.05,0.0,0.96,0.73,1.34,2.5,983.14,22.13,
7118258,-0.05,0.0,0.97,0.55,1.04,2.62,983.04,22.13,
7118296,-0.04,-0.0,0.88,-0.55,1.89,2.87,983.14,22.13,
7118334,-0.02,0.03,0.94,-0.06,1.04,2.62,983.07,22.14,
7118372,-0.05,0.01,0.95,-0.67,1.59,2.81,983.12,22.14,
7118411,-0.01,0.02,0.98,-1.04,1.1,2.87,983.19,22.14,
7118461,-0.05,0.01,0.97,-1.04,1.1,2.81,983.16,22.12,
7118499,-0.02,0.03,1.02,-1.04,1.46,2.93,982.93,22.13,
7118537,0.0,0.03,1.0,-1.34,1.59,2.93,982.97,22.13,
7118575,-0.04,0.05,1.01,-1.22,0.55,3.05,982.89,22.14,
7118614,-0.03,0.05,0.96,-1.22,0.92,3.05,982.94,22.12,
7118652,0.0,0.02,0.96,-1.53,1.22,2.44,982.86,22.14,
7118690,-0.02,0.02,0.97,-2.32,0.92,2.56,983.0,22.13,
7118728,-0.03,0.02,1.0,-1.95,0.55,2.5,982.88,22.13,
7118767,-0.0,0.04,1.01,-2.26,1.71,2.01,982.91,22.14,
7118805,-0.01,0.05,1.0,-2.26,1.16,1.83,982.86,22.14,
7118855,-0.04,0.04,1.0,-2.26,1.53,2.08,982.78,22.12,
7118893,-0.03,0.05,0.98,-2.69,2.26,1.77,982.76,22.13,
7118931,-0.03,0.07,1.01,-2.81,2.75,1.65,982.69,22.13,
7118970,-0.01,0.07,0.98,-3.05,1.34,1.83,982.65,22.14,
7119008,-0.02,0.07,1.12,-2.62,-0.12,1.89,982.66,22.14,
7119046,-0.01,0.07,1.05,-3.42,0.73,1.65,982.69,22.13,
7119084,-0.02,0.09,1.13,-2.62,0.43,1.77,982.65,22.13,
7119123,-0.02,0.08,1.1,-2.62,0.06,1.77,982.59,22.13,
7119161,-0.02,0.1,1.13,-2.01,-1.16,1.59,982.55,22.13,
7119199,-0.03,0.06,1.01,-2.14,0.43,1.34,982.52,22.13,
7119249,-0.02,0.09,1.07,-1.4,-0.73,1.22,982.38,22.12,
7119287,-0.02,0.09,1.03,-1.46,0.12,1.22,982.46,22.13,
7119326,-0.02,0.09,1.04,-1.16,-1.53,1.16,982.54,22.13,
7119364,-0.03,0.08,1.08,-0.43,-0.98,1.22,982.48,22.13,
7119402,-0.03,0.07,1.03,0.0,-0.49,1.16,982.6,22.13,
7119440,-0.04,0.07,1.08,1.16,-0.85,0.85,982.68,22.13,
7119479,-0.02,0.08,0.96,1.04,-0.06,0.98,982.57,22.14,
7119517,-0.03,0.09,1.05,2.08,-0.61,0.55,982.41,22.14,
7119555,0.0,0.09,0.98,1.34,0.55,0.73,982.24,22.13,
7119631,-0.04,0.06,0.98,1.4,1.4,0.61,982.07,22.1,
7119669,-0.02,0.1,1.04,1.46,-0.12,0.49,982.09,22.13,
7119707,-0.03,0.12,1.13,1.95,-0.06,0.49,981.97,22.11,
7119797,-0.03,0.09,1.04,0.37,2.26,0.31,981.95,22.09,
7119836,-0.02,0.09,1.03,0.12,2.44,0.37,981.95,22.12,
7119874,-0.01,0.07,1.06,0.0,3.54,0.31,981.98,22.11,
7119912,-0.05,0.04,1.09,0.31,3.36,0.49,982.06,22.12,
7119950,0.01,0.12,1.5,5.49,0.31,0.06,982.08,22.1,
7119989,0.01,0.21,1.23,5.19,9.16,0.18,982.03,22.12,
7120027,0.01,0.06,0.82,8.97,7.81,0.37,981.97,22.13,
7120077,-0.04,0.11,0.98,10.74,3.11,0.06,981.88,22.11,
7120115,-0.02,0.05,0.88,8.06,7.45,0.37,981.88,22.12,
7120153,-0.06,-0.01,0.92,8.18,5.37,0.79,981.86,22.12,
7120192,-0.06,0.03,0.93,7.69,4.7,0.61,981.91,22.13,
7120230,-0.06,0.07,0.94,5.55,5.68,0.79,981.87,22.12,
7120268,-0.01,0.09,0.93,5.25,5.25,1.22,981.87,22.13,
7120306,-0.04,0.06,0.94,4.46,4.7,1.34,981.86,22.13,
7120344,-0.01,0.04,0.94,4.09,5.0,1.46,982.0,22.14,
7120383,-0.04,0.06,0.95,3.11,5.86,1.65,981.95,22.13,
7120421,0.05,0.09,1.11,5.07,5.55,1.46,981.9,22.14,
7120471,0.01,0.03,1.16,9.52,4.52,1.89,981.92,22.11,
7120509,-0.17,-0.3,1.26,15.2,2.38,1.77,981.98,22.13,
7120547,-0.1,-0.35,1.5,16.17,-2.01,1.77,982.02,22.14,
7120586,-0.26,-0.22,1.15,14.89,1.46,2.38,981.92,22.14,
7120624,-0.19,-0.21,1.67,10.5,-3.85,2.01,981.94,22.14,
7120662,0.31,-0.14,0.46,14.53,9.03,3.3,981.85,22.14,
7120700,0.02,0.18,0.94,8.12,-5.55,2.08,981.85,22.15,
7120739,-0.05,-0.15,0.53,11.6,8.3,2.81,981.78,22.14,
7120777,0.19,0.11,0.91,7.39,-7.32,2.62,981.73,22.14,
7120815,0.08,0.12,0.75,7.63,7.14,2.81,981.69,22.14,
7120865,0.17,0.11,1.47,8.48,-1.16,2.26,981.73,22.13,
7120903,-0.03,-0.1,0.72,-4.58,10.86,2.75,981.72,22.13,
7120942,-0.02,-0.06,1.04,-0.79,1.34,2.2,981.73,22.14,
7120980,0.14,-0.06,1.11,6.77,1.59,1.59,981.75,22.14,
7121018,0.06,0.0,0.57,-10.31,5.62,1.16,981.65,22.14,
7121056,0.05,0.24,1.57,0.18,-11.47,1.77,981.76,22.14,
7121095,0.1,0.15,0.95,-9.64,3.36,1.1,981.71,22.13,
7121133,0.05,-0.03,1.3,1.4,-5.98,1.4,981.62,22.13,
7121171,-0.08,-0.14,0.56,-10.38,3.11,1.1,981.82,22.12,
7121221,-0.14,-0.08,1.13,4.03,-0.49,1.59,981.7,22.12,
7121259,0.06,-0.08,0.72,-3.54,-0.85,0.67,981.73,22.12,
7121298,0.02,0.06,0.73,-6.23,2.38,0.79,981.69,22.11,
7121336,0.1,-0.09,0.93,3.78,-0.24,0.92,981.7,22.12,
7121374,-0.04,-0.08,1.07,-4.09,1.89,0.92,981.78,22.13,
7121412,-0.02,0.03,1.91,2.44,-4.46,0.85,981.73,22.13,
7121451,0.03,0.19,1.54,-15.44,6.04,-0.06,981.79,22.13,
7121489,0.02,0.08,1.33,-0.06,-2.38,0.55,981.68,22.13,
7121527,0.15,0.05,0.59,-4.03,3.36,0.67,981.68,22.13,
7121565,-0.03,-0.04,0.8,0.06,-2.5,0.37,981.75,22.12,
7121615,-0.03,-0.01,0.68,-4.7,4.94,1.04,981.79,22.12,
7121654,-0.06,-0.06,0.88,0.0,0.61,0.61,981.77,22.12,
7121692,-0.06,-0.15,1.1,-1.89,1.71,0.61,981.73,22.13,
7121730,0.01,-0.33,0.73,0.61,10.13,1.04,981.77,22.13,
7121768,-0.07,-0.01,1.58,3.72,-4.64,0.37,981.63,22.13,
7121807,0.1,-0.12,0.61,-7.45,15.75,1.34,981.75,22.13,
7121845,-0.01,0.08,1.29,1.22,-1.65,0.43,981.68,22.13,
7121883,0.07,-0.01,0.6,-10.56,12.94,0.73,981.65,22.13,
7121921,0.02,0.07,1.09,-1.46,-0.49,0.31,981.73,22.15,
7121960,-0.02,0.01,0.85,-4.88,9.83,1.04,981.74,22.13,
7122010,-0.1,0.02,1.24,2.44,-4.52,0.79,981.84,22.13,
7122048,-0.06,0.13,1.15,3.42,4.76,1.34,981.78,22.14,
7122086,0.05,-0.0,0.96,6.29,-0.73,1.04,981.82,22.14,
7122124,-0.02,0.03,0.82,3.42,2.87,1.46,981.81,22.13,
7122163,-0.04,0.13,0.98,6.16,-2.38,1.59,981.81,22.14,
7122201,-0.02,0.0,0.93,5.13,2.81,1.46,981.78,22.14,
7122239,-0.1,-0.07,1.04,4.09,0.0,1.53,981.83,22.14,
7122277,-0.13,0.04,1.79,4.46,2.62,1.71,981.82,22.14,
7122316,-0.03,-0.14,1.4,1.22,-1.04,1.71,981.86,22.14,
7122366,-0.09,-0.1,0.62,3.6,10.38,2.32,981.84,22.14,
7122404,-0.08,0.11,1.02,14.04,-10.93,1.71,981.72,22.14,
7122442,0.14,-0.1,0.95,-3.17,9.28,1.46,981.89,22.15,
7122480,-0.14,-0.16,1.32,6.96,4.27,1.71,981.93,22.13,
7122519,-0.0,-0.08,1.4,8.12,-0.98,2.26,981.83,22.15,
7122557,0.11,-0.19,0.79,-1.22,6.16,1.46,981.7,22.15,
7122595,-0.01,-0.13,0.91,3.17,2.5,1.83,981.6,22.14,
7122633,-0.08,0.01,0.58,14.22,-2.69,1.95,981.62,22.14,
7122672,-0.05,-0.19,0.47,10.8,5.49,2.08,981.57,22.15,
7122710,-0.18,0.01,0.81,6.41,-4.64,1.77,981.64,22.15,
7122786,-0.06,-0.04,1.27,3.97,5.31,2.01,981.63,22.13,
7122824,-0.1,0.1,1.69,9.16,-8.0,1.89,981.7,22.13,
7122862,-0.08,-0.07,0.96,8.36,6.84,2.5,981.59,22.14,
7122952,0.02,-0.04,-0.11,1.53,13.0,2.2,981.64,22.09,
7122991,-0.12,0.02,0.91,0.73,2.14,1.83,981.58,22.11,
7123029,0.02,-0.06,0.42,-5.68,15.69,1.34,981.62,22.12,
7123067,0.03,0.1,0.62,-0.12,2.08,1.89,981.56,22.11,
7123105,-0.03,-0.11,0.65,5.07,10.19,1.71,981.49,22.13,
7123144,-0.01,0.05,0.69,-6.53,5.25,1.65,981.48,22.13,
7123194,-0.01,-0.02,1.33,8.73,1.59,1.22,981.69,22.13,
7123232,0.12,-0.09,1.16,-10.56,12.7,1.16,981.73,22.13,
7123270,-0.08,-0.2,2.34,11.6,2.38,0.73,981.76,22.12,
7123308,0.19,-0.19,0.6,-13.79,19.1,0.61,981.76,22.13,
7123347,-0.01,0.12,1.63,4.7,-8.73,1.71,981.57,22.13,
7123385,0.06,-0.18,0.39,-2.32,13.24,0.55,981.56,22.14,
7123423,-0.04,-0.08,0.96,5.68,-8.0,1.22,981.5,22.14,
7123461,-0.07,-0.01,0.86,7.81,12.94,0.79,981.59,22.14,
7123500,-0.11,0.05,1.47,-1.04,-9.46,1.1,981.6,22.14,
7123538,-0.11,-0.2,1.11,5.37,10.01,1.28,981.57,22.15,
7123588,-0.0,-0.05,0.56,4.09,4.15,0.73,981.65,22.13,
7123626,-0.0,-0.03,0.94,10.68,5.62,1.1,981.52,22.13,
7123664,0.03,-0.08,0.04,-23.38,7.14,0.0,981.53,22.14,
7123703,-0.17,-0.17,0.37,15.93,-9.28,1.77,981.63,22.14,
7123741,-0.13,0.11,0.18,-22.34,15.14,0.92,981.75,22.14,
7123779,-0.31,-0.33,0.04,32.04,-21.3,3.3,981.95,22.14,
7123817,0.23,0.12,1.94,-29.48,17.4,0.55,981.97,22.14,
7123856,-0.27,-0.07,1.26,5.19,-16.36,3.91,982.11,22.15,
7123894,-0.04,0.27,0.42,-8.12,16.11,1.65,982.16,22.15,
7123944,0.01,-0.11,1.03,-15.75,0.18,3.78,982.38,22.14,
7123982,-0.01,0.05,1.21,-10.19,12.21,-1.46,982.69,22.14,
7124020,-0.05,-0.09,0.68,0.31,-3.6,2.38,982.8,22.14,
7124059,0.05,-0.01,0.59,4.27,12.76,0.79,982.8,22.15,
7124097,-0.09,-0.05,1.42,-3.17,-4.58,1.71,982.82,22.15,
7124135,-0.03,-0.13,1.16,0.98,0.79,1.22,982.7,22.14,
7124173,0.1,-0.06,0.59,12.21,8.3,2.08,982.78,22.16,
7124212,-0.04,-0.01,1.1,7.87,0.0,1.34,982.74,22.15,
7124250,0.12,-0.07,0.95,-0.73,6.04,1.22,982.71,22.16,
7124288,0.04,-0.35,0.6,5.62,4.7,2.01,982.69,22.13,
7124338,0.28,-0.09,1.16,3.11,2.56,1.59,982.57,22.15,
7124376,-0.11,-0.46,1.63,-3.72,4.52,1.65,982.72,22.15,
7124415,-0.18,-0.29,0.87,21.61,-0.67,2.32,982.67,22.15,
7124453,0.11,0.16,1.93,-25.76,10.13,0.24,982.79,22.15,
7124491,-0.15,-0.17,1.29,-0.31,10.01,1.83,982.84,22.15,
7124529,-0.09,-0.19,1.01,9.46,-0.55,0.55,982.69,22.16,
7124568,0.03,0.19,0.78,6.29,-7.87,0.73,982.66,22.14,
7124606,-0.1,-0.18,0.5,-6.53,3.23,0.85,982.71,22.15,
7124644,-0.19,-0.05,0.88,0.61,-3.54,1.1,982.81,22.15,
7124694,-0.11,-0.01,0.98,-0.18,-0.79,1.16,982.75,22.14,
7124732,-0.09,-0.06,0.94,8.42,1.28,1.04,982.8,22.15,
7124771,0.01,0.13,0.68,3.91,0.18,1.4,982.8,22.15,
7124809,-0.06,-0.22,0.93,19.17,9.46,1.77,982.76,22.16,
7124847,0.01,-0.05,0.66,-9.89,11.23,1.46,982.67,22.15,
7124885,-0.09,-0.12,1.27,16.11,7.75,1.4,982.75,22.15,
7124924,-0.05,-0.07,0.72,-4.03,9.34,1.4,982.81,22.15,
7124962,-0.02,0.04,1.27,10.93,-4.58,1.28,982.75,22.15,
7125000,0.05,-0.11,0.99,9.09,6.1,1.34,982.74,22.15,
7125038,0.05,-0.09,0.76,-1.83,3.78,1.1,982.72,22.16,
7125088,-0.02,0.02,0.46,5.98,6.04,0.85,982.69,22.14,
7125127,-0.0,-0.13,1.27,0.61,-4.15,1.53,982.75,22.16,
7125165,-0.17,-0.4,0.73,13.73,8.12,1.65,982.77,22.14,
7125203,0.24,0.05,1.44,-5.0,1.71,1.71,982.79,22.15,
7125241,0.07,-0.17,1.05,12.7,2.01,0.85,982.69,22.15,
7125280,0.06,-0.18,1.15,3.42,-3.72,0.92,982.65,22.15,
7125318,0.08,-0.19,1.17,0.06,4.21,1.53,982.78,22.16,
7125356,-0.13,-0.04,0.95,7.2,4.76,1.04,982.69,22.15,
7125394,0.04,-0.12,0.67,1.1,-2.01,1.59,982.76,22.15,
7125433,0.02,-0.13,1.14,9.4,-2.87,0.85,982.73,22.15,
7125483,-0.08,-0.12,0.51,-6.71,8.0,0.43,982.76,22.14,
7125521,-0.15,-0.03,0.91,1.95,-9.64,1.28,982.71,22.15,
7125559,-0.15,-0.2,0.99,3.6,3.36,1.4,982.77,22.14,
7125597,-0.01,0.19,1.5,4.03,-2.5,0.98,982.78,22.15,
7125636,-0.1,0.04,1.71,5.25,-3.85,0.98,982.78,22.15,
7125674,-0.16,-0.08,0.91,2.32,1.83,1.04,982.64,22.14,
7125712,-0.06,0.26,1.13,8.24,-6.9,0.73,982.75,22.14,
7125750,-0.2,-0.15,0.87,-2.26,5.62,1.4,982.75,22.15,
7125789,0.03,0.0,0.86,4.88,-3.23,0.92,982.69,22.14,
7125865,-0.05,-0.12,1.18,7.87,-2.99,1.28,982.54,22.11,
7125903,-0.05,0.02,1.34,-3.05,5.49,0.98,982.58,22.13,
7125941,0.06,-0.1,1.33,-2.56,-0.98,0.55,982.68,22.14,
7126031,-0.09,-0.21,1.12,0.92,-3.05,1.34,982.6,22.09,
7126069,-0.18,-0.13,0.81,-3.54,7.02,1.04,982.65,22.11,
7126107,-0.06,0.21,0.81,-1.28,-4.15,0.85,982.77,22.11,
7126146,-0.04,-0.31,0.9,13.31,-1.71,1.22,982.75,22.13,
7126184,0.08,0.13,1.34,2.26,1.53,1.89,982.73,22.12,
7126222,-0.16,0.02,1.41,5.13,-0.24,1.04,982.68,22.12,
7126260,0.08,-0.14,0.68,1.34,8.24,1.4,982.65,22.12,
7126310,-0.08,0.0,0.96,4.7,0.31,1.28,982.64,22.11,
7126349,0.02,-0.15,0.62,4.46,4.52,0.92,982.6,22.12,
7126387,-0.13,-0.04,1.05,2.44,-4.33,1.04,982.58,22.13,
7126425,0.12,-0.15,0.63,5.55,8.0,1.34,982.59,22.13,
7126463,-0.07,-0.09,1.46,5.74,-7.26,1.53,982.55,22.13,
7126502,0.1,-0.1,1.46,-2.38,4.27,2.01,982.57,22.14,
7126540,-0.01,-0.24,1.04,-1.46,7.81,2.01,982.68,22.13,
7126578,0.03,-0.06,0.57,-4.82,5.07,1.53,982.59,22.14,
7126616,-0.02,-0.06,1.05,-5.19,1.83,2.08,982.61,22.13,
7126655,0.11,-0.21,1.21,-10.07,1.77,1.53,982.67,22.14,
7126705,-0.11,0.04,0.78,-1.28,11.84,2.32,982.67,22.13,
7126743,-0.12,-0.26,1.16,-4.21,0.67,2.08,982.68,22.13,
7126781,-0.05,-0.16,0.74,0.06,9.34,2.2,982.64,22.13,
7126819,-0.11,-0.2,1.22,0.18,-0.43,1.83,982.63,22.13,
7126858,0.06,-0.14,1.09,-6.1,11.96,1.59,982.62,22.14,
7126896,0.02,-0.03,1.43,3.54,2.87,1.22,982.65,22.14,
7126934,0.09,-0.15,0.74,-7.14,14.1,1.83,982.69,22.14,
7126972,-0.09,0.01,1.21,7.39,11.66,1.22,982.66,22.14,
7127011,-0.03,-0.15,0.33,3.72,9.89,1.53,982.67,22.15,
7127061,-0.05,-0.11,1.17,11.11,2.62,0.92,982.63,22.13,
7127099,-0.06,-0.11,0.8,-1.89,4.52,0.98,982.56,22.14,
7127137,-0.01,-0.19,1.56,9.52,3.66,1.04,982.59,22.14,
7127175,0.06,-0.15,0.9,4.7,6.9,1.46,982.6,22.14,
7127214,0.01,-0.07,0.99,-3.72,2.56,0.67,982.52,22.14,
7127252,0.07,-0.09,0.58,0.85,9.64,1.1,982.56,22.14,
7127290,0.18,-0.2,0.69,-8.61,6.16,0.98,982.54,22.14,
7127328,0.08,0.01,1.39,6.04,-0.61,0.31,982.69,22.15,
7127367,0.02,-0.09,0.6,0.18,5.07,1.04,982.62,22.13,
7127405,-0.06,-0.22,1.34,2.99,1.1,0.98,982.52,22.14,
7127455,-0.1,-0.23,0.84,-0.98,5.8,1.04,982.5,22.13,
7127493,0.05,0.0,1.12,4.64,0.73,0.67,982.58,22.13,
7127531,0.04,-0.05,0.44,-3.54,9.83,0.92,982.55,22.13,
7127570,-0.02,0.06,0.92,8.85,-6.65,0.92,982.57,22.14,
7127608,-0.1,-0.11,0.66,11.9,3.3,0.85,982.51,22.14,
7127646,-0.03,0.01,1.35,4.94,-3.97,1.28,982.65,22.13,
7127684,-0.16,-0.15,1.73,9.34,2.44,1.65,982.54,22.15,
7127723,-0.05,-0.05,0.73,-5.43,5.25,1.04,982.44,22.13,
7127761,-0.16,0.24,1.25,1.95,-6.04,1.1,982.58,22.14,
7127811,-0.08,-0.08,0.59,4.82,-0.37,1.59,982.61,22.13,
7127849,-0.07,-0.0,1.12,6.29,3.54,1.16,982.6,22.13,
7127887,0.02,-0.05,0.57,-2.14,5.49,1.65,982.54,22.12,
7127926,-0.02,0.03,1.2,6.04,-4.03,1.16,982.39,22.13,
7127964,-0.02,-0.18,0.6,0.92,1.71,1.28,982.56,22.14,
7128002,-0.01,-0.24,1.38,6.04,-4.94,1.65,982.55,22.14,
7128040,-0.02,0.11,0.89,-5.49,4.88,1.77,982.45,22.13,
7128079,-0.07,-0.08,0.73,5.98,-4.27,1.1,982.54,22.14,
7128117,-0.15,0.04,1.79,5.37,-9.16,1.59,982.41,22.14,
7128155,-0.03,-0.26,0.67,-10.86,12.94,1.65,982.29,22.12,
7128205,-0.11,0.28,1.82,5.19,-7.14,2.01,982.26,22.12,
7128243,0.11,0.03,1.35,-18.86,9.4,-0.49,982.34,22.13,
7128282,-0.19,-0.17,0.11,19.84,-18.49,3.11,982.29,22.14,
7128320,0.02,-0.16,1.11,-7.32,18.62,0.61,982.24,22.13,
7128358,0.05,0.09,1.31,20.75,-7.45,2.81,982.04,22.12,
7128397,-0.1,-0.27,-0.35,13.24,1.46,-0.98,982.07,22.14,
7128435,0.16,0.22,0.96,16.85,-27.71,3.78,981.98,22.13,
7128473,0.2,-0.22,0.85,-20.26,23.32,0.24,981.93,22.13,
7128511,-0.06,-0.45,0.95,4.7,-16.78,4.21,981.83,22.14,
7128561,-0.05,-0.36,0.4,13.12,-0.73,2.56,981.8,22.12,
7128600,-0.03,0.07,0.98,-6.1,-2.56,1.83,981.95,22.13,
7128638,-0.08,-0.01,0.74,1.22,1.1,1.89,981.95,22.12,
7128676,-0.12,0.05,0.35,8.61,6.96,1.71,981.9,22.13,
7128714,0.0,0.09,1.03,-2.14,1.16,1.59,981.87,22.11,
7128752,-0.07,0.04,0.5,5.31,6.23,1.77,981.9,22.12,
7128791,-0.0,0.09,1.36,3.54,-4.15,1.1,981.88,22.13,
7128829,-0.1,0.08,0.57,-1.1,8.18,1.04,981.98,22.12,
7128867,-0.09,0.09,1.8,11.72,-9.83,0.98,981.92,22.13,
7128905,-0.01,-0.17,0.81,-0.85,9.28,1.1,982.03,22.13,
7128983,-0.1,-0.02,0.92,7.87,4.33,1.59,981.89,22.09,
7129021,-0.05,0.1,1.67,7.75,-1.16,0.79,981.86,22.1,
7129059,0.02,-0.14,0.47,-1.28,15.38,1.1,981.74,22.11,
7129149,-0.06,-0.16,0.04,-2.14,10.8,0.85,981.77,22.09,
7129187,-0.14,0.02,0.45,-4.15,-2.75,2.44,981.84,22.1,
7129226,-0.13,0.12,1.5,-0.92,2.38,1.53,981.82,22.1,
7129264,-0.0,-0.12,1.03,-16.3,7.45,1.4,981.94,22.11,
7129302,0.04,0.15,1.85,0.49,-3.11,0.49,981.91,22.1,
7129340,0.04,0.06,1.18,-21.97,-0.24,1.53,981.97,22.11,
7129379,-0.01,-0.13,1.41,5.68,2.69,0.98,981.99,22.11,
7129429,-0.08,0.18,0.51,-4.21,9.09,1.1,982.07,22.1,
7129467,-0.04,0.43,1.05,-1.16,-4.58,1.95,981.9,22.11,
7129505,-0.21,0.07,0.47,-4.39,7.57,0.61,981.93,22.11,
7129543,-0.08,-0.09,1.82,1.95,-4.39,1.22,982.04,22.12,
7129582,-0.02,-0.29,0.94,0.61,8.18,1.89,982.06,22.11,
7129620,0.04,-0.05,1.07,0.37,5.0,1.04,982.11,22.12,
7129658,0.01,0.01,1.2,9.58,5.74,1.4,981.94,22.11,
7129696,0.01,-0.1,0.03,-2.81,14.22,0.55,982.0,22.12,
7129735,-0.09,-0.04,1.79,6.96,-9.77,0.61,981.94,22.11,
7129785,-0.01,-0.12,0.84,-0.92,4.58,0.49,982.0,22.11,
7129823,-0.07,0.1,1.17,17.15,3.91,0.98,981.93,22.11,
7129861,-0.02,-0.03,0.6,8.61,-0.37,1.22,981.92,22.13,
7129899,0.0,-0.21,1.03,17.94,2.87,0.49,981.95,22.11,
7129938,-0.13,-0.11,1.27,9.58,4.33,1.04,981.91,22.13,
7129976,0.17,0.08,0.86,-13.79,11.84,0.55,981.94,22.11,
7130014,-0.1,-0.07,0.92,9.22,6.9,0.37,981.9,22.12,
7130052,0.07,0.11,0.19,-22.03,15.08,0.18,981.97,22.14,
7130091,-0.02,0.02,0.1,-10.19,2.5,2.81,981.79,22.13,
7130129,-0.07,-0.33,0.45,18.92,4.09,0.37,981.85,22.13,
7130179,-0.16,-0.05,2.6,-8.0,-7.57,1.1,982.01,22.11,
7130217,-0.0,0.0,0.87,-20.63,11.23,0.73,981.95,22.13,
7130255,0.01,0.2,1.83,4.52,13.61,0.18,981.98,22.13,
7130294,-0.0,-0.16,0.4,-8.06,13.49,0.37,982.04,22.13,
7130332,-0.05,0.01,0.84,0.67,-0.85,0.79,981.9,22.13,
7130370,-0.04,0.05,0.32,6.41,6.59,0.49,981.95,22.13,
7130408,0.05,0.04,1.34,2.62,-4.58,0.55,981.89,22.14,
7130447,-0.02,-0.19,1.26,8.24,4.33,0.55,981.88,22.13,
7130485,-0.08,-0.15,1.2,3.36,3.42,0.67,981.99,22.14,
7130535,-0.08,-0.05,0.58,12.94,9.83,1.22,981.88,22.11,
7130573,-0.06,0.08,0.5,5.8,-0.37,0.92,981.91,22.13,
7130611,-0.04,-0.24,0.9,13.73,2.99,1.22,981.91,22.13,
7130650,-0.07,-0.07,1.13,1.77,0.55,0.92,981.88,22.13,
7130688,-0.03,-0.24,1.09,-1.89,2.87,1.1,982.05,22.14,
7130726,0.04,0.08,1.2,0.85,9.58,2.08,981.9,22.13,
7130764,-0.0,-0.08,1.06,-6.16,4.7,1.95,981.94,22.14,
7130803,-0.04,-0.13,1.11,-0.43,5.43,1.28,981.97,22.13,
7130841,0.12,0.12,1.18,-9.58,3.91,1.59,982.05,22.15,
7130879,-0.05,-0.01,0.49,-1.65,8.61,1.95,981.91,22.14,
7130929,-0.08,0.04,1.12,3.85,-5.07,1.53,981.91,22.13,
7130967,-0.01,-0.19,0.75,3.54,3.78,1.28,981.89,22.14,
7131006,-0.13,-0.03,1.48,8.06,-5.43,0.92,981.98,22.16,
7131044,-0.07,0.01,1.39,-2.56,2.08,1.53,982.05,22.14,
7131082,-0.02,-0.01,1.7,4.09,-2.08,1.77,982.02,22.14,
7131120,-0.02,-0.2,1.15,4.03,4.82,1.53,981.93,22.15,
7131159,-0.03,-0.2,0.74,2.75,0.73,1.34,981.98,22.15,
7131197,0.06,-0.09,1.02,7.26,0.98,1.34,981.93,22.15,
7131235,0.05,0.03,0.67,-1.59,0.98,1.28,981.94,22.15,
7131273,-0.1,-0.15,0.93,13.55,4.88,1.22,981.92,22.15,
7131323,-0.04,-0.07,1.12,3.78,-3.05,1.89,981.98,22.14,
7131362,-0.12,-0.13,0.91,13.37,3.17,1.65,981.9,22.14,
7131400,-0.03,-0.16,0.78,9.89,5.55,1.28,982.05,22.15,
7131438,-0.12,0.06,1.37,4.46,-1.22,1.53,981.88,22.15,
7131476,-0.0,-0.14,0.49,-1.04,6.47,1.46,981.93,22.15,
7131515,-0.03,-0.06,0.89,-0.92,1.4,1.1,981.95,22.15,
7131553,-0.06,-0.08,0.73,-5.43,4.15,1.34,981.83,22.15,
7131591,0.02,-0.01,0.87,-7.75,5.43,1.65,981.94,22.15,
7131630,-0.02,-0.05,1.36,-5.43,4.27,1.46,981.97,22.16,
7131679,0.02,0.02,1.0,-6.71,1.22,1.65,981.98,22.14,
7131718,-0.07,0.03,1.23,-0.31,-4.88,1.89,982.05,22.15,
7131756,-0.02,-0.05,1.05,-8.24,5.86,1.71,982.02,22.15,
7131794,-0.02,-0.1,0.94,3.66,1.1,1.59,981.99,22.15,
7131832,-0.0,-0.24,0.83,-0.55,4.46,1.71,981.93,22.15,
7131871,-0.01,-0.1,1.2,1.34,-2.87,1.16,982.06,22.15,
7131909,-0.04,-0.22,0.97,-3.97,9.52,1.34,981.94,22.16,
7131947,-0.14,-0.32,0.92,8.18,-0.06,1.77,982.01,22.15,
7131985,-0.14,-0.14,0.66,6.41,2.56,1.59,981.99,22.14,
7132024,0.1,-0.37,0.95,9.64,2.93,1.71,982.04,22.15,
7132100,-0.11,0.18,0.79,10.74,0.37,0.92,981.95,22.12,
7132138,-0.12,-0.02,1.54,6.16,-2.14,1.59,981.86,22.15,
7132176,0.07,0.16,2.11,-5.8,5.0,0.85,981.83,22.14,
7132266,-0.19,0.13,0.16,4.82,-7.51,-0.06,981.88,22.1,
7132304,-0.07,0.07,0.59,-12.08,-1.16,1.16,981.95,22.12,
7132343,-0.17,0.03,0.15,-1.28,-4.15,0.73,982.01,22.13,
7132381,-0.21,0.01,1.03,1.65,3.23,1.22,981.99,22.13,
7132419,-0.0,-0.28,0.66,-5.98,9.52,2.01,981.88,22.12,
7132457,-0.08,-0.03,2.7,-12.21,-6.1,0.49,982.04,22.14,
7132507,-0.05,-0.12,0.58,-6.47,6.35,0.61,982.09,22.14,
7132546,-0.09,0.07,1.88,-2.81,-1.83,0.61,982.01,22.14,
7132584,-0.03,-0.05,0.48,-4.94,12.88,0.79,981.95,22.14,
7132622,-0.11,-0.03,0.72,1.83,1.59,0.85,981.96,22.14,
7132660,-0.11,-0.11,0.52,13.0,7.87,1.28,981.97,22.14,
7132699,-0.12,-0.07,0.97,-0.49,-14.65,1.04,982.0,22.14,
7132737,0.01,-0.11,0.95,20.14,6.35,0.55,981.98,22.15,
7132775,-0.05,0.09,0.38,1.04,4.94,0.73,982.04,22.14,
7132813,-0.1,0.15,1.5,15.93,-4.76,0.67,981.93,22.15,
7132852,-0.02,-0.06,0.37,0.37,14.28,0.37,981.97,22.15,
7132902,-0.01,0.02,1.27,19.78,-2.5,0.43,981.93,22.14,
7132940,-0.08,-0.2,0.81,2.5,9.89,0.43,981.94,22.14,
7132978,-0.01,0.01,1.59,8.61,-2.87,0.92,981.86,22.14,
7133016,-0.13,-0.3,0.97,10.31,8.91,1.1,981.9,22.15,
7133055,0.04,0.05,0.82,-3.97,1.28,0.92,981.91,22.15,
7133093,-0.1,-0.11,0.51,3.48,7.32,0.92,981.96,22.14,
7133131,-0.01,-0.0,0.35,-13.37,5.86,0.67,981.91,22.15,
7133169,-0.12,-0.05,1.15,-1.22,0.12,0.18,981.86,22.15,
7133208,-0.03,-0.13,1.04,-11.54,3.54,0.79,981.91,22.16,
7133258,-0.06,-0.07,0.96,-2.44,1.83,0.92,981.87,22.14,
7133296,-0.07,0.0,1.46,0.67,0.31,0.61,981.96,22.15,
7133334,-0.04,-0.21,1.32,2.93,5.07,0.67,981.89,22.14,
7133372,-0.08,-0.0,1.14,4.03,3.78,0.55,981.94,22.15,
7133411,-0.12,-0.07,0.86,5.62,-0.67,1.04,981.95,22.16,
7133449,-0.1,-0.02,1.03,4.82,1.22,0.79,981.89,22.17,
7133487,-0.04,-0.23,1.04,11.17,0.12,0.98,981.88,22.16,
7133525,-0.19,-0.13,-0.09,2.62,7.75,0.85,981.87,22.15,
7133564,-0.11,0.03,1.54,23.25,-9.16,0.73,981.79,22.16,
7133602,0.02,-0.44,0.23,0.06,13.79,-0.12,981.85,22.15,
7133652,-0.11,0.12,2.49,-2.2,-7.39,1.53,981.97,22.15,
7133690,-0.05,-0.21,1.05,-1.46,10.38,2.14,981.96,22.15,
7133729,-0.09,-0.1,1.25,0.85,-5.19,1.4,982.0,22.15,
7133767,-0.05,-0.26,0.02,-0.85,15.32,1.95,981.82,22.14,
7133805,-0.06,-0.24,0.31,8.24,-5.62,2.56,981.9,22.16,
7133843,-0.11,-0.08,0.74,16.11,7.02,1.83,981.96,22.16,
7133882,-0.11,-0.11,0.36,-2.99,3.97,2.69,981.86,22.16,
7133920,-0.15,0.04,1.55,10.25,-8.12,1.65,981.88,22.16,
7133958,-0.01,-0.05,0.51,-8.0,9.83,1.77,982.04,22.15,
7134008,-0.22,0.02,1.29,8.24,-5.55,1.71,981.83,22.14,
7134046,0.02,-0.2,-0.1,-3.85,16.66,0.92,982.0,22.16,
7134085,-0.11,0.16,1.68,5.07,-16.42,2.01,981.95,22.15,
7134123,-0.15,-0.37,0.19,1.95,13.92,1.34,981.96,22.15,
7134161,-0.07,-0.07,1.87,-2.62,-7.57,1.34,982.16,22.15,
7134200,-0.16,0.08,0.62,7.32,9.7,1.59,981.92,22.16,
7134238,-0.02,0.45,0.26,-10.19,3.66,0.18,981.89,22.15,
7134276,-0.14,0.55,1.35,7.2,-17.09,0.73,981.89,22.15,
7134314,-0.12,0.36,0.39,-3.17,2.08,0.31,981.97,22.16,
7134353,-0.16,-0.04,0.77,4.94,-11.17,0.67,981.86,22.14,
7134403,-0.15,0.29,0.9,2.56,-2.44,1.04,981.93,22.15,
7134441,-0.21,0.37,1.29,-3.42,3.85,0.49,981.98,22.14,
7134479,-0.04,-0.11,0.93,0.49,11.11,0.37,982.12,22.15,
7134517,-0.02,0.23,1.5,4.58,-1.53,1.28,981.99,22.15,
7134556,-0.06,-0.24,0.84,0.31,13.0,0.73,981.92,22.16,
7134594,-0.04,-0.14,1.15,7.81,-1.95,1.04,981.97,22.16,
7134632,-0.06,-0.44,0.68,13.18,5.31,1.71,981.9,22.17,
7134670,-0.1,-0.16,0.82,4.15,7.51,1.1,981.94,22.16,
7134709,-0.22,-0.18,0.77,18.86,1.59,1.46,982.01,22.17,
7134759,0.12,-0.28,1.01,0.61,3.78,0.85,981.92,22.14,
7134797,-0.1,0.0,1.23,1.53,6.53,0.79,981.87,22.15,
7134835,0.17,-0.41,1.14,-2.75,6.23,1.16,981.93,22.16,
7134873,-0.08,-0.15,0.25,-4.58,11.9,1.65,981.82,22.14,
7134912,-0.02,-0.16,0.22,-3.11,5.0,1.34,981.84,22.16,
7134950,0.07,-0.2,1.19,-12.63,-2.2,1.53,981.91,22.17,
7134988,-0.12,-0.38,1.41,-7.08,12.88,1.34,981.98,22.15,
7135026,-0.09,-0.13,1.1,-9.52,9.7,1.53,981.99,22.15,
7135065,-0.04,-0.06,0.94,-10.86,8.54,1.46,981.98,22.16,
7135103,-0.08,-0.0,1.14,-10.8,6.29,1.89,981.93,22.17,
7135179,-0.03,0.08,0.7,-7.69,8.85,1.16,982.02,22.13,
7135217,-0.0,0.06,1.57,-0.92,0.18,0.79,981.96,22.14,
7135255,0.1,-0.2,0.9,-4.82,8.06,1.16,981.98,22.15,
7135345,-0.01,0.03,0.87,2.08,6.1,1.22,981.96,22.13,
7135384,-0.05,-0.03,0.86,0.24,3.11,1.53,981.93,22.13,
7135422,-0.01,0.06,0.76,4.82,6.04,1.04,981.95,22.14,
7135460,-0.14,-0.04,1.25,9.46,-5.68,0.92,981.92,22.14,
7135498,-0.09,0.01,0.51,2.75,4.39,1.77,981.89,22.14,
7135537,-0.08,-0.03,1.19,9.09,-3.42,0.98,981.94,22.15,
7135575,-0.06,-0.05,0.55,7.02,7.14,1.65,981.91,22.14,
7135625,-0.0,0.01,1.3,10.38,-1.22,1.4,981.96,22.14,
7135663,-0.0,-0.09,0.77,5.8,6.96,1.53,981.89,22.16,
7135701,-0.01,-0.1,1.32,10.13,-1.16,1.16,981.95,22.15,
7135740,-0.12,-0.14,0.87,13.31,6.71,1.95,981.91,22.16,
7135778,0.01,-0.0,0.96,2.93,5.92,1.22,981.96,22.15,
7135816,-0.01,-0.14,0.95,9.77,7.26,1.65,981.93,22.17,
7135854,-0.03,-0.11,0.71,-0.06,6.1,1.59,981.92,22.16,
7135893,-0.02,-0.15,0.94,0.79,5.31,1.71,981.91,22.16,
7135931,-0.01,0.01,0.95,-7.45,5.8,1.89,981.98,22.16,
7135981,0.01,-0.17,0.94,-1.77,5.31,1.77,981.92,22.15,
7136019,-0.04,-0.12,1.09,-0.12,5.62,1.89,981.93,22.16,
7136058,0.01,-0.05,1.13,15.08,1.65,1.71,981.92,22.16,
7136096,0.07,-0.04,0.88,1.1,8.12,1.89,982.0,22.16,
7136134,0.01,-0.04,0.74,1.28,5.62,1.71,981.93,22.17,
7136172,-0.02,-0.13,0.71,6.16,4.88,1.95,981.93,22.16,
7136210,-0.0,-0.07,0.92,3.54,4.64,1.59,981.97,22.16,
7136249,-0.02,-0.08,1.4,6.1,3.05,1.53,981.98,22.17,
7136287,-0.01,-0.2,1.36,2.32,5.8,1.83,981.97,22.16,
7136325,-0.07,-0.02,1.13,-1.04,6.35,1.89,981.98,22.17,
7136375,-0.01,-0.15,0.35,-1.1,8.42,1.89,981.92,22.15,
7136414,-0.01,0.06,0.68,-4.94,1.1,1.71,981.95,22.16,
7136452,-0.04,-0.14,1.43,9.03,14.04,1.04,981.88,22.16,
7136490,-0.04,-0.1,1.02,-7.51,2.44,1.71,982.06,22.17,
7136528,-0.02,0.13,1.63,3.17,-2.01,1.59,981.9,22.16,
7136567,-0.02,-0.17,0.87,-2.32,11.9,1.53,981.9,22.16,
7136605,0.01,0.07,1.33,0.98,-0.49,1.46,981.98,22.17,
7136643,0.03,-0.07,0.92,-1.34,9.4,1.53,981.97,22.18,
7136681,0.05,-0.15,1.1,4.88,4.64,1.46,981.97,22.17,
7136731,-0.06,-0.13,1.17,6.35,1.28,1.53,982.0,22.15,
7136770,-0.04,-0.15,1.33,7.26,-0.49,1.46,981.95,22.15,
7136808,-0.01,-0.07,1.03,2.69,4.46,1.46,981.98,22.16,
7136846,0.03,0.06,0.61,3.05,8.91,1.46,981.91,22.17,
7136885,-0.07,-0.05,0.91,9.22,-1.34,1.53,981.94,22.18,
7136923,0.01,-0.29,0.75,3.78,-0.85,1.1,981.9,22.15,
7136961,-0.02,-0.04,1.22,1.83,3.72,1.46,982.0,22.17,
7136999,0.03,-0.17,0.96,-2.81,5.49,1.46,981.92,22.16,
7137037,0.03,-0.01,0.54,-7.2,9.7,1.22,981.94,22.16,
7137076,0.04,0.01,0.92,1.34,3.3,1.16,981.93,22.16,
7137126,-0.05,-0.11,0.94,-0.37,-0.24,1.59,981.97,22.17,
7137164,-0.02,-0.11,1.42,3.05,0.0,1.46,981.97,22.17,
7137202,0.0,-0.14,1.36,1.04,3.54,1.53,982.0,22.17,
7137240,-0.03,0.09,1.28,-0.43,1.53,1.4,981.92,22.17,
7137279,-0.06,-0.09,0.73,-0.85,5.25,0.92,981.97,22.17,
7137317,0.01,-0.22,1.05,3.17,0.18,0.85,981.97,22.16,
7137355,-0.03,-0.02,0.88,1.59,4.39,1.34,981.95,22.16,
7137393,-0.07,0.05,1.0,3.05,3.23,0.98,981.98,22.17,
7137432,-0.08,-0.09,0.83,3.97,2.93,1.34,981.91,22.17,
7137470,-0.06,-0.11,1.34,2.38,-2.2,1.22,981.97,22.17,
7137520,0.01,-0.11,0.65,2.93,7.63,1.16,981.93,22.16,
7137558,0.03,0.01,0.55,-0.43,6.29,0.85,981.99,22.16,
7137596,-0.03,0.04,0.78,6.71,0.43,1.1,981.89,22.17,
7137635,0.0,-0.19,0.65,4.46,2.2,0.92,981.91,22.18,
7137673,-0.05,-0.09,1.02,1.4,2.32,1.04,981.9,22.17,
7137711,-0.04,-0.1,1.21,-3.11,-1.4,0.92,981.92,22.17,
7137749,0.01,-0.19,1.61,-4.7,-0.12,1.04,981.92,22.17,
7137788,0.01,-0.13,1.27,-10.5,5.07,0.85,981.95,22.17,
7137826,-0.06,-0.0,1.15,-6.71,2.56,0.85,981.93,22.17,
7137876,-0.01,0.06,0.63,-8.36,5.49,1.22,982.03,22.17,
7137914,-0.04,0.05,0.68,-1.34,6.65,0.98,981.93,22.17,
7137952,-0.11,-0.06,0.98,-1.53,1.04,0.85,981.99,22.19,
7137991,-0.01,0.08,0.99,-4.03,3.36,0.92,981.96,22.18,
7138029,-0.04,-0.01,0.86,-0.18,4.58,1.04,981.98,22.17,
7138067,-0.02,-0.11,0.89,1.89,4.03,0.79,982.05,22.18,
7138105,-0.03,0.09,0.97,1.34,2.32,0.67,982.02,22.18,
7138144,-0.01,0.11,0.97,2.2,3.36,1.16,982.05,22.19,
7138182,0.03,-0.01,0.77,2.75,4.52,0.79,981.98,22.18,
7138220,-0.0,-0.05,1.54,9.95,-0.61,0.61,982.0,22.17,
7138296,0.01,-0.01,1.35,7.26,4.39,0.98,981.97,22.14,
7138334,-0.04,-0.07,1.05,12.21,7.51,1.1,981.96,22.15,
7138373,-0.0,-0.05,0.92,7.45,5.37,0.98,981.96,22.16,
7138462,0.02,-0.04,0.7,6.23,6.35,1.16,981.95,22.13,
7138501,0.01,-0.01,0.7,4.94,5.43,1.16,981.9,22.15,
7138539,-0.01,-0.11,0.47,1.04,4.94,1.22,981.92,22.15,
7138577,-0.01,-0.11,0.63,-3.42,3.97,1.16,981.97,22.15,
7138615,0.06,-0.06,0.59,-8.85,4.33,1.46,981.93,22.16,
7138654,0.06,-0.0,0.87,-10.68,2.81,1.34,981.96,22.15,
7138692,0.05,-0.12,1.24,-10.38,1.53,1.46,981.93,22.15,
7138742,0.03,-0.1,1.68,-10.31,0.98,1.59,982.0,22.16,
7138780,0.02,-0.15,1.71,-7.14,5.74,1.65,981.98,22.16,
7138818,0.08,-0.13,1.56,-5.37,4.39,1.34,982.08,22.17,
7138856,0.05,-0.01,1.22,-3.05,5.25,1.53,982.03,22.16,
7138895,0.05,-0.05,0.73,-3.17,7.26,1.65,981.99,22.15,
7138933,0.01,-0.03,0.76,0.12,3.36,1.1,981.95,22.16,
7138971,-0.03,-0.11,0.35,-0.85,8.61,1.22,982.02,22.16,
7139009,0.02,0.04,0.76,1.89,1.95,1.34,981.91,22.17,
7139048,-0.02,-0.04,0.51,1.16,7.81,1.16,981.97,22.18,
7139098,0.04,-0.01,1.01,6.65,4.88,0.79,982.02,22.17,
7139136,0.04,0.02,0.74,1.65,9.52,1.1,982.06,22.17,
7139174,0.24,0.13,1.53,8.73,2.01,0.79,981.96,22.17,
7139212,0.36,-0.31,1.17,9.34,9.03,0.61,981.98,22.17,
7139251,0.07,-0.11,2.0,11.96,-0.49,-0.18,981.94,22.17,
7139289,-0.02,-0.22,0.98,7.87,7.87,-0.31,982.02,22.18,
7139327,0.14,0.03,1.52,15.14,4.39,-0.79,982.01,22.17,
7139365,0.15,-0.07,0.62,12.15,12.7,-0.85,981.99,22.17,
7139404,0.01,-0.03,0.55,15.01,-0.49,-0.55,981.96,22.17,
7139442,0.01,-0.02,0.56,19.47,6.59,-0.18,981.93,22.18,
7139492,0.1,-0.08,0.97,18.62,-0.24,-1.16,981.93,22.16,
7139530,0.04,-0.17,1.42,17.7,-0.67,-0.73,981.97,22.17,
7139568,0.03,-0.17,1.43,8.79,2.01,-0.12,981.93,22.17,
7139607,0.13,-0.21,0.89,2.93,14.95,-0.49,981.91,22.18,
7139645,0.05,-0.08,0.68,-2.93,1.4,-0.73,981.91,22.17,
7139683,0.02,-0.16,0.04,-3.11,4.76,-0.24,981.87,22.17,
7139721,-0.12,-0.11,0.77,-6.77,-1.83,0.24,981.92,22.18,
7139760,0.03,-0.06,0.97,0.61,4.58,-1.1,981.97,22.17,
7139798,0.04,0.03,1.17,-5.86,-2.01,-0.73,981.93,22.18,
7139848,0.1,-0.03,1.31,-6.77,2.81,0.43,981.95,22.17,
7139886,0.49,-0.22,1.27,-4.09,-4.46,-1.59,982.01,22.16,
7139924,0.19,-0.24,1.42,6.53,7.51,-3.11,981.91,22.17,
7139963,0.11,-0.18,0.62,-3.91,-5.43,-4.03,982.0,22.18,
7140001,0.05,-0.04,1.45,9.03,-0.06,-6.23,981.9,22.18,
7140039,0.29,0.01,0.39,-5.07,10.01,-7.14,981.96,22.17,
7140077,0.1,0.3,1.06,4.21,-7.02,-6.65,981.92,22.18,
7140116,-0.02,-0.12,0.43,7.2,1.59,-5.49,981.91,22.19,
7140154,-0.09,-0.22,0.85,5.19,1.1,-5.13,981.9,22.18,
7140192,-0.02,-0.17,1.33,7.14,4.46,-5.68,982.05,22.19,
7140242,-0.02,0.04,1.2,1.28,-1.04,-4.82,981.91,22.17,
7140281,0.06,-0.1,0.79,-4.58,8.79,-4.7,981.98,22.18,
7140319,0.05,-0.13,1.16,-3.42,-0.73,-5.49,981.93,22.18,
7140357,0.09,-0.12,0.54,-9.46,5.0,-4.46,981.96,22.17,
7140395,-0.05,0.12,1.1,-4.94,-0.37,-2.87,982.0,22.17,
7140433,0.0,-0.05,0.99,-0.73,7.26,-3.48,981.92,22.17,
7140472,-0.02,-0.03,1.0,-2.69,1.95,-3.91,981.98,22.17,
7140510,0.03,-0.05,1.35,3.85,0.49,-3.85,981.92,22.18,
7140548,0.07,-0.17,0.88,0.24,5.8,-3.48,981.97,22.18,
7140598,0.23,-0.0,1.37,4.39,1.1,-4.27,981.98,22.17,
7140636,0.08,-0.15,0.92,4.7,2.32,-3.17,981.99,22.17,
7140675,0.01,-0.03,1.01,2.69,1.89,-2.69,981.9,22.17,
7140713,0.01,-0.1,0.86,3.72,7.32,-2.99,981.94,22.17,
7140751,0.02,-0.09,0.74,0.61,2.62,-3.17,982.03,22.19,
7140789,-0.04,-0.02,0.83,2.14,0.85,-2.32,981.91,22.18,
7140828,0.02,-0.05,0.8,0.61,3.42,-2.32,981.95,22.18,
7140866,0.07,-0.05,1.07,0.55,3.6,-1.89,981.86,22.19,
7140904,0.0,-0.11,1.05,-0.67,1.89,-1.1,981.89,22.18,
7140942,-0.09,-0.13,1.0,0.24,2.26,-0.24,981.91,22.19,
7140992,0.07,-0.06,1.28,-2.44,1.77,-0.92,981.86,22.17,
7141031,0.03,-0.07,0.79,-5.62,5.43,-0.67,981.86,22.16,
7141069,0.04,0.02,1.13,-3.36,0.31,-0.24,981.87,22.18,
7141107,0.04,-0.11,0.82,-0.98,7.02,-0.24,981.92,22.19,
7141145,0.06,-0.03,0.91,-2.01,1.71,-0.18,981.92,22.18,
7141184,-0.01,-0.05,1.06,3.3,2.75,0.43,981.9,22.18,
7141222,0.02,-0.09,0.81,-0.12,4.76,0.18,981.98,22.18,
7141260,0.09,-0.04,1.17,4.27,2.44,-0.12,981.93,22.18,
7141298,0.1,-0.1,1.01,3.54,3.17,0.06,981.98,22.18,
7141337,0.1,-0.08,1.13,2.01,1.53,0.24,982.01,22.18,
7141413,0.02,-0.05,0.83,2.26,4.94,0.49,982.04,22.15,
7141451,-0.02,-0.02,0.88,2.56,3.17,0.61,982.05,22.15,
7141489,0.01,-0.07,0.89,2.14,3.54,0.43,982.01,22.16,
7141579,0.06,-0.07,1.05,0.43,2.2,0.73,981.99,22.13,
7141617,0.08,-0.07,1.01,0.12,2.99,0.67,982.02,22.12,
7141656,0.06,-0.04,1.06,-0.06,1.83,0.49,982.06,22.15,
7141694,0.06,-0.05,1.0,0.24,3.54,0.61,982.01,22.13,
7141732,0.08,-0.04,0.98,0.49,2.26,0.49,982.01,22.16,
7141770,0.07,-0.05,0.99,1.34,2.5,0.55,982.02,22.16,
7141820,0.06,-0.05,1.0,1.95,1.95,0.61,982.03,22.15,
7141858,0.06,-0.06,1.0,2.38,2.44,0.49,981.99,22.15,
7141897,0.04,-0.05,1.01,2.62,3.05,0.61,981.99,22.16,
7141935,0.04,-0.04,0.98,2.26,2.87,0.85,982.0,22.15,
7141973,0.04,-0.03,0.99,2.44,2.38,0.79,982.04,22.15,
7142011,0.04,-0.03,0.94,1.77,2.26,1.04,981.98,22.16,
7142050,0.03,-0.01,0.98,1.77,2.32,1.22,982.03,22.16,
7142088,0.03,0.0,0.96,1.34,2.81,1.4,982.05,22.16,
7142126,0.04,0.0,0.98,1.34,2.81,1.65,982.06,22.16,
7142164,0.05,0.01,0.99,1.28,2.99,1.89,982.09,22.16,
7142214,0.07,0.01,1.0,1.4,2.69,1.83,982.04,22.15,
7142253,0.06,0.02,1.01,1.65,2.5,2.01,982.02,22.16,
7142291,0.06,0.02,1.01,1.95,2.87,1.77,982.03,22.17,
7142329,0.05,0.03,1.0,1.95,2.75,1.71,982.06,22.16,
7142367,0.06,0.03,0.99,2.14,2.87,1.53,982.01,22.17,
7142406,0.06,0.03,1.0,2.2,2.75,1.34,982.0,22.17,
7142444,0.05,0.04,0.99,2.2,2.56,1.4,981.99,22.17,
7142482,0.04,0.05,0.98,2.01,2.44,1.28,981.99,22.17,
7142520,0.06,0.04,0.97,1.83,2.75,1.16,982.02,22.17,
7142559,0.07,0.04,0.96,1.83,2.87,1.22,982.0,22.16,
7142609,0.05,0.04,0.98,1.65,2.75,1.46,982.02,22.16,
7142647,0.05,0.04,0.98,1.53,2.75,1.34,982.03,22.15,
7142685,0.05,0.04,1.0,1.4,2.56,1.4,982.04,22.16,
7142723,0.06,0.04,1.0,1.34,2.69,1.28,982.07,22.17,
7142762,0.05,0.05,0.99,1.53,2.56,1.28,982.07,22.17,
7142800,0.05,0.04,0.99,1.53,2.5,1.22,982.03,22.17,
7142838,0.05,0.04,1.0,1.77,2.44,1.34,982.04,22.17,
7142876,0.06,0.05,0.99,1.77,2.38,1.16,982.06,22.17,
7142915,0.06,0.05,0.99,1.89,2.5,1.16,981.96,22.15,
7142953,0.05,0.04,0.98,2.08,2.81,1.1,982.02,22.15,
7143003,0.05,0.04,0.98,2.01,2.62,1.04,981.97,22.15,
7143041,0.05,0.04,0.98,1.95,2.87,1.16,981.96,22.16,
7143079,0.04,0.04,0.98,1.65,2.93,1.04,981.99,22.15,
7143118,0.04,0.03,0.98,1.71,2.81,0.98,982.01,22.15,
7143156,0.05,0.03,1.0,1.59,2.99,0.79,981.98,22.15,
7143194,0.06,0.03,0.99,1.46,2.99,0.98,982.0,22.14,
7143232,0.05,0.03,0.99,1.65,2.81,0.98,982.04,22.17,
7143270,0.05,0.02,0.99,1.59,3.05,1.04,982.0,22.17,
7143309,0.05,0.02,0.99,1.89,2.93,1.04,981.97,22.16,
7143347,0.05,0.02,0.99,2.01,2.87,1.1,982.02,22.16,
7143397,0.05,0.02,0.99,1.77,2.93,1.1,982.02,22.14,
7143435,0.06,0.02,0.98,1.77,2.87,1.1,981.98,22.14,
7143473,0.05,0.02,0.98,1.53,2.75,1.1,981.99,22.14,
7143512,0.05,0.02,0.98,1.46,2.56,1.1,981.99,22.15,
7143550,0.06,0.03,1.0,1.53,2.62,1.16,982.0,22.14,
7143588,0.06,0.03,1.0,1.53,2.38,0.98,982.04,22.15,
7143626,0.05,0.03,0.99,1.53,2.44,1.04,981.94,22.15,
7143664,0.05,0.03,0.99,1.71,2.56,1.04,981.98,22.15,
7143703,0.05,0.03,0.99,1.83,2.62,1.1,981.99,22.14,
7143741,0.05,0.03,0.99,1.77,2.87,1.04,982.01,22.15,
7143791,0.05,0.03,0.99,1.83,2.81,1.22,981.93,22.14,
7143829,0.05,0.03,0.98,1.77,2.81,0.98,982.02,22.15,
7143867,0.05,0.03,0.99,1.77,2.56,1.04,982.03,22.16,
7143906,0.06,0.03,0.98,1.53,2.75,1.1,981.98,22.14,
7143944,0.06,0.03,0.99,1.83,2.75,1.04,982.05,22.15,
7143982,0.05,0.03,1.0,1.71,2.81,1.16,981.96,22.14,
7144020,0.05,0.02,0.99,1.83,2.56,1.04,982.01,22.14,
7144059,0.05,0.02,0.98,1.71,2.5,1.04,981.99,22.14,
7144097,0.06,0.02,1.0,1.89,2.5,1.1,982.02,22.15,
7144135,0.06,0.03,1.0,1.77,2.5,1.04,982.05,22.16,
7144173,0.05,0.02,0.98,1.53,2.56,1.16,982.02,22.15,
7144223,0.04,0.02,0.98,1.65,2.69,1.16,982.03,22.14,
7144261,0.05,0.02,0.98,1.77,2.38,1.04,981.99,22.14,
7144300,0.05,0.03,0.99,1.59,2.75,1.04,981.96,22.15,
7144338,0.05,0.04,0.99,1.53,2.75,1.04,981.95,22.15,
7144376,0.05,0.03,0.99,1.46,2.75,1.1,982.0,22.16,
7144414,0.05,0.02,0.98,1.71,2.69,1.04,982.02,22.15,
7144453,0.05,0.02,1.0,1.71,2.75,0.98,982.0,22.16,
7144491,0.05,0.03,0.98,1.71,2.81,1.04,982.02,22.15,
7144529,0.05,0.03,0.99,1.89,2.81,1.1,982.04,22.16,
7144567,0.05,0.03,0.99,1.77,2.99,1.04,981.98,22.16,
7144643,0.06,0.02,0.99,1.83,2.87,1.1,982.01,22.13,
7144681,0.06,0.02,0.99,1.71,2.75,1.04,981.98,22.14,
7144720,0.05,0.02,0.99,1.65,2.62,1.16,982.0,22.14,
7144809,0.05,0.02,0.99,1.71,2.44,1.1,982.0,22.12,
7144848,0.05,0.03,0.99,1.65,2.5,1.1,981.96,22.11,
7144886,0.03,0.01,0.97,1.59,2.44,1.1,981.98,22.14,
7144924,-0.03,-0.04,0.99,1.71,2.69,1.04,982.02,22.14,
7144962,-0.12,0.03,1.0,1.89,2.69,1.16,982.02,22.13,
7145001,0.05,0.04,0.98,1.95,2.69,1.1,982.03,22.14,
7145039,0.05,0.0,0.98,1.71,2.62,1.16,981.97,22.14,
7145089,0.06,0.03,1.0,1.83,3.11,1.1,982.0,22.13,
7145127,0.02,0.03,0.98,1.89,2.62,1.04,981.95,22.13,
7145165,0.06,0.03,1.01,1.71,2.75,1.16,982.04,22.13,
7145204,0.04,0.02,0.98,1.71,2.93,1.1,982.03,22.14,
7145242,0.04,0.01,0.99,1.65,2.81,1.16,982.01,22.13,
7145280,0.05,0.02,0.99,1.65,2.87,1.1,981.98,22.14,
7145318,0.06,0.02,0.99,1.65,2.69,1.28,982.02,22.15,
7145357,0.05,0.03,0.98,1.59,2.38,1.16,981.96,22.15,
7145395,0.05,0.02,0.99,1.77,2.5,1.1,981.97,22.14,
7145433,0.05,0.03,0.99,1.65,2.26,1.1,981.96,22.14,
7145483,0.06,0.04,0.99,1.83,2.62,1.04,981.99,22.14,
7145521,0.06,0.05,0.99,1.59,2.69,1.04,981.98,22.14,
7145560,0.06,0.04,0.98,1.77,2.75,1.1,982.02,22.15,
7145598,0.06,0.03,1.0,1.71,2.5,1.1,981.98,22.15,
7145636,0.05,0.02,0.99,1.89,2.93,1.1,982.02,22.15,
7145674,0.04,0.03,0.98,1.95,2.81,0.98,981.97,22.15,
7145713,0.04,0.03,0.99,1.89,2.99,0.98,981.99,22.14,
7145751,0.04,0.03,0.98,1.77,2.56,0.98,982.01,22.15,
7145789,0.04,0.03,1.0,1.89,2.62,1.04,981.99,22.13,
7145827,0.06,0.01,0.97,1.65,3.05,1.22,982.06,22.15,
7145877,0.06,0.01,0.99,1.71,2.69,1.16,982.03,22.13,
7145916,0.06,0.02,0.98,1.65,2.69,1.04,982.01,22.15,
7145954,0.05,0.02,0.98,2.01,2.32,1.16,982.04,22.15,
7145992,0.06,0.03,1.0,1.83,2.75,1.1,981.98,22.14,
7146030,0.04,0.03,0.99,1.95,2.87,0.98,981.97,22.14,
7146069,0.04,0.04,0.99,1.77,2.75,0.98,982.02,22.15,
7146107,0.04,0.04,0.98,1.71,2.56,1.16,981.98,22.14,
7146145,0.05,0.03,0.99,1.89,2.75,0.92,981.98,22.15,
7146183,0.05,0.02,1.0,1.71,3.11,1.1,981.98,22.15,
7146222,0.06,0.02,0.98,1.65,3.23,1.1,981.98,22.14,
7146272,0.05,0.02,0.99,1.89,2.93,1.28,982.0,22.13,
7146310,0.05,0.02,1.0,1.83,2.87,1.22,982.01,22.15,
7146348,0.05,0.02,0.98,1.65,3.17,1.1,982.03,22.15,
7146386,0.05,0.02,0.99,1.65,2.75,0.98,981.98,22.15,
7146425,0.06,0.02,0.99,1.65,2.69,1.1,981.95,22.15,
7146463,0.05,0.03,1.0,1.65,2.62,1.04,982.0,22.14,
7146501,0.06,0.03,0.99,1.71,2.69,1.1,982.0,22.15,
7146539,0.06,0.03,0.98,1.71,2.38,1.22,982.0,22.17,
7146578,0.06,0.03,0.99,1.83,2.26,1.16,982.04,22.15,
7146616,0.05,0.03,0.99,1.83,2.5,1.1,982.02,22.16,
7146666,0.04,0.03,0.98,1.59,2.81,1.28,982.03,22.14,
7146704,0.04,0.03,0.99,1.77,2.62,0.85,981.95,22.15,
7146742,0.05,0.03,0.99,1.83,2.87,0.98,982.0,22.15,
7146781,0.05,0.03,0.99,1.83,2.87,0.92,981.98,22.14,
7146819,0.05,0.03,0.99,1.83,2.87,1.16,982.0,22.16,
7146857,0.05,0.02,0.98,1.77,2.99,1.22,982.08,22.16,
7146895,0.05,0.01,0.99,1.95,2.99,1.1,982.05,22.14,
7146934,0.05,0.01,0.99,1.77,2.93,1.1,982.07,22.15,
7146972,0.05,0.02,0.99,1.65,2.75,0.98,982.08,22.16,
7147010,0.06,0.02,0.99,1.77,2.56,1.34,982.04,22.15,
7147060,0.05,0.03,0.99,1.71,2.44,1.1,982.03,22.15,
7147098,0.05,0.02,0.99,1.59,2.5,1.04,982.03,22.15,
7147137,0.05,0.03,0.99,1.65,2.62,1.16,982.05,22.15,
7147175,0.05,0.03,0.99,1.65,2.69,1.1,982.07,22.15,
7147213,0.05,0.03,1.0,1.83,2.44,1.16,982.01,22.15,
7147251,0.05,0.03,0.99,1.65,2.75,0.98,982.1,22.16,
7147290,0.05,0.03,1.0,1.89,2.62,1.22,982.07,22.16,
7147328,0.05,0.02,0.97,1.77,2.75,0.92,982.15,22.17,
7147366,0.05,0.03,0.99,1.77,2.75,1.04,982.1,22.16,
7147404,0.05,0.02,0.99,1.77,2.81,1.22,982.05,22.16,
7147454,0.05,0.02,0.99,1.71,2.69,1.16,982.05,22.14,
7147493,0.05,0.02,0.99,1.65,2.81,1.1,982.07,22.13,
7147531,0.05,0.03,0.98,1.59,2.87,1.16,982.07,22.12,
7147569,0.06,0.02,0.99,1.71,2.75,1.04,982.07,22.14,
7147607,0.06,0.03,1.0,1.83,2.69,1.16,982.03,22.12,
7147646,0.06,0.03,0.99,1.77,2.69,1.16,982.06,22.12,
7147684,0.06,0.03,0.99,1.83,2.69,1.1,982.03,22.12,
7147722,0.05,0.02,0.99,1.89,2.81,0.98,982.01,22.12,
7147760,0.05,0.02,0.99,1.95,2.69,0.85,982.01,22.13,
7147799,0.05,0.03,0.98,1.89,2.5,0.92,982.03,22.12,
7147875,0.04,0.02,0.98,1.65,2.44,1.16,981.97,22.09,
7147913,0.05,0.03,0.97,1.71,2.62,1.04,982.0,22.11,
7147951,0.05,0.03,0.99,1.71,2.56,1.1,982.02,22.11,
7148041,0.05,0.03,0.99,1.71,2.75,1.34,982.06,22.08,
7148079,0.06,0.03,0.99,1.83,2.69,1.16,982.03,22.09,
7148118,0.05,0.03,1.0,1.77,2.69,0.98,982.0,22.09,
7148156,0.06,0.03,0.99,1.77,2.75,1.04,982.01,22.08,
7148194,0.06,0.03,0.98,1.77,2.75,1.04,982.03,22.1,
7148232,0.05,0.03,0.99,1.83,2.69,0.98,982.04,22.1,
7148271,0.05,0.03,0.99,1.83,2.69,0.98,982.03,22.09,
7148321,0.04,0.03,0.99,1.77,2.75,1.04,982.01,22.08,
7148359,0.05,0.03,0.99,1.77,2.69,1.04,982.04,22.1,
7148397,0.05,0.03,0.99,1.77,2.62,1.16,981.99,22.1,
7148435,0.05,0.02,0.99,1.65,2.69,1.1,982.04,22.11,
7148474,0.06,0.02,0.99,1.83,2.75,1.1,981.99,22.1,
7148512,0.06,0.02,0.98,1.71,2.87,1.1,981.99,22.11,
7148550,0.06,0.02,0.99,1.77,2.62,0.98,981.99,22.11,
7148588,0.05,0.03,0.99,1.77,2.81,1.1,982.04,22.1,
7148627,0.05,0.03,0.99,1.83,2.69,1.04,981.99,22.11,
7148665,0.05,0.03,0.99,1.71,2.5,1.16,982.01,22.1,
7148715,0.05,0.03,0.98,1.59,2.5,1.16,981.99,22.09,
7148753,0.05,0.03,0.99,1.71,2.32,1.1,982.0,22.09,
7148791,0.05,0.03,0.99,1.83,2.69,1.1,982.0,22.1,
7148830,0.05,0.03,0.99,1.53,2.62,1.04,982.04,22.1,
7148868,0.06,0.02,0.99,1.77,2.75,1.1,982.05,22.08,
7148906,0.05,0.03,0.99,1.71,2.56,0.92,982.01,22.09,
7148944,0.05,0.03,0.98,1.77,2.81,1.1,982.05,22.09,
7148983,0.05,0.03,0.99,1.77,2.56,1.1,981.98,22.08,
7149021,0.05,0.03,0.99,1.71,2.62,1.1,982.06,22.1,
7149059,0.05,0.03,0.99,1.65,2.5,1.1,982.1,22.1,
7149109,0.05,0.02,0.98,1.4,2.69,1.04,981.97,22.09,
7149147,0.05,0.02,0.99,1.71,2.69,1.04,982.01,22.09,
7149186,0.06,0.02,0.99,1.77,2.62,1.1,982.02,22.09,
7149224,0.06,0.03,0.99,1.71,2.81,1.1,982.06,22.1,
7149262,0.05,0.03,0.99,1.77,2.93,1.04,982.0,22.11,
7149300,0.05,0.03,0.99,1.89,2.75,1.1,982.09,22.11,
7149339,0.05,0.03,0.99,1.83,2.81,1.1,982.05,22.09,
7149377,0.05,0.03,0.98,1.77,2.87,1.04,982.02,22.09,
7149415,0.05,0.03,0.98,1.83,2.99,1.22,982.04,22.1,
7149453,0.05,0.03,0.98,1.89,2.93,1.22,982.1,22.11,
7149503,0.05,0.02,0.98,1.59,2.93,0.98,982.04,22.1,
7149542,0.06,0.03,0.99,1.65,2.75,1.1,982.07,22.11,
7149580,0.06,0.02,0.99,1.65,2.75,1.1,982.09,22.11,
7149618,0.06,0.03,0.99,1.71,2.5,1.22,982.03,22.11,
7149656,0.05,0.03,0.99,1.77,2.32,1.04,982.07,22.12,
7149695,0.05,0.03,0.99,1.77,2.62,1.04,982.05,22.11,
7149733,0.05,0.03,0.98,1.77,2.5,1.1,982.08,22.11,
7149771,0.05,0.03,0.98,1.83,2.44,1.1,982.04,22.11,
7149809,0.05,0.03,0.99,1.59,2.32,1.1,982.02,22.11,
7149848,0.05,0.02,0.98,1.59,2.56,1.1,982.06,22.11,
7149898,0.05,0.02,0.99,1.71,2.69,0.98,982.05,22.11,
7149936,0.05,0.02,0.99,1.77,2.81,1.1,982.04,22.11,
7149974,0.05,0.02,0.99,1.77,2.81,1.04,982.02,22.12,
7150012,0.05,0.03,0.99,1.77,2.87,0.98,982.04,22.12,
7150051,0.05,0.04,0.98,1.77,2.81,1.04,982.09,22.12,
7150089,0.04,0.04,0.99,1.83,2.93,0.98,982.04,22.12,
7150127,0.05,0.03,0.98,1.77,2.93,1.1,982.04,22.13,
7150165,0.06,0.03,0.99,1.95,2.87,0.92,982.05,22.11,
7150204,0.06,0.02,0.99,1.71,2.81,1.16,982.05,22.13,
7150242,0.06,0.01,0.98,1.77,2.62,1.22,982.1,22.13,
7150292,0.06,0.02,0.99,1.83,2.62,0.98,982.07,22.1,
7150330,0.06,0.02,0.99,1.83,2.56,1.04,982.04,22.12,
7150368,0.05,0.02,1.0,1.77,2.69,1.1,982.04,22.11,
7150407,0.05,0.03,0.99,1.65,2.69,1.1,982.03,22.11,
7150445,0.05,0.04,0.99,1.65,2.56,1.04,982.01,22.13,
7150483,0.04,0.03,0.98,1.89,2.62,1.16,982.03,22.11,
7150521,0.05,0.03,0.99,1.89,2.5,1.22,982.02,22.12,
7150560,0.05,0.03,0.99,1.71,2.69,1.1,982.02,22.13,
7150598,0.06,0.03,0.99,1.83,2.81,0.98,982.06,22.13,
7150636,0.06,0.03,0.99,1.59,2.75,1.1,982.09,22.13,
7150686,0.05,0.03,0.99,1.83,2.69,1.04,982.07,22.12,
7150724,0.05,0.03,0.99,1.89,2.81,1.04,982.03,22.12,
7150763,0.06,0.03,0.98,1.83,2.93,1.16,982.04,22.12,
7150801,0.05,0.03,0.99,1.77,2.69,0.85,982.0,22.12,
7150839,0.05,0.02,0.99,1.83,2.81,1.04,982.07,22.13,
7150877,0.05,0.02,0.99,1.77,2.87,1.1,982.06,22.12,
7150916,0.05,0.02,0.99,1.59,2.87,1.16,982.02,22.12,
7150954,0.05,0.02,0.99,1.89,2.93,1.1,982.06,22.13,
7150992,0.06,0.02,0.99,1.65,2.5,1.04,982.05,22.13,
7151030,0.05,0.02,0.99,1.65,2.69,1.04,982.05,22.12,
7151108,0.05,0.03,0.99,1.77,2.75,1.22,982.07,22.09,
7151146,0.05,0.03,0.98,1.71,2.56,1.22,982.0,22.1,
7151184,0.05,0.03,0.98,1.77,2.56,1.04,982.06,22.1,
7151275,0.05,0.03,1.0,1.89,2.62,1.1,982.0,22.08,
7151313,0.05,0.03,0.99,1.77,2.69,0.98,982.06,22.09,
7151351,0.05,0.03,0.99,1.89,2.56,0.98,982.04,22.09,
7151389,0.05,0.02,0.99,1.83,2.81,0.92,982.02,22.1,
7151428,0.05,0.02,0.99,1.83,2.69,1.04,982.06,22.09,
7151466,0.04,0.03,0.99,1.83,2.81,0.98,982.05,22.1,
7151504,0.05,0.02,0.98,1.65,2.87,1.04,982.05,22.1,
7151554,0.05,0.02,0.99,1.89,2.75,1.22,982.05,22.1,
7151592,0.05,0.03,0.98,1.59,2.87,1.04,982.04,22.1,
7151630,0.05,0.03,0.99,1.53,2.87,1.1,982.02,22.1,
7151669,0.06,0.03,0.98,1.71,2.87,1.1,982.04,22.11,
7151707,0.05,0.03,0.99,1.83,2.75,1.16,981.99,22.1,
7151745,0.05,0.03,0.99,1.71,2.93,1.16,982.03,22.1,
7151783,0.04,0.03,0.99,1.77,2.93,1.1,982.02,22.12,
7151822,0.06,0.02,0.98,1.77,2.99,0.92,982.03,22.11,
7151860,0.06,0.02,0.98,1.89,2.81,0.92,982.04,22.11,
7151898,0.06,0.03,0.99,1.77,2.81,0.98,982.01,22.12,
7151948,0.04,0.02,0.99,1.83,2.69,1.16,982.06,22.1,
7151986,0.05,0.03,0.99,1.83,2.62,1.22,981.99,22.1,
7152025,0.05,0.03,0.99,1.65,2.69,1.16,982.07,22.12,
7152063,0.05,0.03,0.99,1.83,2.56,1.22,982.02,22.11,
7152101,0.05,0.03,0.99,1.59,2.75,1.1,982.05,22.11,
7152139,0.05,0.03,0.99,1.89,2.62,1.16,982.07,22.12,
7152178,0.06,0.02,0.99,1.83,2.5,1.1,982.11,22.13,
7152216,0.06,0.03,0.99,1.77,2.5,0.85,982.06,22.12,
7152254,0.05,0.03,0.98,1.83,2.69,0.85,982.1,22.12,
7152292,0.04,0.03,0.99,1.77,2.69,0.98,982.05,22.1,
7152342,0.05,0.03,0.99,1.83,2.87,1.04,982.03,22.12,
7152381,0.05,0.03,0.99,1.65,2.87,1.04,982.06,22.11,
7152419,0.04,0.03,0.99,1.71,2.56,1.16,982.1,22.11,
7152457,0.04,0.02,0.98,1.89,2.75,1.1,982.04,22.11,
7152495,0.05,0.02,0.98,1.77,2.75,1.1,982.01,22.11,
7152534,0.06,0.03,0.99,1.77,2.56,1.16,982.05,22.11,
7152572,0.06,0.03,0.98,1.77,2.62,1.22,982.05,22.12,
7152610,0.05,0.03,0.98,1.65,2.5,0.98,982.06,22.12,
7152648,0.05,0.02,0.98,1.71,2.56,1.04,982.08,22.11,
7152687,0.05,0.03,0.99,1.53,2.69,1.1,982.05,22.12,
7152737,0.06,0.03,0.99,1.71,2.93,1.1,982.03,22.11,
7152775,0.05,0.03,0.98,1.65,2.81,1.22,982.01,22.11,
7152813,0.05,0.03,1.0,1.83,2.75,1.04,982.02,22.11,
7152851,0.05,0.03,0.99,1.83,2.69,1.1,982.01,22.11,
7152890,0.05,0.02,0.98,2.01,2.81,1.1,982.04,22.11,
7152928,0.05,0.02,0.99,1.77,2.87,0.92,981.97,22.1,
7152966,0.05,0.03,0.98,1.83,2.93,1.04,982.01,22.12,
7153004,0.04,0.03,0.99,1.83,2.69,1.1,982.0,22.12,
7153043,0.05,0.03,0.98,1.59,2.93,0.98,982.06,22.12,
7153081,0.05,0.03,0.99,1.89,2.75,0.98,982.07,22.13,
7153131,0.06,0.03,0.99,1.83,2.93,1.16,982.02,22.11,
7153169,0.06,0.03,0.99,1.83,2.69,1.1,982.04,22.12,
7153207,0.05,0.03,0.99,1.65,2.62,1.04,982.04,22.12,
7153246,0.05,0.03,0.98,1.71,2.75,1.04,982.04,22.12,
7153284,0.06,0.02,0.98,1.89,2.62,1.16,982.01,22.12,
7153322,0.05,0.02,0.99,1.77,2.56,1.04,982.04,22.12,
7153360,0.05,0.01,0.99,1.83,2.62,0.98,981.99,22.12,
7153399,0.05,0.01,0.98,1.71,2.69,1.04,982.02,22.13,
7153437,0.05,0.03,1.0,1.83,2.56,1.1,981.99,22.11,
7153475,0.05,0.03,0.98,1.65,2.69,1.04,982.02,22.12,
7153525,0.05,0.03,0.99,1.89,2.44,1.22,982.04,22.11,
7153563,0.05,0.03,0.99,1.71,2.56,1.16,982.01,22.11,
7153602,0.05,0.02,0.99,1.65,2.62,0.98,982.03,22.12,
7153640,0.05,0.02,0.99,1.95,2.81,1.1,982.02,22.1,
7153678,0.05,0.03,0.98,1.77,2.62,1.04,982.06,22.11,
7153716,0.05,0.03,0.98,1.71,2.75,1.1,982.05,22.11,
7153755,0.05,0.03,0.98,1.71,2.81,1.04,982.08,22.12,
7153793,0.05,0.03,0.98,1.65,2.93,1.1,982.07,22.11,
7153831,0.05,0.03,0.99,1.71,2.87,1.16,982.08,22.13,
7153869,0.05,0.03,0.99,1.65,2.93,1.1,982.07,22.11,
7153919,0.05,0.03,0.99,1.71,2.93,1.16,982.04,22.11,
7153958,0.05,0.02,0.99,1.83,2.81,1.22,982.08,22.11,
7153996,0.05,0.02,0.99,1.77,2.75,1.1,982.07,22.11,
7154034,0.06,0.02,0.99,1.71,2.93,1.16,982.03,22.1,
7154072,0.06,0.02,0.98,1.83,2.62,0.98,982.03,22.11,
7154111,0.06,0.03,0.99,1.89,2.56,0.98,982.06,22.1,
7154149,0.05,0.03,0.98,1.71,2.56,1.1,982.05,22.11,
7154187,0.05,0.03,0.99,1.77,2.62,1.16,982.07,22.1,
7154225,0.05,0.03,0.99,1.83,2.87,1.16,982.02,22.1,
7154264,0.05,0.03,0.98,1.71,2.69,1.16,982.07,22.11,
7154340,0.05,0.03,0.98,1.89,2.62,0.98,982.03,22.08,
7154378,0.06,0.03,0.99,1.77,2.69,1.1,982.02,22.09,
7154416,0.05,0.02,0.99,1.77,2.69,1.04,982.01,22.09,
7154506,0.05,0.03,0.99,1.83,2.69,1.16,982.11,22.05,
7154544,0.05,0.03,0.98,1.71,2.87,1.04,982.05,22.07,
7154583,0.05,0.03,0.99,1.71,2.87,1.16,982.01,22.07,
7154621,0.05,0.03,0.99,1.77,2.93,1.16,982.03,22.09,
7154659,0.05,0.02,0.98,1.71,2.69,0.98,982.0,22.09,
7154697,0.06,0.03,0.99,1.71,2.5,1.1,982.02,22.1,
7154735,0.05,0.02,0.99,1.77,2.69,1.04,982.07,22.1,
7154785,0.05,0.02,0.99,1.71,2.56,1.28,982.04,22.09,
7154824,0.06,0.02,0.98,1.77,2.56,1.04,981.95,22.09,
7154862,0.05,0.03,0.99,1.71,2.44,1.04,982.07,22.1,
7154900,0.05,0.03,0.99,1.89,2.38,1.1,982.05,22.1,
7154938,0.05,0.03,0.99,1.83,2.56,1.04,982.01,22.1,
7154977,0.05,0.03,0.99,1.83,2.56,1.1,982.03,22.1,
7155015,0.05,0.03,0.99,1.71,2.62,1.04,982.04,22.11,
7155053,0.05,0.03,0.99,1.77,2.56,1.04,982.08,22.11,
7155091,0.05,0.03,0.99,1.71,2.75,1.16,982.04,22.11,
7155130,0.05,0.03,0.98,1.77,2.81,1.04,982.02,22.11,
7155168,0.05,0.02,0.99,1.83,2.75,1.04,982.01,22.11,
7155218,0.05,0.02,0.99,1.77,2.81,1.22,982.03,22.09,
7155256,0.05,0.02,0.99,1.65,2.81,1.1,982.04,22.1,
7155294,0.05,0.02,0.99,1.77,2.93,1.22,982.05,22.1,
7155333,0.05,0.03,0.99,1.71,2.69,1.16,981.98,22.11,
7155371,0.05,0.03,0.99,1.71,2.81,1.16,981.98,22.11,
7155409,0.05,0.03,0.99,1.83,2.81,1.04,982.03,22.11,
7155447,0.05,0.03,0.99,1.83,2.81,1.16,982.04,22.11,
7155486,0.05,0.03,0.99,1.89,2.69,1.22,982.04,22.11,
7155524,0.05,0.03,0.99,1.77,2.62,1.1,982.06,22.11,
7155562,0.05,0.03,0.99,1.89,2.87,1.1,982.05,22.1,
7155612,0.05,0.03,0.98,1.89,2.69,1.16,982.08,22.1,
7155650,0.05,0.02,0.99,1.65,2.87,1.16,982.0,22.1,
7155688,0.05,0.02,0.99,1.77,2.75,1.16,982.04,22.11,
7155727,0.05,0.03,0.99,1.77,2.69,1.04,982.01,22.12,
7155765,0.05,0.03,0.99,1.83,2.75,1.16,982.06,22.11,
7155803,0.05,0.03,0.99,1.95,2.81,1.28,982.07,22.12,
7155841,0.05,0.03,0.99,1.71,2.75,1.22,982.0,22.11,
7155880,0.05,0.03,0.99,1.89,2.81,1.28,982.04,22.12,
7155918,0.05,0.02,0.99,1.83,2.56,1.04,982.04,22.12,
7155956,0.05,0.02,0.99,1.89,2.87,1.04,982.05,22.12,
7156006,0.05,0.02,0.98,1.83,2.81,1.04,981.96,22.1,
7156044,0.05,0.03,0.99,1.95,2.81,1.04,981.95,22.11,
7156083,0.05,0.03,0.99,1.89,2.5,1.1,982.03,22.12,
7156121,0.05,0.03,0.99,1.77,2.69,1.16,982.07,22.12,
7156159,0.05,0.03,0.98,1.71,2.75,1.1,982.01,22.11,
7156197,0.05,0.03,0.99,1.71,2.81,1.16,982.05,22.13,
7156236,0.05,0.03,0.99,1.83,2.93,1.1,982.0,22.12,
7156274,0.06,0.02,0.98,1.89,2.81,1.1,982.07,22.12,
7156312,0.06,0.02,0.99,1.59,2.87,1.04,981.97,22.12,
7156350,0.06,0.02,0.99,1.77,2.69,1.1,982.04,22.12,
7156400,0.05,0.03,0.99,1.77,2.81,1.04,982.01,22.11,
7156439,0.04,0.03,0.99,1.65,2.75,1.16,982.01,22.11,
7156477,0.04,0.03,0.99,1.71,2.81,1.16,982.0,22.11,
7156515,0.05,0.03,0.99,1.65,2.62,1.1,982.03,22.12,
7156553,0.05,0.02,0.99,1.83,2.75,1.22,981.98,22.11,
7156592,0.06,0.02,0.98,1.89,2.69,1.1,982.0,22.11,
7156630,0.06,0.02,0.99,1.71,2.81,1.16,981.99,22.11,
7156668,0.06,0.03,0.99,1.65,2.62,1.1,982.01,22.13,
7156706,0.05,0.03,0.99,1.65,2.75,1.22,982.01,22.11,
7156745,0.04,0.03,0.99,1.83,2.62,1.04,981.96,22.12,
7156795,0.04,0.03,0.99,1.83,2.81,1.16,982.01,22.1,
7156833,0.05,0.03,0.98,1.71,2.75,1.16,982.03,22.1,
7156871,0.05,0.02,0.98,1.89,2.81,1.16,982.02,22.12,
7156909,0.06,0.02,0.99,1.95,2.62,1.16,982.0,22.11,
7156948,0.06,0.03,0.99,1.65,2.81,1.04,981.99,22.1,
7156986,0.06,0.03,0.98,1.71,2.81,1.1,982.03,22.1,
7157024,0.05,0.03,0.98,1.83,2.81,1.04,982.02,22.11,
7157062,0.04,0.03,0.99,1.77,2.62,1.04,982.0,22.11,
7157101,0.05,0.03,0.99,1.89,2.87,1.22,982.0,22.13,
7157139,0.05,0.03,0.99,1.89,2.62,0.98,981.99,22.12,
7157189,0.05,0.02,0.98,1.83,2.62,1.04,982.03,22.1,
7157227,0.06,0.02,0.98,1.77,2.62,1.04,981.98,22.1,
7157265,0.06,0.02,0.99,1.71,2.69,0.98,982.01,22.11,
7157304,0.05,0.02,0.98,1.65,2.81,1.1,982.04,22.11,
7157342,0.05,0.03,0.98,1.71,2.81,1.1,982.01,22.11,
7157380,0.04,0.03,0.99,1.83,2.81,0.98,982.02,22.11,
7157418,0.05,0.03,0.99,1.71,2.87,1.22,982.02,22.11,
7157457,0.05,0.03,0.99,1.65,2.81,1.1,982.01,22.12,
7157495,0.06,0.03,0.99,1.95,2.81,1.1,982.04,22.11,
7157533,0.06,0.02,0.98,2.01,2.87,1.16,981.98,22.11,
7157609,0.05,0.02,0.99,1.89,2.75,1.04,982.01,22.07,
7157647,0.05,0.03,0.98,1.71,2.87,1.1,982.01,22.1,
7157686,0.05,0.03,0.99,1.83,2.75,1.04,982.01,22.1,
7157776,0.05,0.03,0.99,1.65,2.87,1.1,981.96,22.06,
7157814,0.05,0.03,0.98,1.83,2.99,1.04,982.02,22.1,
7157852,0.06,0.03,0.98,1.83,2.81,1.22,982.01,22.09,
7157890,0.05,0.02,0.98,1.89,2.81,1.22,982.01,22.09,
7157928,0.05,0.02,0.98,1.89,2.75,1.16,982.01,22.1,
7157967,0.06,0.02,0.98,1.89,2.93,0.98,982.03,22.1,
7158005,0.06,0.03,0.99,1.71,2.87,1.1,982.02,22.1,
7158055,0.05,0.03,0.99,1.65,2.81,1.1,982.07,22.08,
7158093,0.05,0.03,0.99,1.65,2.62,1.16,982.1,22.1,
7158131,0.05,0.03,0.99,1.65,2.56,1.28,981.99,22.08,
7158170,0.05,0.03,0.99,1.83,2.62,1.04,982.07,22.1,
7158208,0.05,0.02,0.99,1.89,2.38,1.1,982.03,22.1,
7158246,0.05,0.02,0.99,1.83,2.75,0.92,982.04,22.09,
7158284,0.05,0.02,0.99,1.77,2.81,1.1,982.03,22.09,
7158322,0.05,0.02,0.99,1.89,2.56,1.1,982.01,22.09,
7158361,0.05,0.03,0.99,1.71,2.93,1.22,982.04,22.09,
7158399,0.05,0.03,0.99,1.77,2.62,1.04,982.05,22.09,
7158449,0.05,0.03,0.99,1.77,2.75,1.16,982.03,22.08,
7158487,0.05,0.03,0.99,1.71,2.75,1.22,982.02,22.1,
7158525,0.05,0.03,0.99,1.77,2.75,1.22,982.01,22.09,
7158564,0.05,0.03,0.99,1.77,2.62,1.16,981.97,22.09,
7158602,0.06,0.03,0.99,1.77,2.56,1.22,982.04,22.09,
7158640,0.05,0.03,0.99,2.01,2.62,1.22,982.03,22.1,
7158678,0.05,0.03,0.99,1.77,2.69,1.04,982.06,22.09,
7158717,0.05,0.03,0.98,1.89,2.75,1.16,982.01,22.11,
7158755,0.05,0.03,0.99,1.83,2.87,1.1,981.99,22.11,
7158793,0.05,0.03,0.98,1.71,2.93,1.1,982.05,22.11,
7158843,0.05,0.03,0.99,1.83,2.87,1.34,982.01,22.08,
7158881,0.05,0.02,0.98,1.83,2.93,1.16,982.08,22.1,
7158919,0.05,0.02,0.99,1.83,2.87,1.22,982.06,22.1,
7158958,0.06,0.02,0.99,1.95,2.87,1.1,982.04,22.1,
7158996,0.06,0.03,0.99,1.89,3.05,1.16,981.98,22.09,
7159034,0.05,0.03,0.99,1.77,2.81,0.98,982.01,22.09,
7159072,0.05,0.03,0.98,1.77,2.75,0.98,982.0,22.1,
7159111,0.05,0.03,0.98,1.65,2.56,1.16,982.05,22.1,
7159149,0.05,0.02,0.99,1.71,2.5,1.04,981.99,22.1,
7159187,0.05,0.02,0.99,1.77,2.75,1.1,982.05,22.11,
7159237,0.05,0.03,0.99,1.65,2.62,1.16,982.04,22.1,
7159275,0.05,0.03,0.99,1.65,2.62,0.98,982.05,22.1,
7159314,0.05,0.03,0.99,1.95,2.62,1.1,982.02,22.11,
7159352,0.05,0.03,0.99,1.89,2.81,1.04,982.06,22.1,
7159390,0.05,0.02,0.98,2.01,2.81,0.98,982.04,22.11,
7159428,0.05,0.03,0.98,1.71,2.75,0.98,982.05,22.1,
7159467,0.04,0.03,0.99,1.65,2.69,1.1,982.05,22.11,
7159505,0.05,0.02,0.99,1.65,2.81,1.16,982.05,22.1,
7159543,0.05,0.02,0.99,1.71,2.87,1.16,981.99,22.1,
7159581,0.05,0.02,0.99,1.65,2.81,1.1,981.99,22.11,
7159631,0.05,0.03,1.0,1.59,2.93,1.22,982.01,22.08,
7159670,0.04,0.03,0.99,1.77,2.87,0.98,982.05,22.11,
7159708,0.05,0.03,0.98,1.89,2.87,1.16,982.06,22.11,
7159746,0.06,0.04,0.99,1.95,2.81,1.04,982.06,22.11,
7159784,0.06,0.03,0.98,1.83,2.99,1.22,982.02,22.1,
7159823,0.07,0.04,0.99,1.65,2.75,1.16,982.03,22.11,
7159861,0.06,0.03,0.99,1.65,2.81,1.16,982.02,22.1,
7159899,0.05,0.02,0.99,1.77,2.69,0.98,982.0,22.1,
7159937,0.05,0.02,0.99,1.89,2.75,1.04,982.11,22.11,
7159976,0.05,0.03,0.99,1.71,2.69,0.98,982.06,22.11,
7160026,0.04,0.04,0.99,1.77,2.56,1.04,982.05,22.1,
7160064,0.04,0.03,0.98,1.83,2.62,1.1,982.03,22.11,
7160102,0.05,0.03,0.98,1.77,2.62,1.16,981.96,22.1,
7160140,0.05,0.02,0.98,1.65,2.75,1.16,981.98,22.1,
7160179,0.06,0.01,1.0,1.83,2.75,1.22,982.01,22.09,
7160217,0.06,0.01,0.99,1.83,3.11,1.04,982.0,22.1,
7160255,0.06,0.01,0.99,1.89,2.87,1.04,982.09,22.11,
7160293,0.05,0.02,0.99,1.71,2.81,0.98,982.04,22.11,
7160332,0.05,0.03,0.98,1.89,2.99,1.22,982.01,22.1,
7160370,0.04,0.04,0.99,1.65,3.05,1.16,982.04,22.1,
7160420,0.05,0.04,0.98,1.77,2.87,1.1,982.0,22.09,
7160458,0.05,0.03,0.98,1.77,2.69,1.16,982.02,22.09,
7160496,0.06,0.03,0.99,1.83,2.5,1.16,982.03,22.08,
7160534,0.06,0.02,0.99,1.71,2.69,1.16,982.01,22.1,
7160573,0.06,0.02,0.99,1.83,2.69,1.16,981.97,22.09,
7160611,0.07,0.03,0.99,1.83,2.5,1.04,982.08,22.09,
7160649,0.05,0.04,0.99,1.89,2.62,1.04,982.02,22.09,
7160687,0.05,0.03,0.98,1.71,2.69,1.1,982.03,22.09,
7160726,0.04,0.02,0.98,1.89,2.62,0.98,982.0,22.08,
7160764,0.04,0.02,0.98,1.89,2.62,0.98,982.05,22.07,
7160840,0.05,0.02,0.99,1.77,2.87,1.16,982.03,22.07,
7160878,0.05,0.02,0.98,1.65,2.56,1.22,981.99,22.07,
7160916,0.05,0.02,0.99,1.77,2.69,1.34,982.07,22.08,
7161006,0.07,0.03,1.0,1.89,3.11,1.4,982.06,22.04,
7161045,0.06,0.03,0.98,1.77,3.05,1.28,982.05,22.05,
7161083,0.05,0.03,0.99,1.89,2.75,1.22,982.11,22.07,
7161121,0.06,0.03,0.99,2.01,2.62,1.04,982.07,22.07,
7161159,0.06,0.04,0.99,1.95,2.69,0.98,982.06,22.07,
7161198,0.06,0.03,0.98,1.95,2.81,1.16,982.09,22.07,
7161236,0.05,0.03,0.98,1.65,2.5,1.1,982.09,22.08,
7161286,0.04,0.03,0.99,1.71,2.5,1.16,982.09,22.08,
7161324,0.04,0.02,0.99,1.65,2.2,0.98,982.1,22.07,
7161362,0.05,0.01,0.99,1.77,2.44,0.92,982.14,22.08,
7161401,0.06,0.02,0.98,1.77,2.5,1.22,982.06,22.08,
7161439,0.06,0.03,0.99,1.83,2.62,1.1,982.05,22.07,
7161477,0.05,0.02,1.0,1.71,2.62,1.28,982.1,22.09,
7161515,0.04,0.02,0.99,1.65,2.81,1.22,982.04,22.08,
7161553,0.05,0.02,0.98,1.83,2.5,0.98,982.02,22.08,
7161592,0.04,0.03,0.99,1.83,2.62,1.04,982.07,22.09,
7161630,0.05,0.05,0.99,1.89,2.87,1.22,982.09,22.07,
7161680,0.05,0.05,0.99,1.89,2.75,1.16,982.05,22.07,
7161718,0.06,0.04,0.99,1.89,2.93,1.04,982.04,22.08,
7161756,0.05,0.03,0.99,1.83,2.81,1.1,982.12,22.08,
7161795,0.06,0.02,0.97,1.83,2.81,0.85,982.05,22.09,
7161833,0.05,0.02,0.99,1.71,2.62,1.1,982.0,22.08,
7161871,0.05,0.01,0.98,1.71,3.05,1.04,982.04,22.08,
7161909,0.05,0.02,0.99,1.59,2.99,1.04,982.07,22.09,
7161947,0.05,0.01,0.99,1.53,2.93,0.98,982.01,22.08,
7161986,0.05,0.02,0.99,1.71,2.75,1.1,982.08,22.09,
7162024,0.06,0.02,0.99,1.65,2.62,1.22,982.02,22.09,
7162074,0.05,0.02,0.99,1.77,2.56,1.22,982.01,22.07,
7162112,0.05,0.03,0.99,1.83,2.44,1.22,982.05,22.08,
7162150,0.05,0.03,0.99,1.59,2.56,1.1,982.09,22.1,
7162189,0.05,0.03,0.99,1.53,2.56,1.16,982.05,22.09,
7162227,0.05,0.03,0.99,1.59,2.5,1.04,982.04,22.08,
7162265,0.05,0.04,0.98,1.53,2.69,1.1,982.08,22.09,
7162303,0.05,0.04,0.99,1.71,2.75,1.04,982.04,22.08,
7162342,0.05,0.03,0.99,1.65,2.87,0.92,982.04,22.08,
7162380,0.05,0.03,0.99,1.83,2.75,0.92,982.05,22.08,
7162418,0.05,0.03,0.99,1.89,2.56,0.98,982.0,22.09,
7162468,0.05,0.03,0.99,1.95,2.81,1.04,982.05,22.08,
7162506,0.05,0.03,0.99,1.65,2.75,1.16,982.03,22.08,
7162545,0.06,0.02,0.98,1.83,2.75,1.04,982.03,22.09,
7162583,0.06,0.02,0.99,1.59,2.69,1.16,982.08,22.08,
7162621,0.05,0.02,0.99,1.65,2.62,1.16,982.04,22.08,
7162659,0.05,0.02,0.99,1.59,2.44,0.98,982.03,22.08,
7162698,0.05,0.03,0.99,1.71,2.32,1.1,982.04,22.1,
7162736,0.05,0.03,0.99,1.71,2.5,1.16,982.03,22.09,
7162774,0.05,0.03,0.99,1.71,2.5,1.22,982.01,22.09,
7162812,0.05,0.03,0.99,1.77,2.62,1.16,982.03,22.09,
7162862,0.05,0.03,0.99,1.53,2.5,1.28,982.01,22.08,
7162900,0.05,0.03,0.99,1.83,2.75,0.98,982.08,22.09,
7162939,0.05,0.03,0.98,1.71,2.62,1.04,982.02,22.09,
7162977,0.05,0.03,0.99,1.77,2.93,0.92,982.06,22.08,
7163015,0.05,0.03,0.99,1.77,3.05,1.04,982.12,22.09,
7163053,0.05,0.03,0.99,1.77,2.87,1.04,982.06,22.09,
7163092,0.05,0.03,0.99,1.83,2.81,0.98,982.06,22.08,
7163130,0.05,0.02,0.98,1.65,2.69,0.98,982.07,22.08,
7163168,0.06,0.02,0.99,1.77,2.93,1.1,982.05,22.08,
7163206,0.06,0.02,0.99,1.77,2.81,1.1,982.06,22.09,
7163256,0.05,0.03,0.99,1.65,2.69,1.16,982.05,22.08,
7163295,0.05,0.02,0.98,1.77,2.62,1.04,981.99,22.08,
7163333,0.05,0.03,0.99,1.71,2.5,0.92,982.05,22.09,
7163371,0.05,0.03,0.99,1.65,2.56,0.98,982.03,22.09,
7163409,0.05,0.03,0.99,1.83,2.5,1.22,982.06,22.07,
7163448,0.05,0.03,0.99,1.77,2.5,1.1,982.06,22.08,
7163486,0.05,0.03,0.99,1.71,2.38,1.22,982.04,22.07,
7163524,0.05,0.03,0.99,1.83,2.69,1.1,982.05,22.08,
7163562,0.05,0.02,0.98,1.59,2.81,1.04,982.1,22.1,
7163601,0.05,0.03,0.98,1.71,2.87,0.92,982.05,22.1,
7163651,0.05,0.03,0.99,1.65,2.75,0.92,982.08,22.08,
7163689,0.04,0.02,0.99,1.71,2.93,0.92,982.01,22.08,
7163727,0.05,0.03,0.99,1.83,2.93,0.98,982.04,22.09,
7163765,0.05,0.02,0.99,1.77,2.75,0.98,982.06,22.09,
7163804,0.05,0.02,0.98,1.83,2.81,1.1,982.0,22.1,
7163842,0.05,0.03,0.99,1.77,2.75,1.22,982.06,22.09,
7163880,0.05,0.02,0.99,1.59,2.69,1.1,982.03,22.09,
7163918,0.06,0.03,0.99,1.59,2.81,1.1,982.06,22.1,
7163956,0.05,0.02,0.98,1.59,2.75,1.1,982.08,22.09,
7163995,0.05,0.02,0.98,1.77,2.56,1.1,982.06,22.1,
7164071,0.05,0.03,0.99,1.77,2.62,1.16,981.99,22.06,
7164109,0.05,0.03,0.99,1.77,2.5,0.98,982.07,22.07,
7164147,0.05,0.03,0.99,1.77,2.5,0.98,982.0,22.08,
7164237,0.05,0.02,0.99,1.59,2.81,1.28,982.01,22.05,
7164275,0.05,0.02,0.99,1.65,2.75,1.04,982.05,22.06,
7164313,0.05,0.03,0.98,1.65,2.75,1.1,982.08,22.07,
7164351,0.05,0.03,0.99,1.71,2.75,1.1,982.04,22.07,
7164390,0.05,0.03,0.99,1.71,2.87,1.04,982.03,22.06,
7164428,0.05,0.02,0.99,1.77,2.99,1.28,982.02,22.07,
7164466,0.04,0.03,0.99,1.71,2.99,1.04,982.03,22.08,
7164516,0.05,0.03,0.99,1.89,2.87,1.1,982.09,22.06,
7164554,0.06,0.03,0.99,1.83,2.87,1.04,982.09,22.09,
7164593,0.06,0.03,0.98,1.71,2.81,0.92,982.08,22.08,
7164631,0.06,0.03,0.98,1.65,2.69,1.16,982.05,22.07,
7164669,0.05,0.03,0.99,1.83,2.5,1.22,982.03,22.08,
7164707,0.06,0.02,0.98,1.71,2.56,1.1,981.99,22.09,
7164746,0.06,0.01,0.98,1.77,2.56,1.04,982.0,22.07,
7164784,0.07,-0.01,0.98,1.46,2.5,1.04,982.01,22.07,
7164822,0.05,0.03,1.0,1.65,2.44,0.98,982.03,22.09,
7164860,0.04,0.04,0.99,1.46,2.62,1.04,982.03,22.08,
7164910,0.04,0.03,0.99,1.53,2.38,1.16,982.05,22.07,
7164949,0.06,0.03,0.98,1.53,2.62,1.16,982.03,22.08,
7164987,0.05,0.03,0.99,1.83,2.69,1.16,982.11,22.09,
7165025,0.04,-0.01,0.98,1.83,3.17,1.04,982.06,22.07,
7165063,0.04,0.03,1.02,1.95,2.56,1.1,982.04,22.09,
7165102,0.06,0.04,0.97,2.01,2.99,1.1,982.02,22.08,
7165140,0.06,0.09,0.99,1.77,2.32,0.92,982.1,22.09,
7165178,0.04,0.1,1.0,1.83,2.56,1.1,982.07,22.09,
7165216,0.03,0.07,0.97,2.08,3.23,1.28,982.04,22.09,
7165255,0.05,-0.0,0.98,2.01,3.48,0.98,982.03,22.08,
7165305,0.05,-0.0,0.98,2.08,3.11,0.73,982.05,22.08,
7165343,0.09,-0.03,0.98,1.71,3.17,0.92,982.07,22.08,
7165381,0.09,0.01,1.0,1.83,2.69,0.79,982.05,22.09,
7165419,0.06,0.0,0.97,1.71,2.93,0.92,982.02,22.1,
7165458,0.03,0.0,1.02,1.77,2.32,0.98,982.0,22.08,
7165496,0.03,0.01,0.98,1.65,2.75,1.22,982.02,22.09,
7165534,0.03,0.03,0.97,1.65,1.89,1.22,982.05,22.09,
7165572,0.06,0.02,0.99,1.59,2.5,1.34,982.02,22.09,
7165611,0.05,0.01,0.97,1.59,2.26,1.34,982.07,22.1,
7165649,0.05,0.01,0.99,1.59,2.56,1.28,982.0,22.09,
7165699,0.06,0.01,1.0,1.65,2.44,1.34,982.06,22.09,
7165737,0.05,0.02,1.0,1.53,2.62,1.22,982.08,22.1,
7165775,0.03,0.02,1.0,1.71,2.81,1.04,982.0,22.1,
7165814,0.04,0.04,1.0,1.77,3.05,1.1,982.01,22.09,
7165852,0.07,0.04,0.97,1.89,3.3,1.1,982.09,22.11,
7165890,0.07,0.06,0.99,2.01,3.11,1.16,982.1,22.09,
7165928,0.03,0.08,0.97,2.08,3.11,1.28,982.11,22.1,
7165967,0.06,0.07,0.99,2.08,2.56,1.28,982.04,22.09,
7166005,0.05,0.06,1.0,1.95,2.87,1.34,982.06,22.1,
7166043,0.08,0.05,0.97,1.77,2.62,1.1,982.08,22.11,
7166093,0.08,0.03,0.99,1.71,2.38,0.98,982.03,22.08,
7166131,0.1,0.03,0.96,1.71,2.56,0.79,981.99,22.08,
7166170,0.05,0.02,1.0,1.71,2.44,0.55,982.01,22.09,
7166208,0.06,0.02,0.99,1.65,2.5,0.67,982.07,22.1,
7166246,0.05,0.01,0.99,1.83,2.38,0.49,982.03,22.09,
7166284,0.04,0.02,0.99,1.89,2.44,0.73,982.01,22.09,
7166323,0.03,0.01,0.99,2.08,2.62,0.85,981.99,22.1,
7166361,0.02,0.0,1.0,2.08,2.75,0.85,982.03,22.08,
7166399,0.04,0.0,0.98,1.83,2.69,0.79,982.06,22.08,
7166437,0.06,0.01,0.98,1.71,2.69,0.98,982.04,22.08,
7166476,0.06,0.01,0.98,2.01,2.93,1.1,982.04,22.08,
7166526,0.04,0.02,1.0,1.71,2.62,1.28,982.09,22.07,
7166564,0.03,0.02,0.98,1.59,2.81,1.34,982.07,22.08,
7166602,0.05,0.01,0.99,1.65,2.99,1.34,982.07,22.09,
7166640,0.04,0.02,1.0,1.53,3.05,1.28,982.07,22.08,
7166679,0.05,0.02,0.99,1.71,3.17,1.16,982.1,22.08,
7166717,0.05,0.01,0.99,1.71,2.93,1.1,982.03,22.08,
7166755,0.05,0.02,0.99,1.65,2.93,1.22,982.06,22.08,
7166793,0.06,0.03,0.98,1.77,2.75,1.22,982.04,22.08,
7166831,0.07,0.04,0.99,1.65,2.87,1.34,982.09,22.09,
7166870,0.06,0.03,0.99,1.65,2.81,1.16,982.06,22.08,
7166920,0.05,0.04,0.99,1.65,2.69,1.1,982.04,22.07,
7166958,0.05,0.03,1.0,1.65,2.56,1.16,982.09,22.08,
7166996,0.05,0.03,0.99,1.77,2.62,1.16,982.06,22.09,
7167034,0.06,0.04,0.99,1.77,2.56,1.16,982.05,22.09,
7167073,0.06,0.03,0.98,1.71,2.75,0.98,982.04,22.08,
7167111,0.06,0.04,0.98,1.71,2.62,0.98,982.07,22.09,
7167149,0.05,0.04,0.99,1.77,2.81,1.1,982.04,22.08,
7167187,0.04,0.03,0.98,1.89,2.62,1.1,982.03,22.08,
7167226,0.05,0.03,0.99,1.71,2.81,0.98,982.03,22.08,
7167264,0.05,0.02,0.99,1.71,2.81,1.04,982.04,22.09,
7167340,0.05,0.03,0.99,1.77,2.87,1.16,982.11,22.07,
7167378,0.05,0.03,0.99,1.71,2.81,1.1,982.06,22.07,
7167416,0.05,0.03,0.99,1.71,2.99,1.16,982.05,22.07,
7167506,0.05,0.03,0.98,1.83,2.62,1.1,982.08,22.03,
7167545,0.05,0.02,0.99,1.89,2.5,1.1,982.07,22.06,
7167583,0.05,0.02,0.99,1.89,2.56,1.04,982.13,22.07,
7167621,0.05,0.02,0.98,1.89,2.56,0.98,982.01,22.07,
7167659,0.05,0.03,0.98,1.83,2.62,1.04,982.05,22.06,
7167697,0.03,-0.0,0.99,1.95,1.83,1.04,982.03,22.06,
7167736,0.06,0.03,0.99,1.65,2.75,1.1,982.01,22.06,
7167786,0.05,0.02,0.96,1.83,2.87,1.04,982.05,22.05,
7167824,0.06,0.03,1.0,1.46,2.5,1.1,982.02,22.07,
7167862,0.06,0.03,1.01,1.71,2.62,1.16,982.06,22.08,
7167900,0.05,0.03,0.99,1.71,2.99,1.1,982.05,22.07,
7167939,0.04,0.02,0.97,1.59,2.38,0.98,982.06,22.07,
7167977,0.04,0.02,0.99,1.83,2.38,1.04,982.09,22.06,
7168015,0.05,0.02,0.99,1.83,2.75,1.04,982.04,22.07,
7168053,0.05,0.03,0.98,1.77,2.75,1.1,982.04,22.06,
7168092,0.05,0.03,0.99,1.83,2.75,1.16,982.07,22.08,
7168130,0.06,0.03,0.99,1.71,2.87,1.16,982.05,22.09,
7168180,0.07,0.03,0.98,1.71,2.5,1.16,982.07,22.07,
7168218,0.06,0.03,0.99,1.71,2.5,1.22,982.06,22.08,
7168256,0.05,0.02,1.0,1.71,2.75,1.16,982.05,22.07,
7168295,0.05,0.02,1.0,1.71,2.56,1.04,982.05,22.08,
7168333,0.05,0.03,1.0,1.89,2.69,0.92,981.99,22.09,
7168371,0.06,0.04,1.0,1.65,2.38,1.04,982.05,22.08,
7168409,0.06,0.04,0.99,1.65,2.69,0.98,982.03,22.08,
7168448,0.04,0.03,0.97,1.71,2.56,1.16,981.99,22.08,
7168486,0.04,0.03,0.98,1.77,2.62,0.98,982.08,22.08,
7168524,0.04,0.02,0.99,1.65,2.75,1.1,982.08,22.09,
7168574,0.04,0.03,0.98,1.71,2.81,0.98,982.03,22.08,
7168612,0.05,0.02,0.99,1.77,2.87,1.1,982.0,22.08,
7168651,0.06,0.02,0.99,1.65,2.81,1.04,982.04,22.08,
7168689,0.07,0.02,0.99,1.95,2.87,1.1,982.02,22.09,
7168727,0.06,0.03,0.99,1.83,2.75,1.22,982.08,22.08,
7168765,0.05,0.02,0.99,1.95,2.75,1.16,982.07,22.08,
7168804,0.05,0.02,0.99,1.83,2.69,1.16,982.09,22.08,
7168842,0.05,0.02,0.98,1.65,2.62,1.16,982.08,22.09,
7168880,0.05,0.02,0.99,1.71,2.44,1.1,982.05,22.09,
7168918,0.05,0.03,0.99,1.65,2.62,1.16,982.06,22.09,
7168968,0.06,0.03,0.99,1.71,2.56,1.04,982.09,22.07,
7169007,0.06,0.03,1.0,1.53,2.32,1.04,982.1,22.08,
7169045,0.06,0.03,1.0,1.71,2.56,1.1,982.11,22.09,
7169083,0.05,0.03,0.99,1.83,2.44,0.92,982.05,22.08,
7169121,0.04,0.02,0.99,1.77,2.44,0.98,982.12,22.09,
7169160,0.05,0.03,0.99,1.83,2.5,1.04,982.07,22.09,
7169198,0.05,0.03,0.99,1.65,2.62,1.04,982.13,22.09,
7169236,0.06,0.03,0.97,1.71,2.87,1.1,982.06,22.09,
7169274,0.06,0.04,1.02,2.08,2.44,0.85,982.1,22.1,
7169313,0.05,0.02,0.98,1.77,3.11,1.04,982.08,22.09,
7169363,0.06,0.02,0.99,1.65,2.75,1.04,982.1,22.09,
7169401,0.06,0.01,0.99,1.65,2.75,1.04,982.05,22.08,
7169439,0.06,0.01,0.99,1.77,2.87,0.98,982.12,22.09,
7169477,0.05,0.02,0.98,1.71,2.81,0.98,982.06,22.09,
7169516,0.05,0.02,0.99,1.77,2.75,1.1,982.16,22.1,
7169554,0.05,0.03,1.0,1.65,2.62,1.1,982.11,22.09,
7169592,0.04,0.02,0.98,1.83,2.81,0.98,982.14,22.1,
7169630,0.05,0.03,0.99,1.71,2.26,1.16,982.09,22.1,
7169669,0.06,0.03,0.99,1.83,2.32,0.98,982.08,22.09,
7169707,0.05,0.03,0.98,1.71,2.44,1.16,982.06,22.09,
7169757,0.05,0.03,0.99,1.65,2.56,1.04,982.14,22.08,
7169795,0.05,0.02,0.99,1.65,2.69,1.04,982.05,22.08,
7169833,0.05,0.03,0.99,1.65,2.81,1.1,982.05,22.08,
7169872,0.03,0.03,0.99,1.59,2.93,1.1,982.05,22.09,
7169910,0.03,0.03,0.99,1.77,2.87,1.04,982.07,22.09,
7169948,0.04,0.04,0.99,1.53,3.05,0.98,982.07,22.09,
7169986,0.05,0.04,0.99,1.89,3.05,1.04,982.07,22.09,
7170025,0.06,0.03,0.99,1.71,3.11,1.04,982.03,22.09,
7170063,0.06,0.03,0.99,1.53,3.11,1.1,982.04,22.09,
7170101,0.06,0.04,0.99,1.95,2.93,1.1,982.0,22.08,
7170151,0.06,0.02,0.99,1.71,2.75,1.04,982.06,22.07,
7170189,0.07,0.02,0.99,1.71,2.56,1.04,981.99,22.07,
7170228,0.06,0.02,0.98,1.77,2.5,0.92,982.05,22.09,
7170266,0.05,0.02,0.99,1.65,2.44,0.92,982.04,22.09,
7170304,0.05,0.02,0.99,1.65,2.2,0.85,982.05,22.07,
7170342,0.05,0.02,0.99,1.46,2.26,1.04,982.1,22.08,
7170381,0.05,0.02,0.98,1.59,2.2,0.98,982.0,22.09,
7170419,0.05,0.02,0.99,1.53,2.26,0.98,982.05,22.08,
7170457,0.05,0.02,0.99,1.71,2.44,1.22,982.03,22.09,
7170495,0.04,0.02,0.99,1.65,2.5,1.04,982.06,22.08,
7170645,0.04,0.03,0.99,1.83,3.11,1.16,982.07,22.03,
7170684,0.05,0.03,0.98,1.83,3.17,0.98,982.03,22.02,
7170722,0.06,0.04,0.99,1.77,3.17,1.1,982.02,22.03,
7170812,0.06,0.02,0.99,1.77,2.87,1.22,982.06,22.01,
7170850,0.06,0.02,0.99,1.89,3.11,1.1,982.08,22.03,
7170888,0.06,0.03,0.99,1.77,2.69,0.98,982.03,22.04,
7170926,0.06,0.03,0.99,1.65,2.62,1.04,982.03,22.03,
7170965,0.06,0.03,0.99,1.59,2.44,0.98,982.06,22.04,
7171003,0.06,0.03,0.99,1.77,2.2,1.04,982.09,22.05,
7171041,0.06,0.03,0.99,1.59,2.26,1.1,982.02,22.03,
7171091,0.05,0.02,0.99,1.77,2.26,1.22,982.02,22.03,
7171129,0.05,0.02,0.99,1.89,2.38,1.04,982.05,22.05,
7171168,0.05,0.02,0.99,1.83,2.5,1.04,982.02,22.05,
7171206,0.04,0.02,0.99,1.83,2.44,0.98,982.06,22.05,
7171244,0.04,0.03,0.99,1.65,2.75,0.98,982.09,22.05,
7171282,0.04,0.03,0.99,1.65,2.81,1.04,982.06,22.06,
7171321,0.05,0.03,0.99,1.77,2.87,1.04,982.09,22.06,
7171359,0.05,0.03,0.99,1.83,2.99,1.1,981.99,22.06,
7171397,0.05,0.03,0.98,1.89,2.99,1.04,982.08,22.06,
7171435,0.05,0.02,0.99,1.89,2.99,1.16,982.05,22.07,
7171485,0.06,0.02,0.98,1.71,2.99,1.1,982.07,22.05,
7171524,0.06,0.03,0.99,1.71,2.81,1.1,982.05,22.07,
7171562,0.06,0.03,0.99,1.71,2.75,1.04,982.04,22.06,
7171600,0.06,0.03,0.99,1.71,2.56,1.1,982.03,22.07,
7171638,0.06,0.02,0.99,1.71,2.56,1.1,982.06,22.07,
7171677,0.05,0.03,0.99,1.71,2.56,1.04,982.05,22.07,
7171715,0.05,0.03,0.99,1.71,2.5,0.98,982.05,22.07,
7171753,0.05,0.03,0.99,1.83,2.32,1.16,982.09,22.07,
7171791,0.05,0.03,0.99,1.77,2.38,0.98,982.05,22.07,
7171830,0.05,0.03,0.99,1.71,2.44,1.1,982.07,22.07,
7171880,0.05,0.02,0.99,1.83,2.69,1.04,982.07,22.05,
7171918,0.05,0.03,0.99,1.71,2.81,1.04,982.07,22.07,
7171956,0.04,0.03,0.99,1.65,2.93,1.1,982.03,22.06,
7171994,0.05,0.03,0.99,1.71,2.87,1.1,982.14,22.08,
7172033,0.05,0.02,0.99,1.71,2.81,1.16,982.07,22.06,
7172071,0.05,0.02,0.99,1.77,2.93,1.1,982.08,22.07,
7172109,0.06,0.03,0.99,1.65,2.99,1.28,982.08,22.07,
7172147,0.05,0.03,0.99,1.83,2.81,1.1,982.1,22.06,
7172185,0.05,0.03,0.99,1.89,2.81,1.1,982.06,22.07,
7172224,0.06,0.03,0.99,1.65,2.56,1.04,982.08,22.07,
7172274,0.05,0.03,0.98,1.71,2.75,1.1,982.13,22.06,
7172312,0.06,0.03,0.99,1.77,2.69,0.98,982.08,22.07,
7172350,0.06,0.04,0.99,1.71,2.56,1.1,982.13,22.07,
7172388,0.06,0.04,0.99,1.83,2.38,0.98,982.12,22.07,
7172427,0.05,0.04,0.99,1.83,2.32,0.98,982.14,22.08,
7172465,0.06,0.03,1.0,1.71,2.5,0.98,982.18,22.07,
7172503,0.05,0.02,0.99,1.95,2.32,0.98,982.14,22.07,
7172541,0.05,0.01,0.99,1.71,2.38,0.85,982.17,22.08,
7172580,0.05,0.01,0.99,1.83,2.5,1.04,982.17,22.07,
7172618,0.05,0.0,0.99,1.65,2.69,0.92,982.1,22.08,
7172668,0.04,0.02,0.99,1.65,2.56,0.98,982.09,22.06,
7172706,0.03,0.02,1.0,1.77,2.62,1.04,982.07,22.07,
7172744,0.04,0.03,0.99,1.59,3.11,1.16,982.1,22.08,
7172783,0.05,0.04,0.99,1.83,2.93,1.1,982.11,22.07,
7172821,0.05,0.03,0.98,1.83,3.05,1.28,982.05,22.06,
7172859,0.06,0.03,0.99,1.71,3.05,1.28,982.08,22.07,
7172897,0.06,0.03,0.99,1.77,2.87,1.34,982.03,22.07,
7172936,0.06,0.03,0.99,1.71,2.69,1.1,982.06,22.07,
7172974,0.06,0.03,0.98,1.65,2.69,1.04,982.07,22.07,
7173012,0.05,0.03,0.99,1.71,2.44,1.1,982.07,22.06,
7173062,0.05,0.03,0.99,1.71,2.75,0.79,982.09,22.06,
7173100,0.05,0.02,0.98,1.77,2.5,0.98,982.02,22.05,
7173139,0.05,0.03,0.99,1.65,2.38,0.85,982.09,22.06,
7173177,0.05,0.03,0.99,1.77,2.69,0.85,982.07,22.07,
7173215,0.05,0.02,0.98,1.71,2.75,1.1,982.08,22.08,
7173253,0.04,0.02,0.98,1.77,2.75,0.98,982.1,22.07,
7173292,0.04,0.02,0.99,1.95,2.44,1.1,982.09,22.07,
7173330,0.06,0.02,0.99,1.71,2.81,1.22,982.06,22.07,
7173368,0.06,0.02,0.98,1.59,2.75,0.98,982.04,22.06,
7173406,0.04,0.02,0.99,1.65,2.62,1.1,982.08,22.08,
7173456,0.06,0.02,0.99,1.77,2.81,1.16,982.09,22.07,
7173495,0.06,0.03,1.0,1.83,2.38,1.04,982.07,22.07,
7173533,0.05,0.04,0.99,1.65,2.69,1.04,982.09,22.09,
7173571,0.06,0.04,0.98,1.71,2.81,1.1,982.12,22.08,
7173609,0.05,0.03,0.99,1.89,2.69,1.22,982.09,22.07,
7173648,0.06,0.03,0.98,1.89,2.62,0.98,982.09,22.09,
7173686,0.04,0.03,1.0,1.89,2.32,1.1,982.07,22.09,
7173724,0.03,0.02,0.99,1.65,2.75,1.1,982.1,22.09,
7173762,0.05,0.01,0.98,1.65,2.44,1.04,982.02,22.08,
7173801,0.06,0.02,0.99,1.59,2.44,0.92,982.06,22.09,
7173877,0.05,0.03,0.99,1.65,2.5,0.92,982.02,22.05,
7173915,0.05,0.03,0.98,1.65,2.75,0.98,982.02,22.07,
7173953,0.04,0.03,1.0,1.65,2.38,1.16,982.05,22.06,
7174043,0.05,0.02,0.98,1.71,2.75,1.16,982.04,22.03,
7174081,0.05,0.02,0.99,1.65,2.75,1.1,982.05,22.06,
7174119,0.05,0.03,0.99,1.71,2.75,1.22,982.01,22.06,
7174158,0.05,0.03,0.99,1.71,2.93,1.04,982.05,22.07,
7174196,0.05,0.03,0.99,1.65,2.87,1.1,982.07,22.06,
7174234,0.05,0.03,0.99,1.65,2.81,1.22,982.06,22.07,
7174272,0.05,0.03,0.99,1.83,2.99,1.16,982.09,22.06,
7174322,0.05,0.03,0.99,1.71,2.75,1.1,982.06,22.05,
7174361,0.06,0.03,0.99,1.65,2.75,0.92,982.04,22.05,
7174399,0.05,0.02,0.99,1.95,2.62,1.1,982.08,22.07,
7174437,0.06,0.02,0.99,1.71,2.56,0.92,982.06,22.07,
7174475,0.05,0.03,0.98,1.65,2.44,0.92,982.08,22.07,
7174514,0.05,0.03,0.99,1.65,2.44,0.92,982.06,22.07,
7174552,0.05,0.02,0.99,1.71,2.56,1.1,982.06,22.08,
7174590,0.05,0.03,0.99,1.59,2.56,0.98,982.12,22.07,
7174628,0.04,0.03,0.98,1.71,2.69,1.04,982.08,22.07,
7174667,0.05,0.03,0.99,1.89,2.69,1.1,982.08,22.07,
7174717,0.05,0.03,0.99,1.65,2.81,1.22,982.14,22.07,
7174755,0.04,0.03,0.99,1.83,2.75,1.04,982.18,22.07,
7174793,0.05,0.03,0.99,1.59,2.93,0.98,982.15,22.07,
7174831,0.05,0.03,0.99,1.77,2.87,1.16,982.12,22.06,
7174870,0.05,0.03,0.99,1.89,3.05,1.04,982.18,22.07,
7174908,0.05,0.02,0.99,1.83,2.87,1.1,982.14,22.08,
7174946,0.05,0.02,0.98,1.77,2.99,1.1,982.11,22.07,
7174984,0.05,0.03,0.99,1.71,2.75,1.16,982.06,22.07,
7175023,0.05,0.02,0.99,1.77,2.87,1.1,982.01,22.06,
7175061,0.05,0.03,0.99,1.77,2.5,1.04,982.04,22.08,
7175111,0.05,0.03,0.99,1.65,2.75,0.98,982.04,22.07,
7175149,0.06,0.03,0.98,1.71,2.69,1.04,982.04,22.06,
7175187,0.05,0.03,0.99,1.65,2.44,0.92,982.09,22.08,
7175226,0.05,0.02,0.98,1.71,2.44,0.98,982.12,22.08,
7175264,0.05,0.03,0.99,1.65,2.38,0.92,982.08,22.06,
7175302,0.05,0.03,0.99,1.71,2.56,1.1,982.1,22.07,
7175340,0.05,0.03,0.99,1.89,2.62,1.1,982.11,22.08,
7175379,0.05,0.03,0.99,1.77,2.69,1.04,982.07,22.07,
7175417,-0.02,0.01,1.0,1.77,2.69,1.1,982.09,22.08,
7175455,0.02,0.02,1.0,1.77,2.69,1.04,982.04,22.08,
7175505,0.05,0.02,1.0,1.65,2.99,1.04,982.1,22.07,
7175543,0.06,0.03,0.98,1.71,3.05,1.1,982.11,22.07,
7175582,0.05,0.03,0.98,2.01,2.87,1.16,982.02,22.07,
7175620,0.05,0.03,0.98,1.77,2.81,1.1,982.1,22.08,
7175658,0.05,0.02,0.99,1.89,2.75,1.1,982.07,22.07,
7175696,0.05,0.02,0.99,1.53,2.81,0.85,982.09,22.08,
7175735,0.05,0.03,0.99,1.59,2.81,1.1,982.12,22.08,
7175773,0.05,0.03,0.99,1.65,2.69,0.92,982.11,22.07,
7175811,0.05,0.03,0.99,1.83,2.56,0.92,982.06,22.08,
7175849,0.05,0.03,0.99,1.77,2.62,0.98,982.08,22.08,
7175899,0.05,0.03,0.99,1.71,2.62,1.1,982.11,22.07,
7175938,0.05,0.03,0.99,1.71,2.69,1.04,982.13,22.08,
7175976,0.05,0.03,0.98,1.77,2.69,1.04,982.1,22.08,
7176014,0.05,0.03,0.98,1.71,2.62,1.1,982.03,22.06,
7176052,0.05,0.03,0.99,1.71,2.56,1.04,982.07,22.07,
7176091,0.05,0.03,0.99,1.53,2.62,0.98,982.06,22.07,
7176129,0.05,0.03,0.99,1.59,2.81,0.98,982.07,22.07,
7176167,0.05,0.02,0.99,1.65,2.81,1.16,982.08,22.08,
7176205,0.05,0.03,0.99,1.77,2.87,1.04,982.09,22.09,
7176244,0.05,0.03,0.99,1.89,2.93,1.04,982.12,22.08,
7176294,0.05,0.03,0.98,1.71,2.62,1.1,982.08,22.06,
7176332,0.06,0.03,0.99,1.77,2.75,1.16,982.13,22.06,
7176370,0.06,0.03,0.99,1.71,2.81,1.1,982.17,22.07,
7176408,0.05,0.02,0.99,1.59,2.81,0.98,982.04,22.07,
7176447,0.05,0.02,0.99,1.83,2.5,0.98,982.12,22.08,
7176485,0.05,0.03,0.99,1.65,2.56,0.98,982.13,22.08,
7176523,0.05,0.03,0.99,1.65,2.5,1.1,982.08,22.08,
7176561,0.05,0.03,0.99,1.71,2.5,1.1,982.04,22.08,
7176600,0.05,0.03,0.99,1.71,2.69,1.04,982.08,22.07,
7176638,0.05,0.03,0.99,1.65,2.69,0.98,982.1,22.08,
7176688,0.05,0.02,0.99,1.65,2.69,1.1,982.07,22.06,
7176726,0.05,0.02,0.99,1.77,2.75,1.1,982.07,22.08,
7176764,0.05,0.03,0.99,1.59,2.69,0.98,982.16,22.08,
7176803,0.05,0.03,0.99,1.65,2.69,1.04,982.12,22.07,
7176841,0.05,0.03,0.99,1.71,2.69,1.04,982.16,22.07,
7176879,0.05,0.03,0.99,1.71,2.69,1.04,982.1,22.08,
7176917,0.05,0.03,0.99,1.71,2.81,1.04,982.09,22.06,
7176956,0.05,0.03,0.99,1.77,2.69,1.1,982.03,22.07,
7176994,0.05,0.03,0.99,1.71,2.62,1.04,982.08,22.08,
7177032,0.05,0.02,0.99,1.71,2.5,1.04,982.11,22.08,
7177070,0.05,0.03,0.99,1.65,2.44,0.98,982.1,22.08,
7177146,0.05,0.02,0.99,1.71,2.75,1.1,982.09,22.03,
7177185,0.05,0.02,0.99,1.71,2.56,1.04,982.14,22.06,
7177223,0.05,0.03,0.99,1.77,2.69,1.16,982.12,22.06,
7177313,0.05,0.03,0.99,1.83,2.62,1.22,982.04,22.02,
7177351,0.05,0.03,0.99,1.83,2.69,0.98,982.08,22.05,
7177389,0.05,0.03,0.99,1.77,2.99,1.16,982.1,22.05,
7177427,0.05,0.03,0.99,1.65,2.81,1.16,982.1,22.06,
7177466,0.05,0.03,0.99,1.65,2.81,1.04,982.07,22.05,
7177504,0.05,0.03,0.99,1.59,2.87,1.04,982.07,22.06,
7177542,0.05,0.03,0.98,1.89,2.93,1.1,982.04,22.06,
7177592,0.05,0.02,0.99,1.71,2.81,1.16,982.1,22.05,
7177630,0.05,0.02,0.99,1.83,2.81,0.98,982.1,22.05,
7177669,0.05,0.02,0.99,1.77,2.87,1.1,982.19,22.06,
7177707,0.05,0.03,0.99,2.01,2.69,1.1,982.13,22.05,
7177745,0.06,0.04,1.0,1.83,2.62,1.1,982.07,22.06,
7177783,0.06,0.03,0.99,1.77,2.62,1.22,982.09,22.06,
7177822,0.05,0.03,0.98,1.59,2.69,0.92,982.11,22.07,
7177860,0.05,0.03,0.98,1.59,2.56,1.1,982.12,22.08,
7177898,0.05,0.02,1.0,1.83,2.5,1.04,982.14,22.07,
7177936,0.05,0.02,1.0,1.77,2.75,1.16,982.09,22.07,
7177986,0.05,0.03,0.98,1.83,2.87,1.04,982.1,22.06,
7178025,0.05,0.03,0.99,1.89,2.56,0.98,982.13,22.08,
7178063,0.04,0.02,0.99,1.71,2.75,0.98,982.14,22.07,
7178101,0.04,0.02,0.99,1.65,2.69,1.1,982.14,22.07,
7178139,0.04,0.02,0.98,1.53,2.99,1.1,982.13,22.07,
7178178,0.05,0.02,0.99,1.65,2.56,0.98,982.19,22.1,
7178216,0.05,0.03,1.0,1.59,2.87,1.16,982.08,22.08,
7178254,0.06,0.03,0.99,1.59,2.99,1.1,982.13,22.08,
7178292,0.06,0.02,1.0,1.53,2.81,1.04,982.15,22.09,
7178331,0.06,0.04,0.99,1.83,2.93,1.16,982.1,22.08,
7178381,0.06,0.04,0.99,1.65,2.69,1.04,982.12,22.07,
7178419,0.04,0.03,0.99,1.71,2.62,0.92,982.14,22.07,
7178457,0.05,0.02,0.97,1.59,2.38,1.16,982.1,22.08,
7178495,0.06,0.02,1.0,1.65,2.38,0.92,982.1,22.09,
7178534,0.04,0.02,0.98,1.46,2.56,0.92,982.15,22.1,
7178572,0.03,0.01,1.0,1.65,2.38,0.79,982.1,22.07,
7178610,0.04,0.02,1.0,1.65,2.5,0.98,982.13,22.09,
7178648,0.04,0.03,0.99,1.71,2.38,0.85,982.09,22.09,
7178687,0.05,0.03,1.0,1.71,2.69,1.16,982.08,22.09,
7178725,0.06,0.01,0.98,1.65,2.93,1.16,982.07,22.08,
7178775,0.05,0.02,0.99,1.65,2.93,1.04,982.1,22.08,
7178813,0.04,0.04,0.98,1.77,2.93,0.98,982.12,22.07,
7178851,0.05,0.04,1.0,1.65,2.81,1.16,982.12,22.09,
7178890,0.05,0.04,0.99,1.65,3.11,1.22,982.1,22.09,
7178928,0.05,0.04,0.97,1.59,3.05,1.16,982.08,22.08,
7178966,0.05,0.04,1.0,1.65,2.81,1.1,982.13,22.09,
7179004,0.05,0.03,0.99,1.83,2.81,0.98,982.14,22.09,
7179043,0.07,0.02,1.0,1.65,2.69,0.85,982.09,22.09,
7179081,0.08,0.01,1.0,1.65,2.62,0.98,982.05,22.09,
7179119,0.07,-0.0,0.98,1.77,2.44,0.92,982.1,22.09,
7179169,0.05,0.0,0.98,1.89,2.69,0.85,982.08,22.08,
7179207,0.03,0.01,0.98,1.59,2.26,0.98,982.1,22.08,
7179246,0.02,0.02,0.99,1.59,2.32,1.04,982.11,22.09,
7179284,0.03,0.02,0.98,1.65,2.38,0.98,982.16,22.09,
7179322,0.04,0.03,0.99,1.4,2.2,1.22,982.15,22.08,
7179360,0.05,0.03,0.99,1.59,2.44,1.22,982.06,22.08,
7179399,0.06,0.05,0.99,1.46,2.5,1.16,982.17,22.09,
7179437,0.04,0.05,1.0,1.71,2.32,1.16,982.16,22.07,
7179475,0.04,0.04,0.98,1.83,2.81,1.16,982.19,22.08,
7179513,0.05,0.03,0.98,1.89,2.93,1.16,982.15,22.08,
7179563,0.05,0.03,0.99,1.89,3.3,1.28,982.12,22.08,
7179602,0.02,0.02,0.99,1.83,3.6,0.98,982.16,22.09,
7179640,0.07,0.02,0.99,1.53,2.93,0.98,982.11,22.08,
7179678,0.06,0.03,0.98,1.77,3.05,1.04,982.14,22.08,
7179716,0.07,0.03,0.97,1.59,2.87,0.85,982.1,22.09,
7179755,0.07,0.02,1.0,1.59,2.62,0.98,982.08,22.08,
7179793,0.05,0.02,0.99,1.65,2.87,1.04,982.15,22.09,
7179831,0.05,0.02,0.99,1.65,2.44,0.98,982.09,22.08,
7179869,0.04,0.02,1.01,1.89,2.32,1.16,982.12,22.08,
7179908,0.03,0.03,0.98,1.83,2.38,0.98,982.13,22.08,
7179958,0.05,0.04,1.0,1.89,2.2,1.22,982.16,22.08,
7179996,0.06,0.04,0.97,1.59,2.26,1.04,982.2,22.09,
7180034,0.07,0.04,0.99,1.83,2.56,1.22,982.15,22.08,
7180072,0.03,0.05,0.98,1.59,2.87,1.04,982.15,22.09,
7180111,0.04,0.03,0.99,1.71,2.75,0.92,982.12,22.09,
7180149,0.03,0.02,1.01,1.71,2.69,1.1,982.11,22.08,
7180187,0.05,0.02,0.99,1.71,3.11,0.73,982.13,22.09,
7180225,0.05,0.01,0.99,1.83,2.93,0.67,982.1,22.09,
7180264,0.06,-0.0,0.99,1.83,2.93,0.85,982.13,22.09,
7180302,0.05,0.02,0.98,1.89,2.99,0.98,982.08,22.09,
7180378,0.05,0.01,0.98,1.77,2.69,1.16,982.11,22.05,
7180416,0.04,0.02,0.98,1.59,2.69,1.22,982.06,22.07,
7180454,0.05,0.03,0.99,1.53,2.56,1.28,982.08,22.07,
7180544,0.05,0.04,0.99,1.59,2.93,1.16,982.05,22.04,
7180583,0.06,0.03,0.99,1.59,2.69,1.22,982.11,22.05,
7180621,0.06,0.03,1.0,2.01,2.69,1.16,982.08,22.06,
7180659,0.06,0.03,1.0,1.83,2.81,0.92,982.07,22.06,
7180697,0.06,0.02,0.99,1.65,2.87,0.98,982.07,22.05,
7180735,0.05,0.02,0.97,1.71,2.62,0.92,982.12,22.08,
7180774,0.04,0.03,0.99,1.77,2.56,0.85,982.1,22.06,
7180824,0.04,0.03,1.0,1.65,2.62,1.1,982.1,22.06,
7180862,0.05,0.02,0.98,1.71,2.56,1.16,982.05,22.06,
7180900,0.06,0.02,0.98,1.71,2.62,1.16,982.09,22.05,
7180938,0.05,0.02,0.99,1.53,2.38,1.1,982.11,22.06,
7180977,0.04,0.02,1.0,1.65,2.44,1.16,982.06,22.07,
7181015,0.06,0.02,1.0,1.59,2.75,0.98,982.04,22.07,
7181053,0.06,0.01,0.97,1.65,2.87,1.04,982.01,22.06,
7181091,0.05,0.02,1.0,1.65,2.32,0.98,982.07,22.07,
7181130,0.05,0.02,0.99,1.71,2.75,0.98,982.16,22.08,
7181168,0.04,0.02,0.98,1.53,3.05,0.92,982.06,22.07,
7181218,0.03,0.03,0.99,1.77,2.69,1.1,982.03,22.06,
7181256,0.05,0.04,1.0,1.77,2.81,1.1,982.08,22.07,
7181294,0.05,0.05,1.0,1.95,2.81,1.22,982.05,22.06,
7181333,0.05,0.04,0.99,1.83,2.93,1.34,982.04,22.06,
7181371,0.04,0.05,1.0,1.59,2.99,1.1,982.05,22.06,
7181409,0.05,0.04,0.94,1.77,3.23,0.98,982.02,22.06,
7181447,0.08,0.03,0.98,1.77,2.87,1.1,982.1,22.06,
7181486,0.07,0.02,1.02,1.83,3.17,0.92,982.05,22.06,
7181524,0.05,-0.0,0.99,1.65,3.23,0.85,982.03,22.06,
7181562,0.05,0.01,0.97,1.83,2.87,0.79,982.09,22.07,
7181612,0.06,-0.0,1.0,1.95,2.5,0.85,982.03,22.07,
7181650,0.04,0.01,1.03,2.08,2.87,0.85,982.06,22.07,
7181689,0.05,0.0,0.96,1.71,2.75,0.98,982.08,22.07,
7181727,0.04,0.03,0.97,1.83,1.95,1.22,982.07,22.06,
7181765,0.04,0.02,0.97,1.53,2.2,1.4,982.08,22.09,
7181803,0.06,0.04,1.0,1.28,1.95,1.34,982.01,22.07,
7181842,0.06,0.03,0.99,1.16,2.56,1.34,982.1,22.07,
7181880,0.05,0.04,0.98,1.4,2.44,1.1,982.05,22.07,
7181918,0.05,0.05,1.01,1.59,2.5,1.16,982.06,22.07,
7181956,0.05,0.04,1.01,1.89,2.69,0.98,982.05,22.07,
7182006,0.04,0.04,1.0,2.01,2.81,1.1,982.06,22.07,
7182045,0.04,0.03,0.98,1.89,3.3,0.92,982.03,22.07,
7182083,0.04,0.03,0.98,2.08,2.69,0.79,982.07,22.07,
7182121,0.06,0.01,0.99,1.71,3.23,0.73,982.04,22.08,
7182159,0.06,0.03,0.98,1.71,3.3,1.04,982.02,22.07,
7182198,0.06,0.03,0.98,1.59,3.05,1.1,982.06,22.07,
7182236,0.06,0.02,0.99,1.46,2.62,1.16,982.07,22.07,
7182274,0.05,0.01,1.0,1.59,2.69,1.16,982.05,22.08,
7182312,0.05,0.01,0.98,1.59,2.75,1.34,982.09,22.09,
7182351,0.05,0.02,0.99,1.83,2.38,1.28,982.12,22.09,
7182401,0.05,0.04,1.0,1.83,2.2,1.22,982.09,22.07,
7182439,0.06,0.04,0.99,1.83,2.26,1.16,982.04,22.08,
7182477,0.07,0.04,0.98,1.65,2.26,1.1,982.06,22.09,
7182515,0.06,0.04,0.98,1.65,2.38,1.1,982.07,22.1,
7182554,0.05,0.04,0.99,1.65,2.44,0.92,982.08,22.09,
7182592,0.02,0.04,0.98,1.65,2.75,0.92,982.04,22.09,
7182630,0.03,0.03,0.99,1.71,2.44,0.85,982.07,22.09,
7182668,0.03,0.02,1.01,1.65,2.38,0.92,982.06,22.1,
7182707,0.05,0.01,0.99,1.53,3.05,0.85,982.09,22.1,
7182745,0.06,0.02,0.99,1.71,2.87,0.98,982.07,22.1,
7182795,0.04,0.02,0.98,1.71,2.99,0.98,982.1,22.09,
7182833,0.05,0.03,1.0,1.83,2.44,1.16,982.09,22.08,
7182871,0.04,0.02,0.99,1.71,3.05,1.16,982.07,22.09,
7182910,0.04,0.02,0.97,1.77,2.62,1.22,982.04,22.09,
7182948,0.06,0.03,0.99,1.71,2.56,1.16,982.08,22.09,
7182986,0.06,0.03,1.0,1.83,2.62,1.16,982.07,22.07,
7183024,0.06,0.03,0.99,1.65,2.62,1.04,982.07,22.1,
7183063,0.06,0.02,0.99,1.71,2.5,0.98,982.13,22.09,
7183101,0.05,0.02,0.99,1.65,2.44,1.04,982.14,22.1,
7183139,0.05,0.02,1.0,1.65,2.69,1.04,982.04,22.09,
7183189,0.04,0.03,0.99,1.65,2.62,0.79,982.1,22.09,
7183227,0.04,0.03,0.98,1.65,2.69,0.98,982.08,22.09,
7183266,0.05,0.04,0.99,1.65,2.56,0.98,982.11,22.11,
7183304,0.05,0.04,0.99,1.71,2.87,1.1,982.12,22.09,
7183342,0.05,0.03,0.99,1.83,2.81,1.1,982.04,22.09,
7183380,0.05,0.03,0.99,1.89,2.81,1.16,982.09,22.09,
7183419,0.05,0.03,0.99,1.89,2.75,1.1,982.11,22.09,
7183457,0.05,0.03,1.0,1.83,2.81,1.04,982.15,22.1,
7183495,0.05,0.02,0.99,1.89,2.81,0.98,982.07,22.1,
7183533,0.05,0.02,0.98,1.77,2.75,0.92,982.15,22.1,
7183609,0.05,0.02,0.99,1.71,2.75,1.04,982.05,22.06,
7183648,0.04,0.02,1.0,1.77,2.81,0.98,982.12,22.09,
7183686,0.05,0.03,1.0,1.77,2.69,0.98,982.11,22.08,
7183776,0.05,0.03,0.97,1.71,2.93,1.34,982.11,22.07,
7183814,0.03,0.02,0.98,1.77,2.69,1.16,982.05,22.06,
7183852,0.04,0.02,1.0,1.71,2.81,1.22,982.12,22.07,
7183890,0.05,0.02,0.99,1.59,2.69,1.04,982.07,22.07,
7183929,0.06,0.04,1.0,1.65,2.62,1.04,982.12,22.09,
7183967,0.07,0.02,1.0,1.65,2.75,0.98,982.09,22.09,
7184005,0.05,0.03,0.98,1.71,2.75,1.04,982.13,22.09,
7184055,0.05,0.03,0.97,1.59,2.99,0.98,982.06,22.07,
7184093,0.05,0.02,0.99,1.59,2.5,0.98,982.09,22.08,
7184132,0.05,0.02,0.99,1.59,2.81,1.1,982.13,22.1,
7184170,0.04,0.03,1.0,1.53,2.69,0.98,982.09,22.09,
7184208,0.04,0.03,0.99,1.46,2.87,1.16,982.06,22.08,
7184246,0.05,0.03,0.99,1.46,2.81,1.1,982.03,22.09,
7184285,0.05,0.03,0.99,1.46,2.99,1.22,982.08,22.09,
7184323,0.06,0.02,0.98,1.4,2.75,1.22,982.06,22.09,
7184361,0.06,0.02,0.99,1.34,2.62,1.16,982.12,22.1,
7184399,0.05,0.02,0.99,1.16,2.62,1.1,982.06,22.1,
7184449,0.05,0.03,0.99,0.98,2.75,1.16,982.09,22.09,
7184488,0.05,0.03,0.98,0.79,2.75,1.1,982.09,22.09,
7184526,0.05,0.03,0.98,0.49,2.69,1.16,982.07,22.09,
7184564,0.05,0.03,0.98,0.12,2.62,1.22,982.11,22.1,
7184602,0.05,0.03,0.99,-0.06,2.81,1.16,982.06,22.1,
7184641,0.05,0.03,0.99,-0.12,2.69,1.16,982.0,22.09,
7184679,0.05,0.04,0.99,-0.55,2.75,1.1,982.08,22.09,
7184717,0.05,0.04,0.99,-0.79,2.38,1.28,982.06,22.09,
7184755,0.06,0.03,0.99,-0.67,2.56,1.28,982.05,22.1,
7184794,0.05,0.04,0.99,-0.85,2.62,1.16,982.0,22.1,
7184844,0.05,0.05,0.98,-0.92,2.69,1.34,982.1,22.1,
7184882,0.05,0.04,0.98,-1.1,2.87,1.28,982.01,22.09,
7184920,0.04,0.04,0.99,-0.92,2.56,1.28,982.08,22.1,
7184958,0.05,0.04,1.0,-1.16,2.87,1.1,982.14,22.09,
7184997,0.06,0.04,0.98,-1.16,2.56,1.22,982.14,22.1,
7185035,0.05,0.04,0.98,-0.98,2.26,1.28,982.06,22.1,
7185073,0.05,0.04,0.99,-1.16,2.38,1.46,982.07,22.1,
7185111,0.05,0.05,1.0,-0.98,2.32,1.53,982.07,22.1,
7185150,0.04,0.05,0.99,-0.98,2.69,1.4,982.09,22.1,
7185188,0.04,0.06,0.99,-0.67,2.44,1.46,982.05,22.1,
7185238,0.05,0.07,0.99,-0.55,2.62,1.53,982.09,22.09,
7185276,0.05,0.07,0.99,-0.24,2.5,1.4,982.12,22.1,
7185314,0.06,0.08,0.99,-0.12,2.56,1.34,982.11,22.1,
7185353,0.05,0.08,0.99,-0.12,2.81,1.34,982.09,22.1,
7185391,0.05,0.09,0.98,0.06,2.75,1.28,982.07,22.11,
7185429,0.04,0.1,0.99,0.06,2.62,1.16,982.13,22.09,
7185467,0.04,0.1,0.99,0.18,2.81,1.34,982.15,22.1,
7185506,0.04,0.09,0.99,0.24,2.93,1.22,982.07,22.11,
7185544,0.05,0.09,0.99,0.37,3.17,1.28,982.11,22.1,
7185582,0.05,0.08,0.98,0.43,3.05,1.16,982.13,22.11,
7185632,0.05,0.08,0.99,0.79,2.81,1.28,982.09,22.09,
7185670,0.05,0.08,1.0,0.73,2.75,1.34,982.07,22.1,
7185709,0.05,0.08,0.99,0.67,2.81,0.98,982.08,22.1,
7185747,0.05,0.09,0.98,0.98,2.62,1.16,982.05,22.1,
7185785,0.05,0.09,0.98,0.92,2.56,1.1,982.1,22.1,
7185823,0.05,0.09,0.99,0.92,2.62,1.1,982.13,22.12,
7185862,0.05,0.09,0.98,0.98,2.69,1.04,982.09,22.1,
7185900,0.05,0.08,0.99,0.98,2.62,1.16,982.15,22.11,
7185938,0.05,0.08,0.98,0.92,2.62,1.1,982.11,22.1,
7185976,0.05,0.08,0.98,0.92,2.81,1.04,982.11,22.12,
7186026,0.05,0.08,0.98,0.85,2.69,1.04,982.15,22.09,
7186065,0.04,0.08,0.98,0.61,2.81,1.04,982.09,22.11,
7186103,0.05,0.09,0.98,0.55,2.62,1.1,982.1,22.12,
7186141,0.05,0.09,0.98,0.24,2.81,1.04,982.2,22.11,
7186179,0.05,0.09,0.98,0.18,2.75,1.22,982.11,22.1,
7186218,0.05,0.09,0.98,0.0,2.81,1.28,982.11,22.11,
7186256,0.05,0.09,0.98,0.0,2.75,1.28,982.1,22.11,
7186294,0.05,0.09,0.98,0.0,2.69,1.16,982.16,22.11,
7186332,0.04,0.09,0.99,0.0,2.75,1.16,982.07,22.1,
7186370,0.05,0.1,1.0,-0.06,2.56,1.34,982.12,22.11,
7186420,0.05,0.11,1.03,0.85,2.56,1.34,982.13,22.1,
7186459,0.05,0.11,1.0,1.71,2.87,1.1,982.1,22.1,
7186497,0.05,0.1,0.94,2.44,2.75,1.4,982.15,22.1,
7186535,0.05,0.11,0.97,2.32,2.44,1.16,982.19,22.11,
7186573,0.04,0.12,1.01,2.14,2.81,1.1,982.2,22.11,
7186612,0.03,0.11,0.99,1.71,3.05,1.16,982.19,22.12,
7186650,0.04,0.11,0.97,1.65,2.87,1.04,982.14,22.11,
7186688,0.05,0.11,0.96,1.28,2.93,0.79,982.09,22.11,
7186726,0.06,0.1,0.99,1.4,2.87,0.92,982.11,22.11,
7186765,0.06,0.1,1.0,1.22,2.99,0.85,982.04,22.12,
7186841,0.05,0.1,0.97,1.95,3.17,1.16,982.08,22.09,
7186879,0.04,0.08,0.97,2.14,2.87,0.98,982.09,22.1,
7186917,0.04,0.09,1.0,2.08,2.75,1.16,982.04,22.09,
7187007,0.07,0.09,0.98,1.4,2.56,1.28,982.09,22.06,
7187045,0.04,0.1,0.98,1.53,2.44,0.98,982.11,22.07,
7187084,0.04,0.1,0.99,1.77,2.56,1.1,982.09,22.08,
7187122,0.06,0.11,0.98,1.83,2.62,0.98,982.12,22.1,
7187160,0.05,0.11,0.96,1.71,2.81,1.04,982.1,22.09,
7187198,0.05,0.11,0.99,1.77,2.62,1.28,982.08,22.1,
7187237,0.05,0.11,0.99,1.65,2.81,1.1,982.08,22.1,
7187287,0.05,0.1,0.98,1.83,2.62,1.22,982.07,22.09,
7187325,0.05,0.09,0.98,1.89,2.81,1.22,982.05,22.09,
7187363,0.05,0.1,0.98,1.59,2.81,1.04,982.08,22.1,
7187401,0.04,0.1,0.98,1.83,2.81,0.92,982.05,22.1,
7187439,0.05,0.1,0.98,1.71,2.87,1.1,982.03,22.09,
7187478,0.05,0.11,0.98,1.89,2.56,1.04,982.12,22.1,
7187516,0.05,0.1,0.99,1.65,2.87,1.1,982.05,22.1,
7187554,0.06,0.1,0.98,1.65,2.99,1.04,982.09,22.1,
7187592,0.06,0.1,0.98,1.65,2.87,1.04,982.05,22.1,
7187631,0.05,0.1,0.99,1.59,2.44,1.1,982.04,22.1,
7187681,0.04,0.1,0.99,1.83,2.69,0.92,982.08,22.09,
7187719,0.04,0.1,0.98,1.65,2.81,1.04,982.11,22.11,
7187757,0.05,0.1,0.98,1.71,2.69,1.16,982.09,22.11,
7187795,0.05,0.1,0.98,1.77,2.62,1.1,982.06,22.1,
7187834,0.05,0.1,0.98,1.89,2.75,1.04,982.16,22.12,
7187872,0.05,0.11,0.99,1.83,2.69,1.04,982.1,22.11,
7187910,0.05,0.1,0.99,1.83,2.75,1.04,982.11,22.12,
7187948,0.05,0.1,0.98,1.71,2.69,1.04,982.15,22.11,
7187987,0.05,0.1,0.98,1.71,2.56,0.92,982.09,22.11,
7188025,0.04,0.1,0.98,1.83,2.62,0.98,982.11,22.12,
7188075,0.04,0.1,0.99,1.77,2.93,1.22,982.1,22.11,
7188113,0.04,0.1,0.99,1.77,3.05,1.1,982.12,22.11,
7188151,0.05,0.1,0.98,1.71,2.99,1.1,982.1,22.11,
7188190,0.05,0.1,0.99,1.65,2.99,1.16,982.1,22.13,
7188228,0.05,0.1,0.98,1.95,2.87,1.16,982.06,22.11,
7188266,0.05,0.1,0.98,1.71,3.05,0.98,982.12,22.13,
7188304,0.05,0.1,0.98,1.71,2.93,1.1,982.11,22.11,
7188343,0.05,0.1,0.98,1.83,2.93,1.04,982.1,22.13,
7188381,0.05,0.1,0.98,1.77,2.75,1.22,982.12,22.13,
7188419,0.05,0.1,0.98,1.83,2.44,1.1,982.13,22.13,
7188469,0.06,0.1,0.99,1.71,2.44,1.16,982.11,22.11,
7188507,0.06,0.1,0.99,1.71,2.38,0.92,982.06,22.12,
7188546,0.05,0.1,0.98,1.65,2.44,1.1,982.1,22.11,
7188584,0.05,0.1,0.98,1.59,2.26,1.1,982.06,22.11,
7188622,0.04,0.1,0.98,1.77,2.26,1.16,982.07,22.11,
7188660,0.04,0.1,0.99,1.95,2.32,1.04,982.12,22.12,
7188699,0.04,0.1,0.98,1.65,2.75,1.1,982.12,22.12,
7188737,0.04,0.1,0.98,1.65,2.87,1.16,982.15,22.12,
7188775,0.04,0.1,0.98,1.83,2.87,1.04,982.11,22.11,
7188813,0.04,0.1,0.99,1.89,3.11,0.92,982.13,22.12,
7188863,0.05,0.11,0.99,1.83,3.17,0.92,982.13,22.11,
7188902,0.05,0.1,0.98,1.65,2.99,0.85,982.15,22.11,
7188940,0.06,0.11,0.99,1.65,3.11,0.92,982.15,22.12,
7188978,0.07,0.1,0.99,1.53,2.87,1.1,982.17,22.12,
7189016,0.04,0.1,1.0,1.4,2.62,1.04,982.15,22.11,
7189055,0.04,0.09,0.97,1.28,3.05,1.28,982.17,22.11,
7189093,0.06,0.09,0.97,1.46,2.69,1.28,982.14,22.11,
7189131,0.05,0.09,0.96,1.83,2.87,1.04,982.24,22.12,
7189169,0.05,0.1,0.99,2.01,2.38,1.16,982.24,22.11,
7189208,0.06,0.11,0.99,1.89,2.81,0.98,982.27,22.12,
7189258,0.04,0.11,0.98,1.65,2.75,0.98,982.2,22.11,
7189296,0.05,0.11,0.98,1.53,2.5,1.16,982.17,22.11,
7189334,0.05,0.1,0.97,1.83,2.87,1.16,982.26,22.13,
7189372,0.05,0.1,0.98,1.71,2.62,1.04,982.1,22.11,
7189411,0.05,0.1,0.98,1.77,3.05,1.1,982.15,22.11,
7189449,0.05,0.1,0.99,1.71,2.93,1.1,982.15,22.13,
7189487,0.04,0.1,0.99,1.65,2.93,0.92,982.15,22.13,
7189525,0.04,0.1,0.99,1.71,2.81,1.1,982.11,22.13,
7189564,0.06,0.1,0.99,1.71,2.75,1.1,982.13,22.13,
7189602,0.06,0.1,0.98,1.77,2.81,1.04,982.06,22.12,
7189652,0.05,0.1,0.98,1.71,2.75,1.16,982.13,22.12,
7189690,0.05,0.1,0.98,1.65,2.81,1.1,982.12,22.13,
7189728,0.04,0.1,0.99,1.83,2.5,1.1,982.14,22.12,
7189767,0.05,0.1,0.99,1.77,2.5,1.1,982.16,22.13,
7189805,0.05,0.1,0.98,1.83,2.5,0.92,982.21,22.13,
7189843,0.05,0.1,0.98,1.59,2.62,1.04,982.17,22.13,
7189882,0.05,0.11,0.98,1.71,2.32,0.98,982.17,22.13,
7189920,0.05,0.1,0.98,1.83,2.56,1.16,982.16,22.13,
7189958,0.04,0.1,0.99,1.83,2.81,1.22,982.12,22.13,
7189996,0.04,0.1,0.98,1.77,2.81,1.04,982.15,22.13,
7190072,0.05,0.1,0.98,1.77,2.93,1.16,982.18,22.09,
7190111,0.05,0.1,0.98,1.77,2.93,1.16,982.16,22.11,
7190149,0.05,0.1,0.99,1.71,2.87,1.1,982.14,22.11,
7190239,0.05,0.11,0.98,1.59,3.05,1.16,982.14,22.08,
7190277,0.05,0.1,0.98,1.71,2.87,1.1,982.12,22.09,
7190315,0.05,0.1,0.98,1.89,2.69,1.04,982.12,22.09,
7190353,0.06,0.1,0.99,1.83,2.81,1.16,982.13,22.1,
7190392,0.06,0.1,0.99,1.65,2.62,1.1,982.1,22.1,
7190430,0.05,0.1,0.98,1.59,2.56,1.22,982.03,22.11,
7190468,0.05,0.1,0.98,1.65,2.62,1.1,982.08,22.11,
7190518,0.05,0.1,0.98,1.77,2.62,0.98,982.06,22.1,
7190556,0.05,0.1,0.98,1.65,2.81,1.04,982.08,22.1,
7190595,0.05,0.1,0.98,1.77,2.81,1.04,982.06,22.11,
7190633,0.05,0.1,0.98,1.59,2.56,1.1,982.1,22.11,
7190671,0.05,0.1,0.99,1.77,2.69,1.04,982.05,22.11,
7190709,0.05,0.1,0.98,1.71,2.81,0.92,982.05,22.1,
7190748,0.05,0.1,0.98,1.71,2.56,1.1,982.07,22.11,
7190786,0.05,0.1,0.99,1.77,2.75,0.98,982.07,22.12,
7190824,0.05,0.1,0.98,1.77,2.5,1.04,982.1,22.1,
7190862,0.05,0.1,0.98,1.65,2.5,1.1,982.13,22.12,
7190912,0.05,0.1,0.98,1.53,2.5,0.92,982.16,22.1,
7190951,0.05,0.1,0.98,1.77,2.69,0.98,982.15,22.11,
7190989,0.05,0.1,0.98,1.71,2.75,1.1,982.14,22.12,
7191027,0.04,0.1,0.98,1.71,2.5,1.04,982.1,22.11,
7191065,0.05,0.1,0.98,1.59,2.62,1.16,982.07,22.11,
7191104,0.05,0.1,0.98,1.65,2.87,0.98,982.14,22.11,
7191142,0.05,0.1,0.98,1.71,2.87,1.1,982.09,22.1,
7191180,0.05,0.1,0.98,1.83,2.99,1.22,982.05,22.11,
7191218,0.05,0.1,0.98,1.83,2.87,1.04,982.11,22.12,
7191257,0.05,0.11,0.99,1.71,2.93,1.04,982.07,22.1,
7191307,0.05,0.1,0.98,1.83,3.05,1.04,982.07,22.1,
7191345,0.05,0.1,0.98,1.77,2.69,1.1,982.06,22.11,
7191383,0.05,0.1,0.98,1.71,2.75,1.22,982.1,22.11,
7191421,0.05,0.1,0.98,1.89,2.69,0.98,982.03,22.11,
7191460,0.05,0.1,0.99,1.65,2.56,1.16,981.99,22.11,
7191498,0.05,0.1,0.99,1.77,2.75,1.1,982.05,22.11,
7191536,0.05,0.1,0.98,1.71,2.62,0.98,982.05,22.11,
7191574,0.05,0.1,0.98,1.77,2.56,0.98,982.01,22.11,
7191613,0.05,0.1,0.98,1.83,2.69,1.22,982.08,22.11,
7191651,0.05,0.1,0.98,1.71,2.81,1.1,982.11,22.11,
7191701,0.05,0.1,0.99,1.71,2.75,1.28,982.08,22.09,
7191739,0.05,0.1,0.98,1.59,2.75,1.04,982.11,22.09,
7191777,0.05,0.1,0.98,1.71,2.75,0.92,982.08,22.1,
7191816,0.05,0.1,0.98,1.71,2.69,1.04,982.09,22.11,
7191854,0.05,0.1,0.98,1.83,2.81,1.04,982.08,22.11,
7191892,0.05,0.1,0.98,1.83,2.75,1.1,982.06,22.1,
7191930,0.05,0.1,0.99,1.83,2.87,1.04,982.07,22.1,
7191969,0.05,0.1,0.98,1.89,2.69,1.04,982.09,22.11,
7192007,0.05,0.1,0.98,1.65,2.75,1.04,982.11,22.1,
7192045,0.05,0.1,0.98,1.95,2.62,1.1,982.07,22.11,
7192095,0.05,0.1,0.98,1.65,2.56,1.1,982.06,22.09,
7192133,0.05,0.1,0.98,1.83,2.62,0.98,982.03,22.1,
7192172,0.05,0.1,0.98,1.65,2.56,0.98,982.06,22.09,
7192210,0.05,0.1,0.99,1.65,2.62,1.1,982.08,22.1,
7192248,0.05,0.1,0.98,1.71,2.56,1.1,982.03,22.11,
7192286,0.05,0.1,0.98,1.77,2.56,0.98,982.05,22.1,
7192325,0.05,0.1,0.98,1.77,2.56,1.16,982.03,22.1,
7192363,0.05,0.1,0.98,1.83,2.75,1.04,982.08,22.11,
7192401,0.05,0.1,0.98,1.71,2.56,1.04,982.06,22.11,
7192439,0.05,0.1,0.98,1.65,2.56,1.04,982.1,22.11,
7192478,0.05,0.1,0.98,1.77,2.81,1.1,982.05,22.11,
7192528,0.05,0.1,0.98,1.59,2.69,1.1,982.12,22.09,
7192566,0.05,0.1,0.98,1.71,2.75,1.1,982.12,22.1,
7192604,0.05,0.1,0.98,1.77,2.5,1.1,982.14,22.11,
7192642,0.05,0.1,0.98,1.77,2.62,1.22,982.06,22.11,
7192681,0.05,0.1,0.98,1.77,2.75,1.04,982.11,22.11,
7192719,0.05,0.1,0.98,1.65,2.62,1.1,982.08,22.11,
7192757,0.05,0.1,0.99,1.65,2.56,1.04,982.11,22.11,
7192795,0.05,0.1,0.98,1.59,2.56,1.04,982.11,22.13,
7192834,0.05,0.1,0.98,1.83,2.5,0.98,982.08,22.11,
7192872,0.05,0.1,0.98,1.65,2.69,1.04,982.02,22.1,
7192922,0.05,0.1,0.98,1.71,2.75,1.1,981.99,22.09,
7192960,0.05,0.1,0.98,1.77,2.5,0.98,982.06,22.11,
7192998,0.05,0.1,0.98,1.77,2.44,1.1,982.03,22.11,
7193037,0.05,0.1,0.98,1.83,2.69,1.1,982.01,22.11,
7193075,0.05,0.1,0.98,1.65,2.69,1.1,982.03,22.11,
7193113,0.05,0.1,0.99,1.71,2.75,0.92,982.03,22.11,
7193151,0.05,0.1,0.98,1.71,2.93,1.1,982.1,22.11,
7193190,0.05,0.1,0.98,1.59,2.93,0.98,982.06,22.11,
7193228,0.05,0.1,0.98,1.77,2.99,1.1,982.08,22.1,
7193266,0.05,0.1,0.99,1.77,2.87,1.04,982.04,22.11,
7193343,0.05,0.1,0.99,1.65,2.81,1.1,982.06,22.08,
7193382,0.05,0.1,0.98,1.71,2.75,0.98,982.07,22.09,
7193420,0.06,0.1,0.98,1.77,2.75,1.16,982.09,22.1,
7193510,0.05,0.1,0.98,1.77,2.5,1.16,982.09,22.06,
7193548,0.05,0.1,0.98,1.77,2.5,0.98,982.08,22.08,
7193586,0.05,0.1,0.98,1.65,2.44,1.1,982.02,22.09,
7193624,0.05,0.1,0.98,1.71,2.44,1.1,982.08,22.1,
7193663,0.05,0.1,0.98,1.77,2.5,1.16,982.03,22.09,
7193701,0.05,0.1,0.98,1.89,2.5,0.98,982.04,22.09,
7193739,0.04,0.1,0.98,1.77,2.5,0.98,982.09,22.1,
7193789,0.04,0.1,0.98,1.65,2.75,0.98,982.09,22.08,
7193827,0.04,0.1,0.98,1.83,2.99,1.04,982.09,22.09,
7193866,0.05,0.1,0.99,1.83,2.93,1.16,982.04,22.09,
7193904,0.05,0.1,0.98,1.77,2.93,1.22,982.05,22.09,
7193942,0.05,0.1,0.98,1.77,2.93,1.04,982.07,22.09,
7193980,0.05,0.1,0.98,1.77,2.75,1.04,982.07,22.09,
7194019,0.05,0.1,0.98,1.89,2.75,1.16,982.06,22.11,
7194057,0.05,0.1,0.98,1.71,2.81,1.04,982.06,22.09,
7194095,0.05,0.1,0.99,1.83,2.69,1.22,982.05,22.1,
7194133,0.05,0.1,0.98,1.89,2.5,1.22,982.11,22.09,
7194183,0.05,0.1,0.98,1.65,2.44,1.1,982.12,22.08,
7194222,0.05,0.1,0.98,1.77,2.62,0.98,982.22,22.1,
7194260,0.05,0.1,0.98,1.83,2.69,0.98,982.14,22.09,
7194298,0.04,0.1,0.98,1.65,2.75,0.98,982.15,22.1,
7194336,0.04,0.1,0.98,1.83,2.99,1.1,982.11,22.1,
7194375,0.04,0.1,0.98,1.59,3.05,0.98,982.14,22.1,
7194413,0.05,0.1,0.98,1.53,3.11,1.04,982.1,22.09,
7194451,0.05,0.1,0.99,1.83,3.05,1.16,982.13,22.1,
7194489,0.06,0.1,0.98,1.71,3.11,1.1,982.12,22.09,
7194528,0.05,0.1,0.98,1.65,2.99,1.22,982.1,22.1,
7194578,0.05,0.1,0.98,1.71,2.81,1.1,982.11,22.09,
7194616,0.05,0.1,0.98,1.59,2.93,1.1,982.15,22.09,
7194654,0.05,0.1,0.98,1.83,2.62,0.98,982.1,22.08,
7194692,0.05,0.1,0.99,1.89,2.5,1.1,982.12,22.09,
7194731,0.05,0.1,0.98,1.77,2.62,1.04,982.11,22.09,
7194769,0.05,0.1,0.98,1.65,2.69,0.92,982.06,22.1,
7194807,0.05,0.1,0.98,1.65,2.5,1.04,982.05,22.1,
7194845,0.05,0.1,0.98,1.71,2.38,0.98,982.07,22.09,
7194884,0.05,0.1,0.98,1.65,2.62,0.98,982.07,22.1,
7194922,0.05,0.1,0.98,1.77,2.75,1.22,982.14,22.09,
7194972,0.04,0.1,0.98,1.77,2.81,1.1,982.18,22.09,
7195010,0.05,0.1,0.98,1.77,2.93,1.04,982.12,22.1,
7195048,0.05,0.1,0.98,1.77,2.81,1.16,982.07,22.08,
7195087,0.05,0.1,0.98,1.77,3.05,1.04,982.12,22.09,
7195125,0.05,0.1,0.98,1.83,2.87,1.1,982.12,22.09,
7195163,0.05,0.1,0.98,1.65,2.87,1.16,982.07,22.09,
7195201,0.05,0.1,0.99,1.65,2.87,1.1,982.14,22.1,
7195240,0.05,0.1,0.98,1.53,2.69,1.04,982.09,22.09,
7195278,0.05,0.1,0.98,1.71,2.75,0.98,982.04,22.09,
7195316,0.05,0.1,0.98,1.71,2.62,1.22,982.08,22.1,
7195366,0.05,0.1,0.98,1.77,2.5,1.16,982.05,22.08,
7195404,0.05,0.1,0.98,1.71,2.44,0.85,982.05,22.09,
7195443,0.05,0.1,0.98,1.65,2.56,1.1,982.07,22.08,
7195481,0.05,0.1,0.98,1.71,2.62,0.98,982.06,22.1,
7195519,0.05,0.1,0.98,1.83,2.81,1.04,982.12,22.09,
7195557,0.05,0.1,0.98,1.71,2.69,1.1,982.17,22.09,
7195596,0.05,0.1,0.98,1.83,2.75,1.22,982.06,22.09,
7195634,0.05,0.1,0.98,1.77,2.62,1.22,982.07,22.09,
7195672,0.05,0.1,0.98,1.71,2.87,1.28,982.12,22.1,
7195710,0.05,0.1,0.99,1.83,2.75,0.98,982.08,22.09,
7195760,0.05,0.1,0.98,1.83,2.93,1.1,982.05,22.09,
7195799,0.05,0.1,0.99,1.83,2.75,1.1,982.07,22.09,
7195837,0.05,0.1,0.98,1.83,2.81,1.04,982.01,22.08,
7195875,0.05,0.1,0.98,1.59,2.81,1.22,982.05,22.08,
7195913,0.05,0.1,0.98,1.83,2.75,1.16,982.1,22.09,
7195952,0.05,0.1,0.98,1.77,2.75,1.1,982.03,22.08,
7195990,0.05,0.1,0.98,1.77,2.81,0.98,982.03,22.07,
7196028,0.05,0.1,0.99,1.65,2.69,1.16,982.09,22.09,
7196066,0.05,0.1,0.98,1.83,2.69,1.04,982.04,22.09,
7196105,0.05,0.1,0.98,1.77,2.81,1.04,982.1,22.09,
7196155,0.05,0.1,0.98,1.83,2.5,1.16,982.05,22.06,
7196193,0.05,0.1,0.98,1.65,2.62,1.1,982.05,22.09,
7196231,0.05,0.1,0.98,1.77,2.56,0.98,982.06,22.09,
7196269,0.05,0.1,0.99,1.71,2.75,1.16,982.02,22.08,
7196308,0.05,0.1,0.98,1.77,2.87,0.92,982.06,22.08,
7196346,0.05,0.1,0.98,1.71,2.69,0.98,982.06,22.09,
7196384,0.05,0.1,0.98,1.83,2.81,1.1,982.08,22.07,
7196422,0.05,0.1,0.98,1.71,2.75,1.04,982.09,22.08,
7196461,0.05,0.1,0.99,1.77,2.81,1.04,982.07,22.09,
7196499,0.05,0.1,0.99,1.59,2.62,0.98,982.03,22.08,
7196575,0.05,0.1,0.98,1.65,2.69,1.1,982.04,22.05,
7196613,0.05,0.1,0.98,1.71,2.69,1.1,982.03,22.06,
7196651,0.05,0.1,0.98,1.71,2.75,0.92,982.01,22.08,
7196741,0.05,0.1,0.98,1.65,2.69,0.92,982.06,22.04,
7196780,0.05,0.1,0.98,1.71,2.5,1.1,982.04,22.05,
7196818,0.05,0.1,0.98,1.65,2.69,1.1,982.01,22.07,
7196856,0.05,0.1,0.98,1.83,2.5,0.98,982.02,22.06,
7196894,0.05,0.1,0.98,1.77,2.56,1.1,981.99,22.07,
7196932,0.04,0.1,0.98,1.83,2.87,1.16,982.02,22.08,
7196971,0.05,0.1,0.98,1.83,2.69,0.92,982.02,22.08,
7197021,0.05,0.1,0.99,1.89,2.81,1.1,982.03,22.06,
7197059,0.05,0.1,0.98,1.71,2.99,0.98,982.02,22.08,
7197097,0.05,0.1,0.98,1.83,2.75,1.22,982.07,22.08,
7197135,0.05,0.1,0.98,1.89,3.05,1.1,982.05,22.07,
7197174,0.05,0.1,0.98,1.71,3.05,1.04,982.06,22.08,
7197212,0.05,0.1,0.99,1.77,3.05,1.04,982.13,22.09,
7197250,0.05,0.1,0.99,1.71,2.93,0.92,982.08,22.08,
7197288,0.06,0.1,0.99,1.65,2.81,1.16,982.08,22.08,
7197327,0.05,0.1,0.98,1.71,2.75,0.92,982.06,22.08,
7197365,0.05,0.1,0.98,1.77,2.69,1.1,982.09,22.08,
7197415,0.05,0.1,0.98,2.01,2.5,1.22,982.12,22.07,
7197453,0.05,0.1,0.99,1.83,2.44,1.1,982.11,22.08,
7197491,0.05,0.1,0.98,1.71,2.62,1.16,982.04,22.08,
7197530,0.05,0.1,0.98,1.65,2.44,0.92,982.16,22.1,
7197568,0.05,0.1,0.98,1.83,2.69,1.04,982.12,22.09,
7197606,0.05,0.1,0.98,1.77,2.5,1.04,982.05,22.09,
7197644,0.05,0.1,0.98,1.65,2.69,1.04,982.07,22.09,
7197683,0.05,0.1,0.98,1.59,2.81,1.1,982.07,22.09,
7197721,0.05,0.1,0.98,1.83,2.75,1.04,982.11,22.09,
7197759,0.05,0.1,0.99,1.71,2.93,1.1,982.07,22.07,
7197809,0.05,0.1,0.98,1.77,3.11,0.98,982.09,22.09,
7197847,0.05,0.1,0.98,1.83,2.93,0.98,982.12,22.1,
7197886,0.05,0.1,0.98,1.77,2.81,1.16,982.13,22.1,
7197924,0.05,0.1,0.98,1.65,2.87,1.1,982.08,22.08,
7197962,0.05,0.1,0.99,1.71,2.69,0.98,982.07,22.1,
7198000,0.05,0.1,0.98,1.83,2.75,1.04,982.07,22.08,
7198039,0.05,0.1,0.98,1.89,2.56,1.04,982.13,22.1,
7198077,0.05,0.1,0.98,1.83,2.62,0.85,982.04,22.09,
7198115,0.05,0.1,0.98,1.77,2.5,0.98,982.06,22.09,
7198153,0.05,0.1,0.98,1.77,2.56,1.1,982.11,22.09,
7198203,0.05,0.1,0.98,1.77,2.56,0.98,982.1,22.09,
7198242,0.05,0.1,0.98,1.77,2.69,1.04,982.02,22.09,
7198280,0.05,0.1,0.98,1.77,2.75,1.1,982.07,22.09,
7198318,0.05,0.1,0.98,1.65,2.87,1.16,982.1,22.1,
7198356,0.05,0.1,0.98,1.77,2.87,1.1,982.07,22.1,
7198395,0.05,0.1,0.98,1.77,2.93,0.98,982.09,22.1,
7198433,0.05,0.1,0.98,1.77,2.87,1.04,982.11,22.1,
7198471,0.05,0.1,0.98,1.77,2.87,1.1,982.01,22.1,
7198510,0.05,0.1,0.98,1.77,2.93,1.1,982.01,22.1,
7198548,0.05,0.1,0.98,1.71,2.81,1.04,982.06,22.1,
7198598,0.05,0.1,0.98,1.59,2.75,1.04,982.02,22.09,
7198636,0.05,0.1,0.98,1.83,2.69,1.1,982.07,22.09,
7198674,0.05,0.1,0.98,1.53,2.56,1.1,982.04,22.09,
7198712,0.05,0.1,0.99,1.65,2.5,1.1,982.05,22.1,
7198751,0.05,0.1,0.98,1.83,2.44,0.98,982.02,22.09,
7198789,0.05,0.1,0.98,1.77,2.69,1.04,982.06,22.09,
7198827,0.05,0.1,0.99,1.71,2.62,1.04,982.04,22.1,
7198865,0.05,0.1,0.98,1.77,2.69,0.92,982.08,22.1,
7198904,0.05,0.1,0.98,1.71,2.75,1.16,982.1,22.1,
7198942,0.05,0.1,0.98,1.71,2.87,1.04,982.05,22.09,
7198992,0.05,0.1,0.98,1.77,2.81,1.04,982.1,22.09,
7199030,0.05,0.1,0.98,1.77,2.99,1.04,982.15,22.1,
7199068,0.05,0.1,0.99,1.65,2.69,1.04,982.14,22.09,
7199107,0.05,0.1,0.98,1.71,2.75,0.92,982.07,22.09,
7199145,0.05,0.1,0.98,1.71,2.75,1.04,982.07,22.1,
7199183,0.05,0.1,0.98,1.77,2.69,1.04,982.04,22.07,
7199221,0.05,0.1,0.98,1.83,2.56,0.85,982.08,22.1,
7199260,0.05,0.1,0.99,1.77,2.5,0.98,982.05,22.09,
7199298,0.05,0.1,0.98,2.01,2.75,0.98,982.08,22.09,
7199336,0.05,0.1,0.98,1.65,2.69,1.04,982.03,22.08,
7199386,0.05,0.1,0.98,1.77,2.81,1.16,982.06,22.08,
7199424,0.05,0.1,0.98,1.77,2.69,1.04,982.04,22.08,
7199463,0.05,0.1,0.99,1.77,2.75,1.04,982.11,22.1,
7199501,0.05,0.1,0.98,1.65,2.69,1.16,982.07,22.1,
7199539,0.05,0.1,0.99,1.71,2.81,1.1,982.02,22.08,
7199577,0.05,0.1,0.98,1.77,2.93,1.22,982.02,22.09,
7199616,0.05,0.1,0.98,1.71,2.93,0.98,982.02,22.09,
7199654,0.05,0.1,0.99,1.95,2.93,1.1,982.07,22.1,
7199692,0.06,0.1,0.98,1.83,2.87,1.04,982.12,22.09,
7199730,0.05,0.1,0.98,1.83,2.93,0.92,982.1,22.1,
7199806,0.05,0.1,0.98,1.83,2.69,1.1,982.1,22.05,
7199845,0.05,0.1,0.98,1.77,2.62,1.04,982.1,22.08,
7199883,0.05,0.1,0.99,1.89,2.44,1.04,982.08,22.09,
7199973,0.05,0.1,0.99,1.83,2.62,0.85,982.09,22.06,
7200011,0.05,0.1,0.98,1.77,2.62,1.28,982.0,22.06,
7200049,0.05,0.1,0.98,1.59,2.69,1.04,982.09,22.06,
7200088,0.05,0.1,0.98,1.83,2.69,1.04,982.05,22.07,
7200126,0.05,0.1,0.98,1.83,2.69,1.04,982.05,22.07,
7200164,0.04,0.1,0.98,1.77,2.56,1.1,982.01,22.08,
7200202,0.05,0.1,0.98,1.71,2.93,0.98,982.05,22.08,
7200252,0.05,0.1,0.98,1.83,3.05,1.04,982.03,22.06,
7200290,0.05,0.1,0.98,1.89,2.93,0.98,982.03,22.07,
7200329,0.05,0.1,0.99,1.71,3.05,0.98,982.05,22.08,
7200367,0.05,0.1,0.99,1.77,2.99,1.1,982.02,22.08,
7200405,0.05,0.1,0.98,1.77,3.17,1.1,982.1,22.09,
7200443,0.05,0.1,0.99,1.83,2.99,1.16,982.1,22.09,
7200482,0.05,0.1,0.98,1.71,2.93,1.16,982.1,22.09,
7200520,0.06,0.1,0.98,1.71,2.81,1.1,982.1,22.09,
7200558,0.06,0.1,0.99,1.77,2.62,1.1,982.12,22.09,
7200596,0.05,0.1,0.98,1.77,2.56,1.16,982.06,22.09,
7200646,0.05,0.1,0.98,1.83,2.5,1.04,982.11,22.08,
7200685,0.05,0.1,0.98,1.89,2.5,1.1,982.07,22.09,
7200723,0.05,0.1,0.98,1.89,2.56,1.1,982.03,22.09,
7200761,0.05,0.1,0.98,1.83,2.56,1.1,982.12,22.09,
7200799,0.05,0.1,0.99,1.53,2.38,0.98,982.08,22.09,
7200838,0.05,0.1,0.99,1.77,2.93,1.16,982.05,22.09,
7200876,0.05,0.1,0.98,1.89,2.81,1.16,982.07,22.09,
7200914,0.05,0.1,0.98,1.83,2.93,1.1,982.04,22.09,
7200952,0.05,0.1,0.98,1.83,2.81,1.1,982.06,22.09,
7200991,0.05,0.1,0.98,1.83,2.93,1.04,982.08,22.1,
7201041,0.05,0.1,0.99,1.71,2.93,1.16,982.1,22.09,
7201079,0.05,0.1,0.99,1.77,2.75,1.04,982.14,22.09,
7201117,0.05,0.1,0.98,1.89,2.62,1.04,982.09,22.09,
7201155,0.05,0.1,0.99,1.65,2.69,1.04,982.13,22.09,
7201194,0.05,0.1,0.98,1.89,2.62,0.98,982.13,22.09,
7201232,0.05,0.1,0.98,1.77,2.56,1.04,982.12,22.09,
7201270,0.05,0.1,0.99,1.77,2.69,1.1,982.11,22.1,
7201308,0.05,0.1,0.98,1.71,2.5,1.04,982.17,22.1,
7201347,0.05,0.1,0.98,1.83,2.56,1.1,982.09,22.07,
7201385,0.05,0.1,0.98,1.83,2.69,0.92,982.14,22.09,
7201435,0.05,0.1,0.98,1.77,2.56,1.04,982.13,22.09,
7201473,0.05,0.1,0.98,1.83,2.75,1.1,982.11,22.09,
7201511,0.04,0.1,0.98,1.71,2.99,1.1,982.13,22.09,
7201550,0.05,0.1,0.98,1.83,2.87,1.16,982.1,22.08,
7201588,0.05,0.1,0.98,1.77,2.93,1.1,982.09,22.09,
7201626,0.05,0.1,0.98,1.71,2.87,0.85,982.03,22.08,
7201664,0.05,0.1,0.98,1.71,2.99,0.98,982.1,22.09,
7201703,0.05,0.1,0.98,1.71,2.93,1.1,982.04,22.09,
7201741,0.05,0.1,0.99,1.83,2.87,1.22,982.04,22.09,
7201779,0.05,0.1,0.98,1.65,2.93,1.22,982.08,22.09,
7201829,0.05,0.1,0.98,1.77,2.62,0.98,982.12,22.08,
7201867,0.05,0.1,0.98,1.77,2.62,1.04,982.12,22.08,
7201906,0.05,0.1,0.98,1.71,2.44,1.1,982.11,22.09,
7201944,0.05,0.1,0.98,1.77,2.56,1.1,982.09,22.09,
7201982,0.05,0.1,0.98,1.71,2.56,1.04,982.09,22.09,
7202020,0.05,0.1,0.98,1.89,2.38,1.16,982.16,22.1,
7202059,0.05,0.1,0.98,1.77,2.69,1.1,982.08,22.09,
7202097,0.04,0.1,0.98,1.53,2.56,0.98,982.07,22.09,
7202135,0.04,0.1,0.98,1.71,2.93,0.98,982.02,22.09,
7202173,0.05,0.1,0.98,1.71,2.81,0.92,982.06,22.09,
7202223,0.05,0.1,0.98,1.71,2.93,1.1,982.09,22.08,
7202262,0.05,0.1,0.99,1.71,3.05,1.04,982.06,22.09,
7202300,0.05,0.1,0.98,1.65,2.99,0.98,982.07,22.08,
7202338,0.05,0.1,0.98,1.71,2.99,1.1,982.07,22.09,
7202376,0.05,0.1,0.98,1.53,2.87,1.1,982.07,22.09,
7202415,0.05,0.1,0.98,1.77,2.75,1.16,982.09,22.09,
7202453,0.05,0.1,0.99,1.83,2.69,1.1,982.07,22.07,
7202491,0.06,0.1,0.98,1.71,2.69,0.98,982.07,22.09,
7202529,0.05,0.1,0.98,1.71,2.62,1.04,982.03,22.07,
7202568,0.05,0.1,0.98,1.77,2.62,0.98,982.05,22.08,
7202618,0.05,0.1,0.98,1.77,2.44,1.04,982.0,22.05,
7202656,0.05,0.1,0.98,1.71,2.62,1.16,982.02,22.08,
7202694,0.05,0.1,0.98,1.83,2.44,1.1,982.07,22.08,
7202732,0.05,0.1,0.98,1.77,2.75,1.04,982.07,22.07,
7202771,0.05,0.1,0.98,1.77,2.69,1.04,982.13,22.08,
7202809,0.05,0.1,0.98,1.83,2.75,0.98,982.06,22.07,
7202847,0.05,0.1,0.98,1.71,2.75,1.1,982.08,22.07,
7202885,0.05,0.1,0.98,1.83,2.87,1.16,982.09,22.09,
7202924,0.05,0.1,0.98,1.71,2.99,1.16,982.06,22.09,
7202962,0.05,0.1,0.98,1.77,2.93,1.1,982.09,22.08,
7203000,0.05,0.1,0.98,1.77,2.99,1.04,982.06,22.07,
7203076,0.05,0.1,0.98,1.77,2.99,1.1,982.07,22.06,
7203114,0.05,0.1,0.98,1.71,2.75,1.04,982.08,22.06,
7203153,0.05,0.1,0.98,1.71,2.62,1.16,982.11,22.08,
7203242,0.05,0.1,0.98,1.95,2.69,0.98,982.03,22.03,
7203281,0.05,0.1,0.98,1.71,2.69,1.1,982.11,22.04,
7203319,0.05,0.1,0.98,1.83,2.56,1.1,982.07,22.05,
7203357,0.05,0.1,0.98,1.83,2.62,1.22,982.12,22.06,
7203395,0.05,0.1,0.98,1.65,2.69,0.98,982.1,22.07,
7203434,0.04,0.1,0.98,1.53,2.81,1.04,982.07,22.07,
7203472,0.05,0.1,0.98,1.77,2.99,1.04,981.99,22.06,
7203522,0.05,0.1,0.98,1.59,2.87,1.1,982.05,22.05,
7203560,0.05,0.1,0.99,1.77,2.99,1.1,982.02,22.08,
7203598,0.05,0.1,0.98,1.59,2.87,1.1,982.12,22.06,
7203637,0.05,0.1,0.99,1.71,2.69,0.98,982.02,22.07,
7203675,0.05,0.1,0.98,1.71,2.62,1.1,982.07,22.06,
7203713,0.05,0.1,0.98,1.65,2.81,1.1,982.06,22.07,
7203751,0.05,0.1,0.98,1.71,2.75,0.85,982.05,22.07,
7203790,0.05,0.1,0.99,1.71,2.69,0.98,982.04,22.07,
7203828,0.05,0.1,0.99,1.77,2.5,0.98,982.06,22.09,
7203866,0.05,0.1,0.99,1.89,2.5,1.1,982.07,22.07,
