timestamp,acc_x,acc_y,acc_z,rot_x,rot_y,rot_z,qfe,temp
3376514,-0.06,-0.01,1.09,2.44,6.04,1.22,952.44,32.82
3376552,-0.07,-0.03,1.06,1.95,6.96,1.59,952.42,32.81
3376602,-0.06,-0.02,1.11,2.62,5.86,1.53,952.51,32.82
3376640,-0.07,-0.02,1.08,2.5,6.71,2.01,952.47,32.81
3376678,-0.05,-0.02,1.11,3.05,5.49,2.08,952.52,32.82
3376716,-0.05,-0.04,1.02,2.69,6.41,2.2,952.5,32.81
3376754,-0.06,-0.04,0.97,3.05,5.19,2.26,952.51,32.81
3376793,-0.06,-0.04,0.91,2.99,5.74,2.38,952.51,32.82
3376831,-0.05,-0.04,0.88,2.93,4.46,2.56,952.48,32.8
3376869,-0.03,-0.04,0.86,2.75,5.13,2.56,952.56,32.82
3376907,-0.04,-0.04,0.89,2.56,3.78,2.62,952.51,32.81
3376945,-0.05,-0.05,0.91,1.89,4.15,2.75,952.53,32.81
3376995,-0.03,-0.05,0.94,1.53,3.36,2.62,952.56,32.8
3377033,-0.04,-0.04,0.95,1.28,3.11,2.75,952.59,32.8
3377071,-0.04,-0.04,0.93,0.85,2.99,2.81,952.63,32.8
3377109,-0.05,-0.04,0.96,1.16,2.69,2.69,952.57,32.81
3377147,-0.04,-0.05,0.94,0.85,3.54,2.62,952.61,32.8
3377185,-0.03,-0.04,0.98,0.98,2.62,2.81,952.61,32.81
3377224,-0.04,-0.04,0.96,0.85,2.99,2.69,952.66,32.81
3377262,-0.04,-0.04,0.98,0.98,2.75,2.5,952.67,32.8
3377300,-0.03,-0.04,1.0,0.85,2.93,2.56,952.66,32.81
3377338,-0.02,-0.04,0.98,0.73,2.69,2.38,952.62,32.8
3377388,-0.04,-0.04,0.98,0.73,2.56,2.32,952.65,32.8
3377426,-0.03,-0.05,0.97,0.61,2.62,2.2,952.6,32.81
3377464,-0.02,-0.04,0.97,0.61,2.81,2.01,952.66,32.8
3377502,-0.03,-0.04,0.98,0.92,2.5,2.08,952.67,32.81
3377540,-0.03,-0.05,0.96,0.79,3.36,2.01,952.62,32.81
3377579,-0.02,-0.04,0.96,0.98,3.17,1.77,952.74,32.81
3377617,-0.02,-0.04,0.99,1.1,3.17,1.83,952.67,32.8
3377655,-0.02,-0.04,0.99,0.85,3.05,1.71,952.72,32.81
3377693,-0.03,-0.04,1.01,0.79,2.62,1.4,952.67,32.81
3377743,-0.01,-0.04,1.02,0.37,2.81,1.65,952.72,32.79
3377781,-0.02,-0.03,1.07,0.18,1.53,1.4,952.7,32.8
3377819,-0.03,-0.03,1.1,0.18,1.16,1.59,952.75,32.81
3377857,-0.02,-0.02,1.12,-0.37,0.85,1.46,952.75,32.82
3377895,-0.03,-0.02,1.16,-0.31,-0.12,1.16,952.76,32.81
3377934,-0.03,-0.04,1.16,-0.55,0.55,1.34,952.71,32.8
3377972,-0.02,-0.03,1.14,-0.31,0.43,1.22,952.72,32.82
3378010,-0.02,-0.02,1.13,-0.37,1.28,0.79,952.76,32.81
3378048,-0.01,-0.02,1.07,-0.12,0.92,0.55,952.82,32.8
3378086,-0.02,-0.02,1.11,0.18,0.55,0.43,952.75,32.8
3378136,-0.02,-0.03,1.11,0.67,2.01,0.18,952.8,32.79
3378174,-0.02,-0.02,1.16,1.04,1.77,-0.12,952.82,32.79
3378212,-0.03,-0.02,1.15,1.34,1.77,-0.12,952.78,32.8
3378250,-0.04,-0.01,1.19,1.89,1.65,-0.31,952.79,32.81
3378288,-0.02,-0.03,1.16,1.71,2.5,-0.31,952.83,32.82
3378327,-0.04,-0.02,1.14,1.77,1.71,-0.49,952.87,32.8
3378365,-0.04,-0.02,1.12,2.14,2.38,-0.43,952.9,32.81
3378403,-0.02,-0.02,1.09,2.2,2.93,-0.85,952.92,32.81
3378441,-0.03,-0.02,1.1,2.69,2.75,-0.67,952.87,32.82
3378491,-0.03,-0.04,1.08,2.81,3.23,-0.67,952.88,32.8
3378529,-0.04,-0.04,1.02,3.11,3.48,-0.79,952.83,32.8
3378567,-0.05,-0.02,1.04,3.17,2.62,-0.79,952.88,32.81
3378605,-0.03,-0.04,1.03,2.81,2.93,-0.67,952.8,32.79
3378643,-0.03,-0.04,1.06,2.5,2.38,-0.85,952.84,32.81
3378681,-0.04,-0.04,1.07,2.14,3.23,-0.73,952.75,32.8
3378720,-0.04,-0.03,1.1,1.83,2.93,-0.55,952.76,32.8
3378758,-0.03,-0.02,1.15,1.71,2.93,-0.67,952.76,32.8
3378796,-0.04,-0.02,1.13,1.1,2.69,-0.55,952.75,32.8
3378834,-0.05,-0.01,1.2,1.22,1.83,-0.37,952.77,32.8
3378910,-0.04,-0.02,1.19,0.24,2.08,-0.37,952.77,32.78
3378948,-0.06,-0.02,1.2,0.0,2.87,-0.31,952.82,32.8
3378986,-0.05,-0.03,1.17,0.0,3.23,-0.37,952.81,32.79
3379075,-0.05,-0.03,1.2,-0.43,4.03,-0.24,952.77,32.75
3379114,-0.05,-0.02,1.21,-0.55,4.39,-0.43,952.81,32.77
3379152,-0.05,-0.01,1.24,-0.49,4.82,-0.24,952.8,32.78
3379190,-0.05,-0.02,1.24,-0.43,5.8,-0.06,952.79,32.78
3379228,-0.05,-0.01,1.25,-0.12,5.68,-0.06,952.81,32.78
3379266,-0.05,-0.02,1.25,0.24,6.1,0.0,952.79,32.79
3379316,-0.05,-0.01,1.23,0.55,6.41,0.18,952.76,32.77
3379354,-0.05,-0.01,1.24,0.79,6.59,0.12,952.81,32.78
3379392,-0.04,-0.01,1.22,0.85,6.35,0.49,952.81,32.78
3379430,-0.04,-0.01,1.23,0.67,5.92,0.43,952.84,32.78
3379468,-0.04,-0.03,1.23,0.18,5.62,0.92,952.82,32.78
3379506,-0.05,-0.02,1.22,0.18,5.49,0.98,952.76,32.78
3379544,-0.04,-0.01,1.22,0.06,5.25,0.85,952.83,32.78
3379583,-0.03,-0.01,1.2,0.0,5.43,1.1,952.8,32.79
3379621,-0.03,-0.01,1.2,-0.24,4.7,1.22,952.89,32.8
3379659,-0.04,-0.01,1.21,-0.31,4.58,1.46,952.86,32.78
3379709,-0.03,-0.02,1.22,0.0,4.58,1.59,952.84,32.78
3379747,-0.03,-0.01,1.24,0.43,4.21,1.4,952.86,32.78
3379785,-0.04,-0.01,1.24,0.61,4.64,1.59,952.78,32.79
3379823,-0.03,-0.02,1.21,1.22,4.09,1.71,952.82,32.78
3379861,-0.03,-0.02,1.19,1.65,4.58,1.59,952.86,32.78
3379899,-0.03,-0.02,1.16,1.89,4.76,1.59,952.76,32.77
3379937,-0.02,-0.02,1.15,2.01,4.76,1.65,952.88,32.79
3379976,-0.03,-0.02,1.18,2.56,4.27,1.71,952.85,32.78
3380014,-0.03,-0.03,1.13,2.56,5.25,1.46,952.86,32.8
3380064,-0.04,-0.03,1.17,2.87,4.64,1.65,952.83,32.78
3380102,-0.02,-0.04,1.12,2.93,5.07,1.71,952.8,32.77
3380140,-0.03,-0.04,1.14,3.05,4.15,1.53,952.78,32.78
3380178,-0.05,-0.04,1.1,3.17,4.27,1.59,952.76,32.78
3380216,-0.04,-0.04,1.06,3.3,3.97,1.65,952.79,32.78
3380254,-0.02,-0.04,1.08,3.23,3.78,1.59,952.76,32.79
3380292,-0.03,-0.05,1.06,3.17,3.36,1.65,952.7,32.78
3380330,-0.03,-0.05,1.04,3.11,2.99,1.59,952.7,32.79
3380369,-0.03,-0.05,1.07,2.99,2.62,1.46,952.75,32.79
3380407,-0.04,-0.05,1.05,2.81,2.38,1.77,952.72,32.78
3380457,-0.05,-0.04,1.04,2.5,1.04,1.89,952.64,32.78
3380495,-0.05,-0.06,1.0,2.38,2.01,1.83,952.66,32.78
3380533,-0.03,-0.06,0.97,2.08,1.65,1.71,952.65,32.8
3380571,-0.02,-0.05,1.0,2.01,1.59,1.89,952.65,32.8
3380609,-0.04,-0.07,0.94,1.71,2.81,1.65,952.69,32.78
3380647,-0.02,-0.05,0.98,2.01,2.62,1.53,952.67,32.79
3380685,-0.05,-0.05,0.98,1.89,3.66,1.77,952.71,32.8
3380723,-0.02,-0.05,0.99,2.26,2.5,1.53,952.71,32.79
3380762,-0.04,-0.05,0.98,2.5,3.48,1.46,952.68,32.78
3380800,-0.04,-0.06,0.94,2.5,4.7,1.34,952.64,32.79
3380849,-0.03,-0.05,0.94,2.99,5.0,1.16,952.71,32.78
3380888,-0.04,-0.05,0.89,2.99,5.31,1.1,952.68,32.79
3380926,-0.04,-0.05,0.93,3.23,5.07,1.1,952.69,32.79
3380964,-0.01,-0.04,0.95,3.05,4.7,1.22,952.62,32.79
3381002,-0.02,-0.06,0.94,3.42,3.66,0.98,952.66,32.8
3381040,-0.05,-0.05,0.91,3.05,2.81,1.4,952.66,32.79
3381078,-0.03,-0.05,0.95,3.05,2.81,1.34,952.62,32.78
3381116,-0.03,-0.06,0.84,2.75,3.66,1.4,952.66,32.79
3381154,-0.05,-0.05,0.82,3.11,2.99,1.22,952.66,32.8
3381204,-0.04,-0.06,0.79,2.99,3.17,1.4,952.63,32.78
3381242,-0.03,-0.06,0.8,2.99,2.14,1.4,952.58,32.77
3381281,-0.03,-0.06,0.78,2.56,2.32,1.53,952.58,32.79
3381319,-0.02,-0.05,0.83,2.5,1.53,1.53,952.55,32.79
3381357,-0.04,-0.06,0.89,2.62,1.1,1.77,952.6,32.8
3381395,-0.04,-0.07,0.86,2.2,0.92,1.83,952.59,32.81
3381433,-0.04,-0.05,0.88,1.95,0.12,1.83,952.55,32.79
3381471,-0.06,-0.05,0.87,1.83,1.28,2.01,952.53,32.8
3381509,-0.01,-0.05,0.88,1.16,0.31,1.95,952.53,32.79
3381547,-0.03,-0.05,0.9,0.85,0.67,1.83,952.5,32.8
3381597,-0.04,-0.05,0.86,0.67,1.04,2.32,952.49,32.78
3381635,-0.02,-0.05,0.92,0.43,1.71,2.08,952.53,32.78
3381673,-0.03,-0.06,0.92,0.12,1.46,2.2,952.57,32.8
3381711,-0.04,-0.04,1.0,0.61,0.85,2.2,952.58,32.8
3381749,-0.02,-0.05,0.98,0.67,2.14,2.26,952.58,32.8
3381788,-0.02,-0.03,1.07,1.16,0.43,2.01,952.57,32.8
3381826,-0.04,-0.03,1.04,1.16,2.32,2.2,952.52,32.8
3381864,-0.03,-0.02,1.08,2.01,1.1,2.2,952.53,32.81
3381902,-0.02,-0.02,1.15,2.2,2.69,1.95,952.48,32.79
3381940,-0.02,-0.03,1.08,2.14,2.75,1.77,952.51,32.79
3382017,-0.02,-0.04,1.15,2.99,3.54,1.95,952.55,32.77
3382055,-0.03,-0.03,1.17,3.48,3.91,1.77,952.5,32.76
3382093,-0.04,-0.04,1.11,4.33,4.09,1.83,952.58,32.8
3382183,-0.01,-0.02,1.02,4.27,4.58,1.89,952.4,32.74
3382221,-0.01,-0.04,1.07,4.94,2.56,1.95,952.42,32.77
3382260,-0.03,-0.08,0.87,3.97,4.46,2.08,952.44,32.77
3382298,-0.02,-0.04,0.97,4.27,1.1,2.01,952.42,32.77
3382336,-0.01,-0.07,0.89,3.11,3.78,1.83,952.36,32.76
3382374,-0.02,-0.05,0.87,2.81,1.65,1.89,952.42,32.78
3382424,0.02,-0.06,0.93,2.26,3.97,1.53,952.29,32.75
3382462,0.0,-0.07,0.88,1.65,3.05,1.4,952.31,32.78
3382500,-0.02,-0.04,1.0,1.83,2.69,1.53,952.34,32.77
3382538,-0.01,-0.06,0.98,1.34,3.6,1.59,952.32,32.77
3382576,-0.02,-0.06,1.0,1.28,3.36,1.22,952.33,32.78
3382614,0.0,-0.05,0.99,1.53,4.52,1.28,952.33,32.79
3382653,-0.0,-0.05,0.98,1.71,4.03,1.1,952.35,32.79
3382691,0.01,-0.05,0.99,1.77,3.23,1.16,952.33,32.77
3382729,-0.01,-0.06,0.96,1.59,3.05,0.98,952.3,32.77
3382767,-0.02,-0.06,0.94,1.71,3.48,0.92,952.31,32.78
3382817,-0.02,-0.06,0.95,1.77,2.81,0.73,952.32,32.77
3382855,-0.02,-0.05,0.95,1.59,2.69,0.73,952.32,32.77
3382893,-0.01,-0.06,0.93,1.4,2.93,0.67,952.29,32.78
3382931,-0.0,-0.06,0.9,0.85,2.81,0.55,952.38,32.79
3382969,-0.01,-0.04,0.92,0.85,2.01,0.55,952.29,32.78
3383007,-0.02,-0.06,0.88,0.31,2.01,0.85,952.28,32.77
3383046,-0.02,-0.05,0.92,0.55,1.16,0.73,952.31,32.79
3383084,-0.03,-0.05,0.91,0.61,2.38,0.73,952.3,32.79
3383122,-0.03,-0.04,0.93,0.55,1.89,0.61,952.31,32.77
3383160,-0.01,-0.04,0.98,0.85,1.77,0.79,952.34,32.78
3383210,-0.04,-0.05,0.96,0.67,3.11,0.67,952.34,32.76
3383248,-0.04,-0.04,0.98,1.22,4.52,0.61,952.33,32.78
3383286,-0.04,-0.05,0.94,1.16,5.68,0.73,952.34,32.78
3383324,-0.04,-0.04,0.96,1.65,6.1,0.79,952.4,32.79
3383362,-0.04,-0.05,0.92,1.53,8.18,0.85,952.33,32.78
3383400,-0.02,-0.04,0.95,1.89,8.97,1.04,952.33,32.78
3383439,-0.02,-0.05,0.94,2.01,10.62,0.92,952.31,32.79
3383477,-0.05,-0.04,0.91,2.26,10.13,1.1,952.29,32.8
3383515,-0.04,-0.04,0.95,2.56,11.6,1.34,952.29,32.78
3383565,-0.03,-0.05,0.92,2.69,11.9,1.46,952.31,32.78
3383603,-0.05,-0.04,0.91,2.81,11.84,1.59,952.33,32.8
3383641,-0.03,-0.05,0.88,2.62,12.45,1.77,952.28,32.78
3383679,-0.01,-0.03,1.0,2.99,11.11,1.77,952.28,32.78
3383717,-0.04,-0.04,0.93,2.32,11.9,2.38,952.23,32.78
3383755,-0.01,-0.04,1.09,2.99,8.61,2.2,952.26,32.79
3383794,-0.0,-0.06,1.05,1.77,9.83,2.2,952.23,32.78
3383832,-0.03,-0.03,1.13,2.2,6.41,2.44,952.14,32.78
3383870,-0.02,-0.04,1.13,1.28,7.02,2.62,952.15,32.79
3383908,-0.01,-0.04,1.07,0.67,6.1,2.75,952.16,32.78
3383958,-0.01,-0.03,1.15,0.37,4.7,2.69,952.12,32.77
3383996,0.01,-0.05,1.06,-0.61,4.52,2.69,952.17,32.78
3384034,-0.02,-0.02,1.14,-0.24,1.77,2.69,952.21,32.78
3384072,-0.02,-0.04,1.1,-0.43,2.93,2.81,952.18,32.78
3384110,-0.01,-0.03,1.12,-0.73,2.2,2.75,952.17,32.78
3384148,-0.02,-0.03,1.13,-0.55,2.38,2.56,952.15,32.78
3384186,-0.0,-0.02,1.12,-0.31,1.53,2.26,952.17,32.78
3384224,-0.02,-0.02,1.14,-0.18,2.2,2.32,952.17,32.78
3384263,-0.0,-0.02,1.12,0.12,2.56,1.95,952.17,32.79
3384301,-0.01,-0.01,1.15,0.49,3.36,1.71,952.12,32.78
3384350,-0.02,-0.03,1.11,0.43,4.52,1.83,952.13,32.78
3384389,-0.01,-0.02,1.18,1.04,4.82,0.98,952.13,32.77
3384427,-0.02,-0.02,1.14,1.04,7.08,0.92,952.11,32.79
3384465,0.01,0.03,1.21,1.71,5.62,0.85,952.16,32.78
3384503,-0.01,-0.01,1.19,2.32,5.92,0.79,952.09,32.79
3384541,-0.03,-0.0,1.13,2.44,5.49,0.79,952.14,32.78
3384579,-0.01,-0.02,1.17,2.81,5.43,0.92,952.17,32.78
3384617,-0.01,-0.05,1.07,2.75,4.82,0.55,952.14,32.78
3384655,-0.04,-0.03,1.06,3.11,3.91,0.61,952.19,32.78
3384705,-0.0,-0.04,0.95,3.23,5.07,0.43,952.17,32.76
3384743,-0.01,-0.04,0.92,3.72,4.09,0.12,952.14,32.78
3384782,-0.02,-0.05,0.87,3.66,3.72,0.12,952.09,32.78
3384820,-0.02,-0.06,0.89,3.97,3.6,0.0,952.14,32.79
3384858,-0.02,-0.05,0.89,3.72,3.91,-0.18,952.13,32.78
3384896,-0.02,-0.03,0.91,3.97,2.44,0.0,952.14,32.79
3384934,-0.03,-0.04,0.9,4.03,2.26,-0.06,952.05,32.79
3384972,-0.02,-0.06,0.9,4.09,2.93,-0.37,952.08,32.78
3385010,-0.01,-0.05,0.92,4.21,2.14,-0.24,952.1,32.78
3385049,-0.03,-0.04,0.88,4.09,1.89,-0.31,952.05,32.78
3385124,-0.02,-0.06,0.83,3.78,1.4,-0.24,952.05,32.76
3385162,-0.03,-0.06,0.81,3.48,0.37,-0.24,952.01,32.77
3385201,-0.03,-0.05,0.78,3.23,-0.18,-0.37,952.03,32.77
3385290,-0.03,-0.05,0.78,1.95,-0.18,-0.18,951.95,32.73
3385328,-0.02,-0.05,0.82,1.4,-0.98,-0.31,952.01,32.75
3385366,-0.04,-0.05,0.86,0.85,-0.73,-0.37,952.0,32.75
3385405,-0.04,-0.04,0.92,0.98,-1.1,-0.06,952.0,32.76
3385443,-0.02,-0.04,0.96,0.98,-0.98,-0.06,952.03,32.76
3385481,-0.03,-0.04,0.98,1.22,-1.34,-0.06,952.02,32.77
3385531,-0.04,-0.04,0.96,1.65,-0.37,0.12,951.98,32.76
3385569,-0.03,-0.03,1.0,2.2,-0.61,0.06,952.01,32.77
3385607,-0.03,-0.03,0.93,2.32,0.37,0.12,952.0,32.76
3385645,-0.03,-0.03,0.97,2.87,-0.31,0.06,951.98,32.76
3385683,-0.04,-0.03,0.97,2.99,0.37,0.24,951.93,32.77
3385722,-0.04,-0.03,0.98,3.3,0.12,0.37,951.93,32.76
3385760,-0.05,-0.04,0.99,3.36,0.79,0.24,951.95,32.77
3385798,-0.05,-0.04,0.93,3.11,1.22,0.43,951.91,32.77
3385836,-0.06,-0.03,1.0,3.36,0.73,0.37,951.89,32.76
3385874,-0.05,-0.04,0.99,3.17,3.23,0.55,951.91,32.78
3385924,-0.04,-0.03,0.95,3.17,4.15,0.31,951.91,32.77
3385962,-0.06,-0.03,0.93,3.23,5.25,0.61,951.89,32.77
3386000,-0.04,-0.05,0.91,3.11,6.59,0.61,951.79,32.77
3386038,-0.04,-0.03,0.93,2.93,6.9,0.61,951.83,32.78
3386077,-0.09,-0.05,0.92,2.56,9.09,1.16,951.78,32.77
3386115,-0.05,-0.06,0.91,2.56,8.54,1.1,951.85,32.79
3386153,-0.04,-0.04,0.94,2.2,8.36,1.16,951.82,32.77
3386191,-0.05,-0.03,0.92,2.01,8.67,1.46,951.87,32.78
3386229,-0.05,-0.04,0.89,1.59,8.91,1.77,951.8,32.78
3386279,-0.03,-0.04,0.89,1.53,8.97,1.89,951.84,32.77
3386317,-0.04,-0.04,0.9,1.77,8.24,2.2,951.84,32.77
3386355,-0.04,-0.04,0.86,1.77,8.42,2.44,951.88,32.78
3386393,-0.04,-0.05,0.85,2.01,8.42,2.44,951.79,32.77
3386431,-0.03,-0.05,0.82,2.2,7.81,2.5,951.81,32.77
3386470,-0.02,-0.05,0.86,2.32,6.9,2.75,951.84,32.76
3386508,-0.03,-0.06,0.81,2.32,5.92,2.87,951.81,32.76
3386546,-0.05,-0.05,0.77,2.2,5.55,2.99,951.79,32.78
3386584,-0.04,-0.05,0.87,1.65,5.31,3.17,951.76,32.77
3386622,-0.01,-0.06,0.87,0.98,4.39,3.23,951.8,32.78
3386672,-0.04,-0.04,0.94,0.73,5.19,3.23,951.79,32.77
3386710,-0.02,-0.04,0.97,0.0,6.71,3.17,951.8,32.77
3386748,-0.03,-0.03,1.01,-0.06,6.9,3.36,951.83,32.78
3386786,-0.04,-0.02,1.01,-0.61,7.57,3.23,951.79,32.78
3386824,-0.02,-0.02,1.03,-0.24,8.97,3.11,951.81,32.79
3386862,-0.03,-0.02,1.0,-0.43,9.09,2.99,951.8,32.78
3386900,-0.01,-0.02,1.09,0.43,8.0,3.05,951.78,32.78
3386939,-0.02,-0.03,1.06,0.61,9.22,3.3,951.81,32.78
3386977,-0.01,-0.01,1.11,1.1,7.2,3.23,951.82,32.78
3387015,-0.02,-0.01,1.14,1.34,6.71,3.3,951.75,32.76
3387064,0.01,-0.02,1.11,1.04,4.52,3.42,951.77,32.76
3387103,0.01,-0.02,1.13,0.92,4.27,3.3,951.8,32.78
3387141,0.02,-0.03,1.08,0.49,2.56,3.36,951.79,32.78
3387179,0.01,-0.01,1.14,0.37,1.1,3.17,951.76,32.78
3387217,0.02,-0.02,1.1,0.43,0.67,3.05,951.77,32.78
3387255,0.0,-0.02,1.12,0.92,-0.98,2.81,951.77,32.78
3387293,-0.0,-0.02,1.15,1.65,-1.04,2.5,951.81,32.78
3387331,-0.01,-0.03,1.08,1.83,-0.73,2.26,951.82,32.78
3387369,-0.02,-0.02,1.11,2.87,-1.46,2.14,951.8,32.78
3387419,-0.02,-0.04,1.04,3.48,-0.49,1.46,951.78,32.76
3387457,-0.01,-0.04,1.04,3.97,-0.98,1.46,951.85,32.78
3387495,-0.01,-0.04,0.98,3.6,0.18,1.53,951.78,32.78
3387533,-0.02,-0.05,0.92,3.54,0.55,1.22,951.82,32.78
3387571,-0.03,-0.03,0.87,3.11,0.73,1.1,951.77,32.77
3387610,-0.02,-0.04,0.9,3.36,-0.18,1.16,951.77,32.79
3387648,-0.02,-0.06,0.84,3.05,0.24,1.22,951.7,32.78
3387686,-0.02,-0.05,0.85,3.36,-1.04,1.16,951.78,32.78
3387724,-0.02,-0.06,0.79,3.23,-0.73,1.1,951.75,32.77
3387762,-0.01,-0.06,0.76,3.42,-1.34,1.16,951.73,32.78
3387812,-0.02,-0.06,0.7,3.05,-0.85,0.92,951.76,32.76
3387850,-0.01,-0.05,0.72,3.05,-1.53,0.73,951.75,32.78
3387888,-0.05,-0.06,0.71,2.69,-1.34,0.85,951.77,32.78
3387926,-0.04,-0.06,0.72,2.75,-1.34,0.92,951.77,32.77
3387964,-0.02,-0.05,0.76,2.2,-0.55,0.98,951.76,32.79
3388003,-0.04,-0.04,0.78,1.89,0.43,0.98,951.77,32.79
3388041,-0.05,-0.04,0.81,1.65,0.85,1.46,951.73,32.78
3388079,-0.04,-0.04,0.89,1.83,2.08,0.98,951.73,32.78
3388117,-0.03,-0.05,0.9,1.83,3.78,1.1,951.76,32.79
3388193,-0.03,-0.04,0.92,2.14,5.31,1.28,951.8,32.76
3388231,-0.02,-0.04,0.91,2.2,4.7,1.46,951.84,32.77
3388269,-0.03,-0.04,0.9,2.14,5.74,1.71,951.73,32.76
3388358,-0.03,-0.05,0.91,2.62,6.35,1.4,951.76,32.74
3388397,-0.03,-0.04,0.89,2.56,6.71,1.71,951.77,32.74
3388435,-0.02,-0.04,0.93,2.81,7.02,1.77,951.77,32.74
3388473,-0.01,-0.05,0.92,3.11,7.26,1.59,951.8,32.75
3388511,-0.04,-0.04,0.91,3.42,7.02,1.89,951.78,32.75
3388549,-0.03,-0.05,0.89,3.54,7.51,2.01,951.81,32.77
3388587,-0.02,-0.04,0.9,3.6,7.14,1.83,951.74,32.76
3388637,-0.03,-0.04,0.9,3.66,7.08,2.14,951.65,32.76
3388675,-0.03,-0.05,0.91,3.66,7.39,2.2,951.77,32.76
3388713,-0.02,-0.05,0.95,3.85,7.69,2.32,951.68,32.76
3388751,-0.02,-0.04,0.98,3.78,7.32,2.44,951.75,32.76
3388789,-0.03,-0.06,0.95,3.66,7.45,2.5,951.72,32.75
3388828,-0.02,-0.05,0.94,3.6,6.47,2.44,951.75,32.76
3388866,-0.02,-0.04,0.97,3.54,6.77,2.56,951.69,32.77
3388904,-0.02,-0.06,0.9,3.36,5.37,2.81,951.71,32.77
3388942,-0.02,-0.06,0.89,2.93,4.46,2.99,951.72,32.78
3388980,-0.02,-0.06,0.87,2.87,3.97,2.87,951.68,32.78
3389030,-0.02,-0.06,0.86,2.62,3.6,2.93,951.67,32.76
3389068,-0.02,-0.05,0.89,2.75,2.5,2.81,951.69,32.77
3389106,-0.02,-0.06,0.91,2.56,3.11,2.81,951.63,32.76
3389144,-0.02,-0.06,0.88,2.44,3.54,2.69,951.65,32.76
3389182,-0.03,-0.05,0.93,2.56,3.3,2.69,951.7,32.78
3389221,-0.02,-0.05,0.91,2.01,5.13,2.5,951.67,32.78
3389259,-0.02,-0.05,0.95,2.2,4.76,2.5,951.65,32.76
3389297,-0.02,-0.05,0.97,1.89,5.98,2.26,951.73,32.77
3389335,-0.04,-0.05,0.99,1.77,6.9,2.01,951.62,32.76
3389385,-0.02,-0.04,1.11,1.77,9.09,1.95,951.6,32.75
3389423,-0.01,-0.03,1.1,1.1,7.45,1.89,951.67,32.78
3389461,-0.03,-0.04,1.17,1.46,8.79,1.83,951.7,32.78
3389499,0.0,-0.06,1.05,0.55,10.13,1.77,951.75,32.78
3389537,-0.0,-0.01,1.16,1.53,5.55,1.65,951.75,32.77
3389575,-0.03,-0.04,1.06,0.92,7.26,1.95,951.75,32.78
3389613,-0.01,-0.04,1.08,1.46,4.27,1.89,951.7,32.77
3389652,0.01,-0.04,1.07,0.92,4.88,1.77,951.75,32.79
3389690,-0.01,-0.04,1.06,1.16,1.89,1.89,951.73,32.77
3389728,-0.02,-0.03,1.07,0.79,0.79,1.95,951.71,32.76
3389778,-0.03,-0.04,1.07,0.73,0.92,1.65,951.72,32.76
3389816,-0.01,-0.05,1.07,0.61,1.4,1.46,951.79,32.78
3389854,-0.03,-0.04,1.05,0.85,0.92,1.53,951.75,32.77
3389892,-0.02,-0.04,1.06,1.04,0.85,1.16,951.77,32.77
3389930,-0.02,-0.03,1.04,1.22,1.95,1.1,951.76,32.76
3389968,-0.02,-0.03,1.1,1.59,1.89,1.1,951.8,32.78
3390006,-0.0,-0.03,1.11,1.28,1.95,1.04,951.79,32.8
3390044,-0.04,-0.03,1.16,1.65,1.28,0.79,951.75,32.78
3390082,-0.03,-0.04,1.19,1.95,1.89,0.92,951.73,32.78
3390121,-0.02,-0.03,1.17,2.32,1.89,0.79,951.73,32.78
3390170,-0.02,-0.02,1.16,2.81,1.22,0.79,951.73,32.77
3390208,-0.02,-0.03,1.12,3.11,1.16,0.73,951.69,32.76
3390247,-0.04,-0.03,1.13,3.6,1.28,0.73,951.71,32.77
3390285,-0.03,-0.03,1.13,3.48,0.98,0.67,951.7,32.78
3390323,-0.05,-0.03,1.13,3.42,0.79,0.85,951.72,32.78
3390361,-0.02,-0.04,1.09,2.99,0.85,0.85,951.72,32.8
3390399,-0.02,-0.04,1.09,2.93,0.73,0.79,951.7,32.8
3390437,-0.03,-0.04,1.04,2.93,2.5,0.79,951.66,32.78
3390475,-0.02,-0.03,1.05,2.93,2.38,0.73,951.71,32.79
3390525,-0.04,-0.04,1.05,2.56,3.72,0.55,951.69,32.78
3390563,-0.05,-0.03,1.05,2.2,5.49,0.61,951.66,32.77
3390602,-0.05,-0.03,1.06,2.38,7.26,0.31,951.71,32.78
3390640,-0.03,-0.04,1.09,1.77,8.42,0.55,951.74,32.77
3390678,-0.03,-0.04,1.12,2.38,8.12,0.43,951.77,32.78
3390716,-0.04,-0.03,1.15,2.75,7.2,0.67,951.71,32.79
3390754,-0.02,-0.04,1.11,2.56,7.57,0.85,951.66,32.78
3390792,0.0,-0.01,1.19,2.62,5.8,0.79,951.64,32.78
3390830,-0.02,-0.03,1.16,1.95,6.1,1.16,951.63,32.79
3390869,-0.02,-0.03,1.16,1.34,3.97,1.34,951.63,32.79
3390918,-0.02,-0.03,1.19,1.59,4.64,1.1,951.65,32.78
3390956,0.0,-0.03,1.21,1.95,2.56,0.98,951.66,32.77
3390994,-0.03,-0.04,1.2,2.08,2.69,0.92,951.64,32.77
3391033,-0.03,-0.03,1.08,1.95,3.17,0.67,951.58,32.78
3391071,0.0,-0.05,1.06,2.14,4.09,0.31,951.58,32.78
3391109,-0.02,-0.05,1.09,2.75,4.03,0.18,951.64,32.78
3391147,-0.03,-0.06,0.98,2.14,4.52,0.49,951.61,32.79
3391185,-0.04,-0.05,1.04,3.3,4.15,0.12,951.6,32.79
3391223,-0.02,-0.07,0.95,2.87,7.32,0.12,951.57,32.79
3391261,-0.01,-0.05,1.0,2.75,4.09,0.0,951.63,32.79
3391337,-0.01,-0.05,1.0,2.14,3.78,0.12,951.55,32.76
3391375,-0.03,-0.07,0.98,2.08,5.25,0.31,951.56,32.75
3391413,-0.0,-0.06,0.93,1.59,3.11,0.24,951.56,32.76
3391503,-0.01,-0.07,0.72,1.16,-0.06,0.31,951.54,32.74
3391541,-0.04,-0.05,0.84,2.01,-0.85,0.37,951.56,32.74
3391579,-0.0,-0.08,0.69,0.43,-0.37,0.31,951.63,32.75
3391617,-0.02,-0.05,0.75,1.16,-1.77,0.12,951.62,32.77
3391655,-0.03,-0.06,0.73,0.31,-1.4,0.12,951.62,32.75
3391693,-0.03,-0.06,0.74,0.12,-2.26,0.18,951.62,32.76
3391743,-0.04,-0.06,0.78,-0.24,-0.98,0.0,951.57,32.76
3391781,-0.03,-0.04,0.89,-0.18,-1.71,-0.24,951.67,32.76
3391820,-0.04,-0.05,0.94,0.12,-0.18,-0.12,951.73,32.76
3391858,-0.01,-0.03,1.04,0.61,0.61,-0.31,951.65,32.76
3391896,-0.05,-0.04,1.1,1.77,2.75,-0.31,951.6,32.77
3391934,-0.03,-0.04,1.06,1.77,5.19,-0.31,951.63,32.76
3391972,-0.04,-0.01,1.16,2.81,5.31,-0.43,951.62,32.78
3392010,-0.05,-0.04,1.04,3.23,8.42,-0.55,951.6,32.77
3392048,-0.04,-0.02,1.09,3.91,7.51,-0.73,951.6,32.77
3392086,-0.03,-0.01,1.18,4.46,9.03,-0.61,951.46,32.76
3392136,-0.02,-0.03,1.13,4.82,10.44,-0.61,951.42,32.77
3392174,-0.02,-0.01,1.2,5.43,8.91,-0.37,951.37,32.76
3392212,-0.03,-0.04,1.1,5.37,9.03,-0.31,951.42,32.78
3392251,-0.05,-0.02,1.07,5.74,6.47,0.0,951.38,32.78
3392289,-0.04,-0.03,1.08,6.1,5.98,0.18,951.33,32.78
3392327,-0.02,-0.04,1.02,5.8,4.58,0.43,951.36,32.77
3392365,-0.02,-0.04,1.02,6.29,1.83,0.55,951.26,32.78
3392403,-0.06,-0.04,0.96,6.41,0.49,0.98,951.19,32.77
3392441,-0.05,-0.05,0.92,5.92,-0.12,1.28,951.15,32.78
3392491,-0.02,-0.03,0.99,6.41,-1.4,1.28,951.12,32.77
3392529,-0.05,-0.05,0.9,6.1,-1.46,1.53,951.37,32.77
3392567,-0.05,-0.04,0.9,5.68,-1.4,1.65,952.41,32.78
3392605,-0.03,-0.05,0.93,5.86,-0.31,1.59,953.2,32.78
3392643,-0.05,-0.07,0.91,6.16,-0.73,1.59,953.52,32.77
3392682,-0.03,-0.09,0.84,6.35,0.43,1.95,953.8,32.78
3392720,-0.04,-0.08,0.74,6.77,0.61,2.14,953.84,32.77
3392758,-0.05,-0.09,0.7,7.51,0.98,2.14,953.84,32.78
3392796,-0.05,-0.1,0.6,6.77,0.61,2.26,953.84,32.78
3392834,-0.07,-0.09,0.66,7.39,-1.34,2.62,953.83,32.78
3392884,-0.04,-0.13,0.52,6.53,0.85,2.87,953.94,32.79
3392922,-0.04,-0.1,0.57,7.2,-0.61,2.87,953.87,32.77
3392960,-0.05,-0.12,0.49,6.53,1.22,3.36,953.9,32.77
3392998,-0.02,-0.11,0.52,7.2,-0.12,3.3,953.94,32.78
3393036,-0.04,-0.1,0.52,7.02,1.83,3.42,953.87,32.8
3393074,-0.01,-0.1,0.54,6.65,1.77,3.6,953.85,32.79
3393112,-0.04,-0.1,0.57,7.51,0.49,3.72,953.8,32.79
3393151,-0.03,-0.1,0.52,6.47,1.77,3.85,953.89,32.79
3393189,-0.02,-0.1,0.54,7.14,1.1,3.78,953.8,32.78
3393238,-0.01,-0.11,0.51,6.16,2.08,3.66,953.86,32.78
3393277,-0.03,-0.11,0.55,6.41,2.08,3.72,953.87,32.79
3393315,-0.02,-0.12,0.44,5.55,3.91,3.85,953.8,32.78
3393353,-0.01,-0.11,0.53,5.62,2.93,3.66,953.91,32.77
3393391,-0.04,-0.1,0.45,4.7,4.82,3.85,953.96,32.78
3393429,-0.0,-0.11,0.5,4.46,4.39,3.78,954.0,32.79
3393467,-0.0,-0.1,0.53,3.91,5.49,3.66,953.86,32.79
3393505,-0.02,-0.11,0.54,3.54,5.55,3.48,954.01,32.78
3393544,-0.02,-0.1,0.64,3.72,5.92,3.72,953.93,32.78
3393582,-0.01,-0.11,0.64,3.17,6.71,3.48,953.9,32.78
3393631,-0.03,-0.11,0.64,3.3,7.63,3.78,953.96,32.76
3393670,-0.0,-0.1,0.67,2.93,7.81,3.54,954.0,32.78
3393708,0.02,-0.08,0.72,2.32,7.63,3.54,954.01,32.78
3393746,0.0,-0.11,0.72,2.2,7.93,3.54,954.06,32.78
3393784,-0.0,-0.11,0.77,2.08,6.59,3.54,954.07,32.77
3393822,-0.0,-0.09,0.79,1.83,7.87,3.54,954.02,32.78
3393860,-0.01,-0.1,0.8,1.77,8.79,3.54,954.23,32.77
3393898,0.01,-0.11,0.79,2.2,8.67,3.23,954.18,32.78
3393937,0.02,-0.12,0.76,2.08,9.77,3.05,954.15,32.78
3393975,0.0,-0.11,0.8,2.32,9.64,2.93,954.16,32.78
3394024,0.0,-0.13,0.79,2.44,9.58,3.05,954.22,32.78
3394063,0.01,-0.1,0.77,1.65,8.67,3.17,954.25,32.78
3394101,0.0,-0.1,0.89,2.08,7.69,3.36,954.16,32.78
3394139,0.01,-0.11,0.81,1.28,10.38,3.54,954.07,32.78
3394177,0.03,-0.07,0.94,1.65,8.06,3.48,954.13,32.77
3394215,0.03,-0.08,0.89,0.49,9.09,3.66,954.16,32.77
3394253,-0.01,-0.09,0.97,1.59,7.69,3.6,954.06,32.77
3394291,0.03,-0.09,0.96,1.22,10.25,3.36,954.3,32.78
3394329,0.02,-0.08,0.98,1.71,8.91,3.66,954.16,32.78
3394367,0.03,-0.07,0.97,1.83,9.64,3.78,954.18,32.77
3394443,0.02,-0.08,1.03,2.56,10.19,3.54,954.15,32.74
3394481,0.06,-0.1,0.94,2.56,11.29,3.6,954.28,32.75
3394520,0.03,-0.06,0.93,2.75,11.11,3.36,954.37,32.77
3394609,0.08,-0.09,0.97,3.48,12.76,3.05,954.3,32.73
3394647,0.02,-0.09,0.94,3.91,13.61,2.93,954.34,32.74
3394685,0.03,-0.08,0.92,4.58,14.34,2.99,954.34,32.76
3394723,0.03,-0.08,0.92,4.64,14.1,3.17,954.24,32.76
3394762,0.04,-0.1,0.89,5.0,15.38,2.62,954.36,32.76
3394800,0.03,-0.1,0.87,5.0,14.95,2.62,954.38,32.75
3394849,0.07,-0.11,0.82,5.49,17.4,2.69,954.43,32.76
3394888,0.03,-0.11,0.77,5.31,17.03,2.08,954.57,32.74
3394926,0.04,-0.1,0.75,5.74,16.17,2.26,954.52,32.75
3394964,0.08,-0.11,0.74,5.49,16.78,2.38,954.51,32.77
3395002,0.04,-0.11,0.72,5.68,16.66,1.89,954.64,32.78
3395040,0.01,-0.09,0.74,5.74,17.27,1.95,954.53,32.77
3395078,0.06,-0.11,0.79,5.98,16.24,1.77,954.51,32.77
3395116,0.03,-0.13,0.79,5.68,17.4,1.65,954.72,32.78
3395155,0.07,-0.11,0.74,5.62,16.72,1.46,954.7,32.76
3395193,0.03,-0.1,0.74,5.49,17.09,1.34,954.6,32.78
3395242,0.04,-0.1,0.7,4.7,17.88,1.16,954.75,32.76
3395281,0.07,-0.1,0.75,4.76,17.15,1.1,954.74,32.77
3395319,0.04,-0.11,0.74,3.97,17.76,0.67,954.77,32.78
3395357,0.07,-0.12,0.78,3.36,16.36,0.79,954.81,32.79
3395395,0.07,-0.12,0.8,2.75,17.09,0.73,954.79,32.78
3395433,0.06,-0.12,0.79,2.08,16.54,0.61,954.84,32.77
3395471,0.04,-0.12,0.85,2.2,16.54,0.49,954.9,32.78
3395509,0.07,-0.1,0.82,1.1,15.93,0.49,954.79,32.78
3395548,0.07,-0.1,0.84,1.4,16.24,0.24,954.81,32.78
3395586,0.09,-0.11,0.83,0.92,16.24,0.12,954.93,32.78
3395635,0.08,-0.12,0.79,0.18,16.91,0.18,955.0,32.78
3395674,0.07,-0.11,0.78,0.37,16.3,-0.31,955.01,32.77
3395712,0.07,-0.11,0.77,-0.18,14.59,-0.49,955.07,32.8
3395750,0.07,-0.12,0.79,0.06,13.31,-0.55,955.09,32.8
3395788,0.06,-0.13,0.82,0.12,12.39,-0.73,955.13,32.79
3395826,0.11,-0.13,0.78,-0.43,12.63,-0.92,955.01,32.78
3395864,0.12,-0.13,0.8,-0.79,11.05,-0.92,955.13,32.79
3395902,0.06,-0.11,0.8,-0.43,11.23,-1.4,955.14,32.8
3395941,0.11,-0.12,0.79,-1.53,11.23,-1.77,955.09,32.79
3395991,0.06,-0.11,0.87,-1.89,9.28,-2.01,955.17,32.8
3396029,0.08,-0.12,0.89,-2.08,9.64,-2.32,955.21,32.79
3396067,0.08,-0.09,0.93,-2.56,7.39,-2.81,955.25,32.79
3396105,0.08,-0.11,0.93,-2.99,7.45,-3.11,955.28,32.79
3396143,0.06,-0.1,1.0,-2.75,5.31,-3.05,955.22,32.79
3396181,0.07,-0.12,1.02,-3.11,6.1,-3.6,955.29,32.78
3396219,0.03,-0.11,0.97,-3.11,5.86,-4.03,955.36,32.79
3396257,0.06,-0.08,1.06,-2.5,3.78,-3.91,955.5,32.8
3396296,0.07,-0.11,1.07,-3.11,5.0,-4.27,955.41,32.8
3396334,0.07,-0.1,1.1,-2.87,3.36,-4.58,955.51,32.8
3396383,0.03,-0.09,1.01,-2.93,5.13,-4.64,955.48,32.79
3396422,0.03,-0.07,1.05,-2.14,3.91,-4.88,955.38,32.79
3396460,0.06,-0.09,1.1,-1.89,5.19,-5.43,955.41,32.79
3396498,0.04,-0.12,1.12,-1.46,5.19,-5.74,955.47,32.79
3396536,0.04,-0.1,1.15,-1.59,6.35,-5.86,955.61,32.79
3396574,0.05,-0.08,1.13,-0.73,6.96,-6.16,955.51,32.79
3396612,0.04,-0.08,1.12,-0.73,7.87,-6.35,955.66,32.8
3396650,-0.01,-0.07,1.11,-0.61,7.75,-6.41,955.66,32.8
3396688,0.05,-0.08,1.19,0.37,6.59,-6.71,955.79,32.8
3396738,0.04,-0.07,1.16,-0.37,8.97,-6.77,955.75,32.78
3396776,0.02,-0.07,1.27,0.73,8.36,-6.47,955.78,32.78
3396814,0.01,-0.1,1.21,1.34,8.3,-6.35,955.86,32.8
3396853,0.04,-0.08,1.21,0.49,7.69,-6.41,955.91,32.79
3396891,-0.04,-0.08,1.2,1.71,8.36,-5.92,955.84,32.79
3396929,0.01,-0.08,1.16,1.22,9.28,-6.29,955.88,32.8
3396967,0.03,-0.07,1.21,0.67,6.1,-5.98,956.1,32.79
3397005,-0.0,-0.08,1.18,0.79,7.14,-5.55,956.09,32.79
3397043,0.01,-0.09,1.1,0.61,8.85,-5.55,956.13,32.8
3397081,0.03,-0.09,1.04,1.22,7.57,-5.92,956.29,32.8
3397131,-0.01,-0.13,1.01,1.59,6.23,-5.49,956.26,32.78
3397169,0.01,-0.1,0.93,0.31,7.51,-5.37,956.27,32.79
3397207,-0.02,-0.11,0.95,1.04,7.39,-5.55,956.42,32.79
3397245,0.0,-0.16,0.91,0.85,7.63,-5.43,956.47,32.8
3397284,-0.01,-0.1,0.98,0.43,4.94,-5.49,956.34,32.79
3397322,-0.03,-0.12,0.95,-0.06,7.02,-5.49,956.57,32.8
3397360,0.02,-0.14,0.93,-0.49,6.71,-5.0,956.53,32.79
3397398,0.01,-0.13,0.96,-1.59,7.02,-5.07,956.67,32.79
3397436,-0.02,-0.09,1.02,-1.34,3.11,-4.76,956.6,32.81
3397512,0.03,-0.11,1.01,-1.89,4.58,-4.7,956.63,32.77
3397550,-0.01,-0.11,1.03,-2.56,4.52,-4.58,956.74,32.78
3397588,-0.02,-0.13,1.0,-2.56,3.85,-4.09,956.56,32.79
3397678,-0.01,-0.12,1.05,-1.95,3.72,-4.09,956.75,32.74
3397716,-0.03,-0.1,1.02,-2.5,2.5,-3.85,956.8,32.76
3397754,-0.02,-0.11,1.08,-2.32,3.6,-4.03,956.85,32.77
3397792,-0.04,-0.1,1.08,-2.56,2.81,-3.91,956.87,32.77
3397830,-0.01,-0.09,1.12,-2.44,1.53,-3.54,956.8,32.78
3397868,-0.02,-0.1,1.13,-2.56,2.2,-3.36,956.85,32.78
3397918,-0.0,-0.09,1.12,-2.81,3.36,-3.36,956.79,32.76
3397956,0.0,-0.07,1.17,-2.08,2.5,-3.3,956.79,32.77
3397995,0.02,-0.09,1.15,-2.14,3.42,-3.36,956.93,32.77
3398033,-0.01,-0.09,1.19,-2.38,4.7,-3.05,956.79,32.78
3398071,-0.02,-0.09,1.26,-1.46,4.7,-3.3,956.95,32.78
3398109,0.04,-0.11,1.23,-2.01,5.74,-3.3,956.93,32.77
3398147,-0.01,-0.1,1.22,-1.53,4.52,-3.05,956.94,32.78
3398185,-0.01,-0.06,1.2,-1.71,4.94,-2.75,956.96,32.77
3398223,-0.0,-0.07,1.18,-1.89,5.19,-2.69,957.06,32.77
3398261,-0.01,-0.08,1.19,-0.85,4.76,-2.62,956.98,32.77
3398311,0.02,-0.1,1.16,-1.22,5.0,-2.32,957.17,32.76
3398349,-0.01,-0.09,1.15,-0.49,4.09,-2.44,957.12,32.77
3398388,-0.03,-0.1,1.12,-0.67,4.33,-2.44,957.26,32.77
3398426,-0.0,-0.08,1.21,-0.06,4.03,-2.62,957.18,32.77
3398464,0.02,-0.11,1.15,-0.79,4.94,-2.87,957.24,32.78
3398502,0.01,-0.1,1.17,0.06,4.76,-2.81,957.19,32.77
3398540,-0.02,-0.11,1.13,-0.18,7.45,-2.99,957.28,32.77
3398578,0.01,-0.1,1.14,-0.24,6.16,-3.23,957.24,32.77
3398616,0.03,-0.12,1.12,-0.67,6.96,-3.17,957.43,32.78
3398666,-0.02,-0.11,1.11,-0.06,6.29,-3.42,957.34,32.77
3398704,0.02,-0.12,1.08,-0.61,5.92,-3.66,957.45,32.78
3398742,0.03,-0.13,1.11,-0.37,4.09,-3.66,957.39,32.78
3398781,-0.01,-0.11,1.06,-0.55,5.07,-3.78,957.49,32.78
3398819,-0.02,-0.11,0.99,-0.61,4.46,-4.15,957.53,32.77
3398857,0.03,-0.12,1.01,-0.24,5.74,-4.21,957.4,32.79
3398895,0.02,-0.13,1.03,-0.18,5.19,-4.27,957.63,32.78
3398933,0.01,-0.13,1.07,-0.18,4.03,-4.46,957.6,32.77
3398971,0.03,-0.12,1.08,-0.43,5.62,-4.52,957.65,32.78
3399009,0.05,-0.12,1.05,-0.31,5.43,-4.76,957.76,32.8
3399059,0.02,-0.11,1.07,0.18,2.75,-4.94,957.67,32.77
3399097,0.04,-0.14,1.05,-0.98,4.7,-5.0,957.74,32.78
3399136,-0.01,-0.13,1.01,-0.43,3.3,-5.19,957.91,32.78
3399174,0.04,-0.13,1.04,-0.49,3.3,-5.62,957.83,32.79
3399212,0.04,-0.13,0.97,-1.28,4.15,-5.8,957.85,32.8
3399250,0.03,-0.12,1.0,-1.34,3.05,-6.1,957.95,32.78
3399288,-0.03,-0.13,0.95,-1.34,3.6,-6.04,958.01,32.78
3399326,0.04,-0.14,1.04,-1.34,1.89,-6.23,957.85,32.78
3399364,0.01,-0.14,1.01,-2.14,3.54,-6.41,958.0,32.78
3399414,-0.02,-0.11,1.06,-1.34,2.14,-6.53,958.02,32.77
3399452,0.0,-0.13,1.04,-2.5,4.21,-6.41,958.17,32.78
3399491,-0.01,-0.11,1.08,-2.69,2.08,-6.77,957.97,32.79
3399529,-0.0,-0.1,1.1,-3.05,3.05,-6.59,958.14,32.78
3399567,-0.03,-0.11,1.04,-2.93,3.48,-6.65,958.15,32.78
3399605,0.02,-0.11,1.1,-3.05,3.23,-6.96,957.97,32.78
3399643,0.01,-0.11,1.09,-3.97,3.6,-6.65,958.19,32.79
3399681,-0.0,-0.1,1.2,-3.66,1.89,-6.53,958.24,32.8
3399719,0.0,-0.11,1.2,-3.91,2.99,-6.53,958.24,32.79
3399758,0.01,-0.1,1.22,-3.97,3.23,-6.77,958.21,32.78
3399807,-0.01,-0.09,1.24,-3.97,2.2,-6.53,958.26,32.78
3399845,-0.03,-0.07,1.23,-3.66,0.79,-6.35,958.3,32.79
3399884,-0.02,-0.1,1.27,-3.54,1.34,-6.41,958.32,32.79
3399922,-0.01,-0.1,1.24,-4.33,2.56,-6.23,958.41,32.79
3399960,-0.0,-0.09,1.27,-3.48,1.53,-6.35,958.37,32.79
3399998,0.01,-0.11,1.28,-3.72,2.5,-6.23,958.35,32.79
3400036,-0.04,-0.1,1.3,-3.3,1.83,-6.23,958.35,32.78
3400074,-0.03,-0.08,1.33,-3.85,2.01,-6.16,958.47,32.77
3400113,-0.03,-0.1,1.27,-3.23,3.3,-6.23,958.49,32.78
3400162,-0.04,-0.1,1.26,-2.81,4.15,-6.04,958.53,32.78
3400201,-0.01,-0.12,1.21,-2.75,5.74,-6.29,958.47,32.78
3400239,-0.03,-0.1,1.21,-2.75,8.06,-6.47,958.71,32.8
3400277,-0.03,-0.09,1.21,-2.93,7.93,-6.35,958.7,32.79
3400315,-0.01,-0.07,1.31,-2.38,7.08,-6.04,958.64,32.79
3400353,-0.02,-0.11,1.23,-2.81,9.16,-6.23,958.72,32.78
3400391,-0.04,-0.1,1.25,-1.71,8.12,-5.98,958.64,32.79
3400429,-0.02,-0.09,1.31,-1.46,10.19,-5.8,958.7,32.79
3400467,-0.0,-0.09,1.18,-1.71,10.44,-5.74,958.78,32.78
3400543,-0.04,-0.11,1.15,-0.67,10.44,-5.43,958.77,32.77
3400581,-0.03,-0.14,1.17,-0.67,9.52,-5.43,958.83,32.79
3400619,0.01,-0.13,1.14,-0.37,9.16,-5.37,958.91,32.78
3400709,-0.03,-0.1,1.16,-0.12,8.79,-4.64,958.79,32.74
3400747,0.01,-0.14,1.12,-0.55,10.19,-4.76,958.87,32.75
3400785,-0.05,-0.12,1.11,0.37,8.06,-4.88,959.03,32.76
3400823,-0.02,-0.1,1.12,-0.24,8.36,-4.39,959.08,32.77
3400861,-0.04,-0.1,1.14,-0.61,7.81,-4.09,959.09,32.77
3400900,-0.04,-0.13,1.12,0.18,7.32,-3.97,959.08,32.76
3400938,-0.04,-0.12,1.09,-0.61,8.06,-3.72,959.04,32.76
3400987,-0.06,-0.12,1.14,0.0,7.26,-3.23,959.15,32.77
3401026,-0.03,-0.12,1.1,-0.55,7.81,-3.23,959.18,32.78
3401064,-0.03,-0.11,1.09,-0.43,7.81,-3.05,959.08,32.77
3401102,-0.06,-0.11,1.09,-0.12,6.96,-2.69,959.21,32.77
3401140,-0.04,-0.14,1.06,-0.73,6.77,-2.5,959.23,32.78
3401178,-0.03,-0.12,1.11,-0.73,6.16,-2.38,959.27,32.78
3401216,-0.06,-0.13,1.07,-0.49,7.39,-2.08,959.28,32.78
3401254,-0.03,-0.11,1.11,-0.43,6.41,-2.01,959.29,32.79
3401292,-0.02,-0.12,1.09,-0.85,7.26,-1.77,959.35,32.78
3401342,-0.06,-0.12,1.08,-0.73,5.55,-1.71,959.28,32.77
3401380,-0.04,-0.1,1.08,-1.4,6.41,-1.28,959.41,32.79
3401418,-0.03,-0.12,1.1,-1.46,6.47,-1.28,959.43,32.78
3401457,-0.03,-0.12,1.09,-0.85,6.16,-1.16,959.45,32.79
3401495,-0.04,-0.12,1.1,-1.34,5.86,-0.92,959.39,32.79
3401533,-0.02,-0.11,1.1,-1.28,6.47,-0.98,959.22,32.78
3401571,-0.03,-0.11,1.11,-0.92,6.16,-0.79,959.41,32.8
3401609,-0.04,-0.12,1.13,-1.04,6.04,-0.67,959.42,32.79
3401647,-0.0,-0.12,1.14,-0.73,6.04,-0.55,959.46,32.79
3401697,-0.02,-0.11,1.17,-0.24,5.62,-0.49,959.41,32.77
3401735,0.0,-0.11,1.13,-0.85,6.84,-0.43,959.44,32.78
3401773,-0.01,-0.1,1.16,-0.37,5.86,-0.31,959.4,32.8
3401811,-0.01,-0.12,1.17,-0.73,6.65,-0.31,959.54,32.78
3401850,0.01,-0.11,1.18,-0.24,5.49,-0.37,959.46,32.79
3401888,-0.01,-0.12,1.15,-0.12,6.23,-0.43,959.61,32.79
3401926,0.01,-0.11,1.12,0.18,5.19,-0.55,959.49,32.78
3401964,0.02,-0.11,1.15,-0.31,7.02,-0.55,959.65,32.79
3402002,0.01,-0.12,1.11,0.55,6.23,-0.37,959.68,32.79
3402040,-0.0,-0.1,1.12,0.55,5.86,-0.43,959.66,32.79
3402090,0.01,-0.13,1.12,0.73,5.8,-0.61,959.72,32.78
3402128,0.09,-0.12,1.12,0.49,5.98,-0.61,959.74,32.8
3402166,0.02,-0.16,1.06,1.1,5.31,-0.67,959.7,32.8
3402204,0.0,-0.13,1.08,1.83,4.27,-0.73,959.81,32.8
3402243,0.08,-0.15,1.01,1.1,6.16,-0.98,959.88,32.8
3402281,0.02,-0.17,0.85,1.59,7.45,-1.16,960.02,32.79
3402319,0.02,-0.16,0.85,2.62,7.39,-1.46,960.02,32.8
3402357,0.14,-0.16,0.83,2.2,9.4,-2.08,960.06,32.8
3402395,0.05,-0.15,0.68,2.75,10.19,-2.32,960.03,32.79
3402445,0.13,-0.17,0.65,3.11,11.17,-2.99,960.02,32.8
3402483,0.14,-0.16,0.71,2.56,12.27,-3.78,960.09,32.78
3402521,0.07,-0.17,0.68,2.44,12.51,-3.91,960.14,32.8
3402559,0.1,-0.18,0.72,2.32,12.82,-4.64,960.18,32.8
3402598,0.04,-0.16,0.77,0.31,13.43,-5.0,960.19,32.79
3402636,0.09,-0.16,0.74,-0.24,14.16,-5.43,960.27,32.8
3402674,0.08,-0.16,0.66,-1.46,14.1,-6.1,960.28,32.79
3402712,0.04,-0.13,0.79,-0.85,11.11,-6.1,960.29,32.8
3402750,0.12,-0.19,0.75,-1.83,13.0,-6.47,960.26,32.8
3402788,0.06,-0.17,0.77,-2.01,12.57,-6.84,960.3,32.8
3402838,0.06,-0.17,0.78,-4.27,12.15,-7.02,960.36,32.79
3402876,0.07,-0.15,0.93,-4.64,9.95,-7.51,960.3,32.8
3402914,0.05,-0.17,0.85,-5.49,13.0,-7.93,960.5,32.79
3402952,0.09,-0.15,0.97,-4.88,9.46,-8.42,960.35,32.8
3402990,0.04,-0.16,0.97,-5.92,11.54,-8.18,960.39,32.8
3403029,0.03,-0.13,0.98,-5.98,9.09,-8.24,960.58,32.8
3403067,0.05,-0.15,1.07,-6.29,9.7,-8.79,960.45,32.8
3403105,0.03,-0.14,1.06,-7.14,9.7,-8.79,960.57,32.79
3403143,0.08,-0.11,1.17,-6.16,8.85,-8.42,960.4,32.8
3403193,0.05,-0.13,1.16,-6.77,9.52,-8.73,960.64,32.79
3403231,0.05,-0.13,1.18,-6.53,7.93,-8.54,960.48,32.79
3403269,-0.0,-0.14,1.17,-6.71,7.51,-8.24,960.75,32.79
3403307,0.04,-0.14,1.14,-6.23,8.06,-8.3,960.7,32.79
3403345,0.03,-0.11,1.23,-5.98,7.63,-8.42,960.57,32.79
3403383,-0.01,-0.13,1.21,-5.31,6.65,-8.24,960.72,32.79
3403422,0.03,-0.13,1.33,-5.13,5.13,-8.3,960.69,32.79
3403460,0.04,-0.13,1.28,-5.62,6.71,-8.0,960.74,32.79
3403498,0.02,-0.11,1.29,-5.19,6.04,-7.87,960.78,32.79
3403575,0.02,-0.1,1.28,-4.09,6.41,-8.18,960.89,32.76
3403613,0.01,-0.12,1.29,-4.27,8.36,-8.0,960.86,32.76
3403651,0.01,-0.14,1.23,-3.78,7.08,-8.0,960.9,32.78
3403741,0.01,-0.12,1.24,-4.58,9.03,-7.87,961.03,32.74
3403779,-0.0,-0.1,1.28,-3.78,7.02,-7.39,961.1,32.75
3403817,0.02,-0.13,1.26,-3.97,8.91,-7.45,961.01,32.74
3403855,0.0,-0.12,1.32,-4.09,6.65,-7.45,960.89,32.74
3403893,-0.0,-0.13,1.3,-4.33,7.02,-6.9,961.08,32.75
3403931,0.0,-0.13,1.33,-4.09,5.49,-6.71,961.13,32.77
3403969,0.01,-0.1,1.26,-4.64,5.68,-6.47,961.15,32.75
3404019,-0.04,-0.1,1.28,-4.76,5.8,-5.86,961.06,32.75
3404057,0.0,-0.14,1.29,-5.0,5.25,-5.68,961.11,32.76
3404095,0.03,-0.11,1.33,-5.55,5.07,-5.62,961.05,32.76
3404134,-0.0,-0.09,1.37,-5.8,5.98,-5.31,961.14,32.76
3404172,-0.0,-0.12,1.33,-6.1,6.41,-5.25,961.18,32.76
3404210,0.02,-0.1,1.45,-5.8,6.84,-5.25,961.16,32.77
3404248,-0.02,-0.1,1.46,-6.29,6.47,-4.88,961.19,32.77
3404286,-0.0,-0.07,1.47,-6.41,5.86,-4.7,961.15,32.76
3404324,-0.01,-0.08,1.5,-6.04,7.57,-4.64,961.3,32.77
3404374,0.04,-0.07,1.51,-5.92,6.65,-4.82,961.19,32.77
3404412,-0.02,-0.09,1.52,-5.92,8.18,-4.46,961.23,32.76
3404450,-0.02,-0.09,1.53,-4.76,7.39,-4.33,961.11,32.77
3404488,-0.0,-0.09,1.52,-5.07,8.79,-3.97,961.4,32.76
3404527,-0.01,-0.08,1.51,-4.03,7.81,-3.97,961.23,32.76
3404565,0.01,-0.08,1.59,-4.15,8.48,-3.48,961.41,32.78
3404603,0.03,-0.11,1.56,-3.48,9.64,-3.48,961.41,32.77
3404641,0.0,-0.07,1.55,-3.23,8.79,-3.72,961.28,32.78
3404679,0.01,-0.07,1.54,-3.42,11.29,-3.36,961.47,32.78
3404717,-0.01,-0.09,1.45,-2.5,11.05,-3.17,961.43,32.78
3404767,0.02,-0.12,1.51,-2.2,10.31,-3.23,961.49,32.76
3404805,0.01,-0.1,1.44,-3.36,11.84,-2.93,961.52,32.76
3404843,-0.04,-0.1,1.44,-2.56,10.68,-2.69,961.69,32.77
3404881,0.03,-0.12,1.45,-2.69,10.5,-2.56,961.67,32.78
3404920,0.01,-0.1,1.4,-2.69,9.58,-2.56,961.83,32.78
3404958,-0.01,-0.12,1.3,-2.2,9.34,-2.2,961.8,32.78
3404996,0.04,-0.12,1.32,-2.81,7.63,-2.32,961.71,32.79
3405034,0.01,-0.11,1.29,-3.72,7.69,-2.2,961.91,32.78
3405072,0.03,-0.13,1.31,-3.3,6.16,-2.2,961.79,32.78
3405122,0.04,-0.14,1.27,-3.72,6.41,-2.69,961.78,32.78
3405160,0.03,-0.13,1.28,-4.21,7.39,-2.81,961.82,32.76
3405198,0.05,-0.13,1.3,-4.09,6.35,-2.5,961.86,32.77
3405237,0.04,-0.13,1.31,-3.91,5.92,-3.05,961.73,32.78
3405275,-0.01,-0.14,1.3,-4.46,5.31,-3.23,961.78,32.77
3405313,0.03,-0.13,1.33,-4.82,3.85,-3.48,961.93,32.79
3405351,0.02,-0.13,1.29,-4.33,5.49,-3.42,961.96,32.79
3405389,0.06,-0.14,1.24,-4.03,4.39,-3.66,961.95,32.77
3405427,0.04,-0.13,1.2,-4.27,5.8,-3.66,961.84,32.79
3405477,0.06,-0.14,1.13,-4.21,5.92,-4.15,961.88,32.78
3405515,0.02,-0.14,1.2,-3.23,3.48,-4.33,961.99,32.78
3405553,0.04,-0.16,1.13,-3.72,3.23,-4.64,962.02,32.78
3405591,0.07,-0.16,1.14,-4.64,2.69,-4.88,961.97,32.78
3405630,0.05,-0.16,1.14,-3.91,1.71,-5.13,962.07,32.78
3405668,0.07,-0.15,1.17,-3.78,1.4,-5.25,962.12,32.77
3405706,0.06,-0.15,1.11,-4.21,1.34,-5.43,962.2,32.78
3405744,0.03,-0.13,1.17,-3.6,0.61,-5.55,962.23,32.79
3405782,0.04,-0.14,1.13,-3.54,1.16,-5.43,962.18,32.78
3405820,0.03,-0.15,1.16,-3.3,0.12,-5.92,962.15,32.79
3405870,-0.04,-0.15,1.14,-2.87,0.67,-5.68,962.29,32.77
3405908,0.01,-0.14,1.18,-2.56,-0.85,-5.68,962.17,32.78
3405946,-0.03,-0.18,1.1,-2.26,1.89,-5.68,962.21,32.78
3405984,-0.02,-0.14,1.06,-1.95,0.18,-5.49,962.44,32.78
3406022,0.03,-0.14,1.11,-1.59,-1.28,-5.49,962.3,32.78
3406061,0.0,-0.16,1.03,-2.69,0.31,-5.31,962.32,32.79
3406099,-0.02,-0.14,1.09,-1.77,-2.26,-5.19,962.37,32.78
3406137,0.01,-0.17,1.1,-2.08,-0.43,-5.07,962.35,32.77
3406175,-0.03,-0.14,1.19,-2.14,-2.44,-5.0,962.26,32.79
3406225,-0.01,-0.12,1.28,-2.56,-0.92,-4.82,962.39,32.78
3406263,-0.06,-0.12,1.32,-2.75,-0.92,-4.76,962.44,32.78
3406301,-0.04,-0.15,1.28,-2.5,0.92,-4.46,962.43,32.79
3406339,0.01,-0.15,1.25,-2.44,3.05,-4.52,962.48,32.79
3406377,-0.06,-0.12,1.28,-2.26,2.32,-3.97,962.4,32.77
3406415,-0.06,-0.12,1.29,-3.42,2.44,-3.6,962.56,32.78
3406454,-0.0,-0.11,1.21,-2.87,2.26,-3.6,962.46,32.78
3406492,-0.05,-0.16,1.19,-2.26,2.62,-3.17,962.46,32.79
3406530,-0.0,-0.18,1.26,-2.87,1.89,-2.44,962.64,32.79
3406568,-0.01,-0.16,1.18,-3.3,1.89,-2.26,962.66,32.79
3406644,-0.01,-0.15,1.12,-2.99,0.85,-1.59,962.67,32.75
3406682,-0.05,-0.14,1.18,-2.81,-0.43,-0.92,962.63,32.76
3406720,-0.01,-0.15,1.18,-2.2,-0.18,-0.98,962.56,32.76
3406809,-0.06,-0.17,1.12,-0.85,-0.31,-0.06,962.69,32.73
3406848,-0.02,-0.15,1.17,0.12,-1.16,-0.12,962.85,32.74
3406886,0.02,-0.13,1.12,-0.92,-2.99,-0.06,962.81,32.76
3406924,0.02,-0.14,1.17,0.43,-1.89,0.18,962.79,32.76
3406962,-0.02,-0.15,1.12,1.83,-1.65,0.0,962.79,32.76
3407000,-0.04,-0.14,1.09,2.01,-2.56,0.37,962.91,32.77
3407050,-0.05,-0.17,1.01,3.11,-1.28,0.79,962.96,32.76
3407088,0.0,-0.14,1.0,2.69,-3.23,0.67,963.01,32.77
3407126,0.05,-0.13,1.0,2.93,-2.26,0.55,962.93,32.75
3407164,-0.01,-0.16,0.9,3.11,-1.1,1.1,962.94,32.76
3407202,0.01,-0.17,0.93,3.05,-2.01,0.92,962.99,32.77
3407240,0.04,-0.18,0.83,1.22,0.85,0.98,962.92,32.76
3407278,-0.03,-0.19,0.79,2.08,1.71,1.4,962.98,32.77
3407317,0.03,-0.18,0.79,0.92,0.98,1.46,963.05,32.77
3407355,-0.01,-0.14,0.89,-0.12,-0.73,1.83,963.07,32.77
3407405,0.07,-0.17,0.86,-0.85,2.32,2.01,963.05,32.76
3407443,0.06,-0.17,0.97,-1.4,1.22,1.95,963.09,32.77
3407481,0.04,-0.18,0.94,-2.01,3.72,2.08,963.08,32.77
3407519,0.04,-0.16,0.88,-2.38,5.55,2.44,963.14,32.78
3407557,-0.01,-0.13,0.98,-0.92,6.16,3.11,963.17,32.77
3407595,0.02,-0.12,0.92,-0.12,5.68,2.99,963.13,32.77
3407633,0.12,-0.14,1.01,0.67,2.08,2.5,963.14,32.78
3407671,0.04,-0.11,0.94,0.98,3.23,2.87,963.12,32.77
3407710,0.1,-0.15,1.03,2.2,1.65,2.87,963.31,32.77
3407748,0.12,-0.16,0.81,1.53,5.68,2.5,963.27,32.78
3407797,0.01,-0.06,0.89,4.15,2.56,3.3,963.3,32.76
3407836,0.19,-0.14,0.84,3.54,4.33,2.62,963.28,32.76
3407874,0.11,-0.17,0.79,3.72,2.99,1.95,963.22,32.78
3407912,0.1,-0.15,0.77,2.69,6.59,2.5,963.31,32.78
3407950,0.14,-0.18,0.77,4.58,5.07,2.87,963.28,32.78
3407988,0.21,-0.18,0.75,4.03,2.87,1.65,963.28,32.78
3408026,0.09,-0.11,0.76,4.33,1.04,1.71,963.41,32.77
3408064,0.13,-0.12,0.76,5.13,1.46,2.2,963.4,32.78
3408102,0.12,-0.23,0.67,4.82,-1.1,1.22,963.38,32.78
3408141,0.09,-0.12,0.71,4.64,-1.65,0.98,963.39,32.76
3408190,0.09,-0.21,0.58,3.72,1.83,0.85,963.5,32.76
3408228,0.01,-0.12,0.68,5.55,-2.01,0.67,963.52,32.76
3408267,0.12,-0.15,0.73,5.25,-1.71,0.24,963.37,32.75
3408305,0.11,-0.19,0.67,5.0,-1.95,-0.49,963.46,32.76
3408343,0.09,-0.14,0.7,3.91,-1.83,-0.18,963.52,32.77
3408381,0.09,-0.13,0.73,4.88,-0.43,0.06,963.57,32.77
3408419,0.11,-0.19,0.72,3.85,0.98,-0.55,963.6,32.76
3408457,0.12,-0.14,0.73,3.97,-0.73,-0.92,963.7,32.77
3408495,0.14,-0.13,0.81,3.85,0.0,-0.73,963.73,32.77
3408533,0.1,-0.19,0.75,4.58,1.28,-0.61,963.77,32.76
3408583,0.02,-0.18,0.76,5.25,0.37,-0.98,963.73,32.75
3408621,0.2,-0.12,0.74,4.03,1.1,-1.34,963.84,32.76
3408659,0.14,-0.12,0.76,5.07,1.65,-1.16,963.88,32.74
3408697,0.16,-0.19,0.59,4.39,3.11,-1.28,963.84,32.75
3408735,0.03,-0.19,0.67,4.21,3.11,-1.46,963.99,32.76
3408773,0.11,-0.17,0.69,4.15,3.42,-1.28,964.06,32.75
3408811,0.14,-0.17,0.7,4.15,4.15,-1.95,964.06,32.76
3408850,0.09,-0.15,0.7,3.23,0.98,-1.95,964.14,32.75
3408888,0.1,-0.16,0.78,3.3,2.99,-1.65,964.12,32.74
3408937,0.07,-0.19,0.75,4.03,1.1,-1.89,964.22,32.74
3408975,0.14,-0.14,0.7,2.56,1.4,-2.2,964.22,32.76
3409014,0.03,-0.14,0.72,1.59,2.08,-1.77,964.36,32.76
3409052,0.15,-0.2,0.82,2.5,1.1,-2.2,964.37,32.75
3409090,0.2,-0.14,0.71,1.53,2.81,-2.56,964.39,32.77
3409128,0.15,-0.12,0.72,1.46,3.54,-2.32,964.51,32.77
3409166,0.14,-0.14,0.77,1.4,2.81,-2.32,964.49,32.78
3409204,0.16,-0.14,0.8,1.1,2.01,-2.62,964.48,32.77
3409242,0.2,-0.18,0.89,1.1,2.01,-2.99,964.56,32.78
3409280,0.07,-0.17,0.75,0.79,1.95,-2.26,964.6,32.77
3409330,0.18,-0.22,0.77,1.95,4.09,-2.62,964.74,32.77
3409368,0.13,-0.11,0.88,0.31,2.93,-3.23,964.72,32.77
3409406,0.18,-0.15,0.96,1.59,1.89,-2.44,964.66,32.76
3409444,0.19,-0.23,0.84,0.98,4.39,-3.17,964.74,32.76
3409482,0.16,-0.16,0.85,0.37,5.0,-3.48,964.87,32.77
3409521,0.13,-0.16,0.77,1.65,4.39,-3.05,964.88,32.78
3409559,0.14,-0.14,0.74,2.32,3.6,-2.81,964.83,32.77
3409597,0.14,-0.15,0.67,1.4,5.19,-3.66,964.93,32.77
3409635,0.14,-0.12,0.83,2.01,2.38,-3.6,965.05,32.78
3409673,0.21,-0.16,0.85,0.49,4.03,-3.42,965.07,32.77
3409749,0.08,-0.16,0.9,0.18,5.92,-3.85,965.16,32.74
3409787,0.22,-0.23,1.02,0.79,2.2,-4.09,965.15,32.76
3409825,0.17,-0.19,0.89,0.61,7.93,-4.33,965.28,32.75
3409915,0.16,-0.17,0.95,0.85,1.4,-3.97,965.46,32.72
3409953,0.19,-0.21,0.88,-0.79,5.62,-4.03,965.47,32.73
3409991,0.19,-0.21,0.9,0.06,0.79,-4.21,965.61,32.74
3410029,0.27,-0.14,1.02,-1.89,6.53,-4.76,965.68,32.74
3410067,0.17,-0.2,0.96,-2.38,2.93,-4.52,965.75,32.76
3410105,0.13,-0.13,0.94,-1.59,4.33,-4.33,965.83,32.74
3410155,0.16,-0.21,0.89,-1.59,1.4,-4.58,965.82,32.73
3410193,0.08,-0.14,1.01,-1.53,-0.12,-4.52,965.94,32.74
3410232,0.17,-0.18,1.05,-2.26,-0.31,-4.39,966.07,32.75
3410270,0.09,-0.19,1.04,-2.69,1.77,-4.82,966.08,32.74
3410308,0.11,-0.15,1.1,-1.53,1.95,-4.76,966.05,32.75
3410346,0.07,-0.17,1.09,-2.93,2.75,-4.15,966.12,32.74
3410384,0.09,-0.15,1.16,-3.6,-0.79,-4.09,966.14,32.74
3410422,0.06,-0.12,1.23,-1.89,-0.85,-4.21,966.28,32.75
3410460,0.11,-0.12,1.28,-2.01,-1.34,-4.58,966.31,32.75
3410498,0.07,-0.15,1.25,-2.81,-1.16,-4.15,966.2,32.73
3410548,0.14,-0.1,1.32,-2.26,0.73,-4.09,966.36,32.73
3410586,0.12,-0.15,1.15,-3.78,7.2,-4.39,966.48,32.76
3410624,0.1,-0.14,1.24,-0.67,2.32,-4.21,966.58,32.75
3410663,0.02,-0.15,1.12,-0.24,5.31,-3.66,966.62,32.75
3410701,0.11,-0.1,1.18,-1.28,1.04,-3.78,966.65,32.75
3410739,0.05,-0.12,1.2,-0.49,1.34,-3.97,966.74,32.76
3410777,0.1,-0.19,1.1,-0.73,5.68,-3.78,966.77,32.76
3410815,0.1,-0.1,1.18,-1.28,4.52,-3.66,966.87,32.76
3410853,0.09,-0.18,1.13,-0.92,9.28,-3.72,966.89,32.76
3410903,0.12,-0.16,1.05,-2.26,5.55,-3.05,966.95,32.75
3410941,0.13,-0.23,1.01,-0.73,13.31,-3.48,966.98,32.77
3410979,0.06,-0.08,1.04,-1.83,8.42,-3.23,967.09,32.76
3411017,0.1,-0.14,1.16,-2.26,6.47,-1.89,967.16,32.75
3411056,0.07,-0.15,1.13,-1.83,5.98,-2.62,967.11,32.76
3411094,0.08,-0.17,1.27,-1.59,0.55,-2.99,967.19,32.76
3411132,0.13,-0.16,1.21,-2.99,2.44,-1.71,967.21,32.76
3411170,0.14,-0.16,1.28,-1.77,2.99,-1.89,967.3,32.76
3411208,0.07,-0.16,1.29,-2.08,3.23,-1.89,967.38,32.77
3411246,0.04,-0.21,1.19,-1.95,3.85,-1.46,967.43,32.76
3411296,0.1,-0.13,1.31,-1.77,-0.73,-1.28,967.45,32.75
3411334,0.08,-0.13,1.25,-1.89,0.12,-1.77,967.46,32.76
3411372,0.02,-0.14,1.21,-0.49,2.26,-1.59,967.56,32.76
3411411,0.07,-0.14,1.12,-0.24,0.24,-0.73,967.7,32.77
3411449,0.16,-0.16,1.19,0.37,1.16,-1.53,967.57,32.76
3411487,0.16,-0.14,1.23,-1.22,2.75,-1.65,967.71,32.75
3411525,0.14,-0.11,1.21,0.79,-0.49,-0.55,967.79,32.76
3411563,0.1,-0.23,0.96,-0.85,5.07,-0.61,967.72,32.77
3411601,0.17,-0.17,1.12,0.24,1.16,-1.4,967.89,32.77
3411651,0.06,-0.2,0.96,-0.67,2.5,-0.55,967.94,32.76
3411689,0.07,-0.11,1.1,0.67,-0.85,-0.55,967.98,32.76
3411727,0.1,-0.16,1.09,-1.65,0.61,-0.98,967.98,32.77
3411766,0.15,-0.17,1.14,-1.34,0.37,-0.73,968.06,32.78
3411804,0.11,-0.19,1.09,0.31,3.17,-0.31,968.09,32.75
3411842,0.03,-0.13,1.17,-0.06,-1.89,-0.18,968.08,32.78
3411880,0.03,-0.15,1.18,-0.55,-4.52,0.0,968.18,32.78
3411918,0.13,-0.14,1.22,-1.28,-1.4,0.31,968.26,32.79
3411956,0.12,-0.14,1.31,0.31,-2.26,0.12,968.22,32.78
3411994,0.09,-0.21,1.38,0.49,-4.03,0.24,968.26,32.77
3412044,0.11,-0.17,1.23,0.98,-3.66,0.24,968.32,32.76
3412082,0.1,-0.19,1.28,2.14,-5.55,0.18,968.47,32.77
3412120,0.04,-0.15,1.19,2.75,-0.06,0.61,968.49,32.78
3412158,0.17,-0.2,1.09,4.39,1.77,0.06,968.49,32.77
3412197,0.13,-0.15,1.12,3.78,-0.06,0.31,968.49,32.76
3412235,0.1,-0.15,1.06,4.58,1.4,0.49,968.52,32.78
3412273,0.05,-0.11,1.06,4.82,1.59,0.55,968.6,32.77
3412311,-0.0,-0.2,0.97,4.39,0.18,0.92,968.57,32.77
3412349,0.18,-0.15,0.97,3.97,1.95,0.31,968.52,32.78
3412399,0.1,-0.2,0.9,2.5,2.99,0.49,968.83,32.77
3412437,0.13,-0.17,0.88,4.94,2.87,0.85,968.72,32.77
3412475,0.02,-0.19,0.88,4.58,3.78,1.1,968.78,32.78
3412513,0.16,-0.19,0.93,2.99,0.06,0.92,968.86,32.78
3412551,0.14,-0.16,1.03,3.48,-2.2,0.92,968.89,32.78
3412590,0.16,-0.18,1.02,1.34,0.79,1.1,968.84,32.76
3412628,0.12,-0.17,1.02,1.16,0.18,1.46,968.86,32.76
3412666,0.12,-0.21,1.04,1.22,2.2,1.46,969.02,32.78
3412704,0.23,-0.17,1.03,3.48,0.43,1.46,968.97,32.78
3412742,0.21,-0.2,0.88,2.99,2.2,1.4,969.05,32.77
3412818,0.09,-0.15,0.93,3.54,-0.79,2.14,969.2,32.75
3412856,0.2,-0.22,0.89,2.32,-0.12,1.34,969.16,32.75
3412894,0.05,-0.16,0.77,1.22,2.99,1.71,969.33,32.74
3412984,0.09,-0.17,0.93,1.83,2.14,2.08,969.38,32.71
3413022,0.1,-0.18,0.81,2.75,-0.06,1.83,969.34,32.72
3413060,0.17,-0.17,0.97,2.38,0.12,2.32,969.36,32.73
3413098,0.06,-0.19,0.96,2.38,1.89,2.2,969.36,32.73
3413137,0.19,-0.17,0.95,0.31,3.17,2.38,969.51,32.74
3413175,0.08,-0.15,1.01,2.62,4.39,2.44,969.43,32.74
3413213,0.09,-0.19,0.8,1.83,6.53,2.62,969.48,32.73
3413263,0.16,-0.07,1.06,2.08,4.39,2.32,969.54,32.73
3413301,0.16,-0.22,0.8,2.44,7.93,2.5,969.6,32.73
3413339,0.24,-0.18,0.84,1.46,5.68,2.32,969.7,32.74
3413377,0.22,-0.18,0.85,2.69,8.0,2.26,969.7,32.74
3413415,0.02,-0.23,0.96,1.53,5.98,2.08,969.7,32.74
3413453,0.08,-0.16,0.81,2.08,5.49,2.44,969.73,32.75
3413492,0.16,-0.14,0.86,0.85,6.77,2.56,969.83,32.76
3413530,0.21,-0.18,0.99,1.22,2.62,2.2,969.85,32.75
3413568,0.18,-0.2,0.99,0.37,2.75,2.5,970.0,32.75
3413606,0.19,-0.2,1.0,0.49,4.33,2.32,969.95,32.76
3413656,0.17,-0.13,1.1,0.92,2.93,2.08,970.03,32.75
3413694,0.15,-0.18,1.04,0.85,4.7,2.26,970.05,32.73
3413732,0.19,-0.18,1.08,1.65,4.27,2.08,970.09,32.74
3413770,0.1,-0.15,0.85,0.67,8.61,2.69,970.18,32.74
3413808,0.05,-0.19,1.06,3.17,1.28,2.56,970.22,32.74
3413847,0.13,-0.15,1.03,0.98,5.49,2.2,970.23,32.74
3413885,0.16,-0.14,0.98,2.44,5.92,1.77,970.12,32.74
3413923,0.18,-0.1,1.02,2.26,3.85,2.44,970.24,32.75
3413961,0.16,-0.13,1.11,2.26,2.5,2.32,970.23,32.75
3413999,0.16,-0.19,1.09,1.71,3.11,2.44,970.19,32.75
3414049,0.25,-0.14,1.06,0.31,2.44,2.81,970.33,32.75
3414087,0.15,-0.17,1.07,1.04,3.66,2.26,970.28,32.74
3414125,0.06,-0.21,1.05,3.36,0.24,2.87,970.47,32.75
3414163,0.09,-0.21,1.05,2.62,-2.44,2.99,970.49,32.75
3414202,0.28,-0.18,0.94,1.04,1.95,2.32,970.57,32.76
3414240,0.31,-0.16,1.12,1.71,1.1,2.01,970.6,32.76
3414278,0.15,-0.22,0.92,2.62,3.36,2.32,970.58,32.75
3414316,0.13,-0.22,0.98,3.54,0.73,2.01,970.71,32.78
3414354,0.21,-0.16,0.94,2.87,1.77,2.32,970.69,32.77
3414404,0.22,-0.14,1.06,1.65,1.83,1.89,970.77,32.76
3414442,0.32,-0.15,1.05,0.85,3.6,1.71,970.72,32.75
3414480,0.2,-0.17,1.04,4.82,-0.24,1.04,970.78,32.76
3414519,0.12,-0.18,1.02,3.54,-0.43,1.28,970.92,32.76
3414557,0.21,-0.23,0.95,3.17,0.0,1.1,970.98,32.76
3414595,0.19,-0.1,0.99,4.15,0.12,1.1,970.96,32.76
3414633,0.27,-0.24,1.02,3.17,-0.85,0.67,971.04,32.76
3414671,0.23,-0.28,0.9,3.11,0.92,-0.12,971.0,32.76
3414709,0.18,-0.13,0.94,3.54,-0.37,-0.12,971.16,32.77
3414747,0.16,-0.14,0.97,2.99,0.85,0.55,971.13,32.77
3414797,0.26,-0.22,0.86,0.73,1.83,-0.31,971.19,32.75
3414835,0.23,-0.12,0.95,1.77,0.37,-0.73,971.2,32.75
3414873,0.16,-0.24,0.71,2.38,5.74,-0.49,971.44,32.76
3414912,0.27,-0.16,0.84,1.34,1.83,-0.98,971.39,32.77
3414950,0.13,-0.15,0.95,2.08,2.75,-0.98,971.37,32.76
3414988,0.31,-0.25,0.86,0.73,1.16,-1.04,971.35,32.76
3415026,0.15,-0.21,0.9,0.79,3.72,-1.28,971.39,32.77
3415064,0.19,-0.2,0.78,-0.79,5.8,-1.28,971.56,32.78
3415102,0.24,-0.22,0.78,0.79,8.97,-1.28,971.5,32.77
3415140,0.29,-0.18,0.73,-0.24,6.53,-1.59,971.6,32.77
3415190,0.07,-0.13,0.82,0.61,3.72,-1.59,971.57,32.76
3415228,0.27,-0.23,0.73,1.34,2.44,-1.95,971.6,32.76
3415267,0.23,-0.14,0.76,-0.73,5.43,-2.2,971.75,32.77
3415305,0.24,-0.2,0.82,0.37,6.04,-2.32,971.86,32.76
3415343,0.23,-0.22,0.7,-0.73,5.07,-2.2,971.98,32.79
3415381,0.14,-0.26,0.8,3.17,3.3,-2.5,972.0,32.77
3415419,0.18,-0.21,0.69,-1.65,5.19,-2.81,972.04,32.75
3415457,0.17,-0.18,0.65,2.01,6.29,-2.87,972.19,32.76
3415495,0.25,-0.21,0.8,1.28,3.48,-2.93,972.22,32.77
3415545,0.16,-0.23,0.7,3.23,4.88,-2.99,972.24,32.76
3415583,0.26,-0.07,0.85,-1.16,3.54,-3.66,972.36,32.75
3415622,0.09,-0.25,0.96,2.26,1.22,-3.3,972.47,32.75
3415660,0.18,-0.26,0.9,-0.43,4.88,-3.05,972.49,32.75
3415698,0.17,-0.2,0.96,-1.53,8.54,-3.6,972.46,32.74
3415736,0.11,-0.18,0.95,-0.37,9.22,-2.93,972.61,32.76
3415774,0.22,-0.18,1.01,-0.67,8.12,-2.81,972.65,32.75
3415812,0.17,-0.17,0.94,-1.65,8.24,-3.23,972.75,32.74
3415851,0.08,-0.2,1.02,-0.18,5.37,-2.62,972.72,32.76
3415889,0.19,-0.19,1.03,-1.04,5.07,-2.32,972.68,32.76
3415965,0.12,-0.22,0.98,0.49,4.15,-2.44,972.83,32.73
3416003,0.12,-0.16,1.16,0.37,0.55,-2.14,972.93,32.73
3416041,0.23,-0.19,1.22,-0.98,1.4,-2.01,972.94,32.74
3416130,0.17,-0.14,1.32,-0.37,-1.34,-1.89,973.03,32.71
3416169,0.11,-0.21,1.31,2.26,-1.4,-1.71,973.12,32.72
3416207,0.23,-0.16,1.32,1.95,-3.05,-2.62,973.08,32.72
3416245,0.13,-0.16,1.37,0.43,-0.18,-2.81,973.33,32.74
3416283,0.18,-0.15,1.35,1.77,1.16,-2.26,973.27,32.74
3416321,0.14,-0.2,1.19,3.11,2.99,-3.11,973.37,32.71
3416371,0.15,-0.2,1.13,2.56,4.27,-3.6,973.37,32.72
3416409,0.05,-0.17,1.2,4.94,0.55,-3.11,973.57,32.73
3416447,0.23,-0.18,1.03,4.7,1.34,-3.97,973.5,32.73
3416485,0.19,-0.21,1.01,2.87,-1.89,-4.21,973.53,32.72
3416524,0.2,-0.13,1.08,5.0,-2.08,-4.94,973.67,32.74
3416562,0.28,-0.21,1.13,1.16,1.59,-5.19,973.7,32.74
3416600,0.23,-0.26,1.07,2.14,0.18,-5.74,973.71,32.74
3416638,0.24,-0.19,0.94,1.28,5.55,-5.55,973.83,32.74
3416676,0.15,-0.21,0.97,3.17,5.49,-6.1,973.86,32.74
3416714,0.12,-0.22,1.0,4.09,0.18,-6.71,973.99,32.74
3416764,0.03,-0.15,0.98,2.93,1.28,-6.65,974.11,32.73
3416802,0.2,-0.17,1.01,1.95,1.83,-7.63,974.02,32.74
3416840,0.19,-0.19,1.06,1.04,0.67,-8.42,974.01,32.73
3416878,0.1,-0.18,1.13,0.92,-0.55,-8.0,974.22,32.75
3416916,0.1,-0.22,1.1,1.04,0.49,-8.42,974.15,32.76
3416955,0.18,-0.16,1.11,-0.92,0.61,-9.64,974.32,32.75
3416993,0.09,-0.16,1.19,-0.43,0.55,-8.73,974.34,32.75
3417031,0.14,-0.24,1.17,0.67,0.61,-9.16,974.27,32.74
3417069,0.12,-0.19,1.17,-1.1,0.49,-10.5,974.44,32.75
3417107,0.16,-0.17,1.29,-2.14,0.24,-9.7,974.5,32.75
3417157,0.23,-0.19,1.36,-2.32,-0.61,-10.5,974.59,32.74
3417195,0.17,-0.24,1.23,-1.65,0.18,-11.29,974.66,32.74
3417233,0.04,-0.22,1.03,0.55,6.35,-10.74,974.73,32.74
3417271,0.04,-0.13,1.16,-0.67,3.6,-10.38,974.89,32.73
3417310,0.17,-0.17,1.09,-0.92,1.16,-10.8,974.85,32.74
3417348,0.16,-0.2,1.14,-2.38,2.62,-11.9,975.03,32.74
3417386,-0.09,-0.18,1.13,-1.59,1.95,-10.8,975.14,32.75
3417424,0.09,-0.2,1.15,-2.81,1.53,-11.17,975.17,32.75
3417462,0.04,-0.19,1.12,-4.15,2.44,-11.29,975.15,32.73
3417512,0.09,-0.19,1.26,-6.04,4.27,-10.8,975.22,32.73
3417550,0.06,-0.17,1.26,-4.27,3.66,-11.17,975.35,32.74
3417589,0.01,-0.18,1.27,-4.76,2.87,-10.93,975.38,32.75
3417627,0.01,-0.16,1.42,-4.7,2.5,-10.56,975.45,32.74
3417665,-0.02,-0.2,1.4,-5.55,2.56,-10.25,975.32,32.73
3417703,0.0,-0.17,1.5,-4.21,1.04,-10.25,975.47,32.74
3417741,-0.05,-0.14,1.5,-4.82,1.83,-10.01,975.69,32.75
3417779,-0.05,-0.14,1.53,-4.21,-0.06,-9.16,975.52,32.74
3417818,-0.03,-0.18,1.57,-2.87,-1.89,-9.52,975.5,32.74
3417867,-0.11,-0.14,1.59,-3.54,0.31,-8.79,975.73,32.73
3417906,-0.02,-0.16,1.6,-3.05,-1.04,-8.36,975.73,32.73
3417944,-0.04,-0.19,1.56,-1.71,-0.43,-8.42,975.78,32.74
3417982,-0.12,-0.19,1.49,-0.98,0.98,-8.06,975.8,32.75
3418020,-0.01,-0.19,1.55,1.16,0.0,-7.75,975.82,32.74
3418058,-0.09,-0.15,1.44,-0.55,3.6,-7.39,976.0,32.74
3418096,-0.02,-0.15,1.49,1.53,1.1,-6.96,975.78,32.75
3418134,-0.07,-0.17,1.46,1.34,3.3,-6.59,976.0,32.75
3418172,-0.07,-0.16,1.42,1.28,1.65,-6.16,975.99,32.75
3418222,-0.09,-0.22,1.43,3.11,3.48,-5.86,976.0,32.76
3418260,-0.03,-0.17,1.37,2.62,1.53,-5.68,976.05,32.74
3418299,-0.05,-0.19,1.39,1.89,5.0,-5.37,976.09,32.75
3418337,-0.09,-0.18,1.2,2.26,3.97,-5.13,976.05,32.74
3418375,-0.11,-0.2,1.17,1.71,3.42,-4.88,976.09,32.77
3418413,-0.08,-0.19,1.22,1.83,2.2,-4.46,976.04,32.74
3418451,-0.05,-0.18,1.23,0.37,3.91,-4.21,976.2,32.74
3418489,-0.12,-0.18,1.18,-0.49,4.27,-3.6,976.21,32.76
3418527,-0.08,-0.17,1.25,0.73,2.2,-3.54,976.15,32.77
3418566,-0.07,-0.2,1.15,-0.67,4.52,-3.36,976.37,32.75
3418615,-0.05,-0.16,1.2,0.24,2.5,-3.05,976.34,32.75
3418654,-0.06,-0.23,1.12,-0.06,4.52,-2.5,976.32,32.74
3418692,-0.09,-0.2,1.08,0.73,2.01,-2.5,976.4,32.76
3418730,-0.08,-0.19,1.11,1.34,0.98,-2.32,976.41,32.76
3418768,-0.02,-0.19,0.96,0.73,1.59,-2.08,976.45,32.76
3418806,-0.07,-0.2,1.11,1.28,0.0,-2.01,976.45,32.77
3418844,-0.07,-0.21,1.07,0.12,2.08,-1.77,976.38,32.76
3418882,-0.07,-0.2,1.04,0.92,-0.49,-1.95,976.52,32.76
3418920,-0.06,-0.22,1.0,1.04,-1.1,-1.89,976.61,32.76
3418996,-0.03,-0.16,1.11,0.24,-2.2,-1.53,976.6,32.72
3419034,-0.07,-0.23,1.01,-0.12,-1.83,-1.4,976.56,32.76
3419072,-0.07,-0.24,1.02,0.98,-2.87,-1.34,976.53,32.74
3419162,-0.06,-0.16,0.99,0.37,-2.87,-1.16,976.6,32.72
3419200,-0.05,-0.19,0.93,0.18,-2.32,-1.28,976.69,32.73
3419238,-0.1,-0.2,1.02,-0.98,-2.87,-1.28,976.75,32.75
3419276,-0.08,-0.21,1.0,-1.34,-1.46,-1.04,976.73,32.73
3419315,-0.09,-0.21,1.05,-1.22,-3.05,-0.92,976.77,32.75
3419353,-0.09,-0.23,1.06,-2.08,-1.95,-0.92,976.82,32.76
3419391,-0.05,-0.19,1.08,-2.32,-2.08,-0.92,976.78,32.75
3419441,-0.07,-0.17,1.17,-1.71,-1.89,-0.85,976.69,32.74
3419479,-0.02,-0.18,1.19,-2.62,-1.28,-0.55,976.73,32.75
3419517,-0.08,-0.21,1.21,-2.26,-0.24,-0.43,976.81,32.75
3419555,-0.11,-0.19,1.17,-2.08,0.67,-0.24,976.85,32.76
3419593,-0.06,-0.17,1.23,-2.01,-1.04,-0.43,976.77,32.75
3419631,-0.04,-0.17,1.26,-3.23,-0.43,-0.18,976.88,32.73
3419670,-0.06,-0.19,1.24,-2.38,-0.92,-0.12,976.88,32.74
3419708,-0.08,-0.22,1.27,-1.53,0.06,0.0,976.68,32.74
3419746,-0.09,-0.19,1.3,-1.71,-1.22,0.06,976.8,32.73
3419796,-0.09,-0.22,1.25,-1.4,-0.79,0.24,976.85,32.72
3419834,-0.14,-0.16,1.28,-1.65,-1.4,0.31,976.88,32.72
3419872,-0.05,-0.2,1.3,-0.92,0.85,0.61,976.96,32.72
3419910,-0.03,-0.22,1.2,-1.22,2.08,0.73,976.93,32.73
3419948,-0.12,-0.2,1.2,0.61,1.77,1.04,976.95,32.73
3419986,-0.11,-0.18,1.17,0.85,-0.06,1.16,976.92,32.73
3420025,-0.02,-0.16,1.19,1.59,-0.61,1.1,976.98,32.74
3420063,-0.04,-0.19,1.15,1.4,2.26,1.53,976.9,32.74
3420101,-0.03,-0.19,1.03,2.38,2.75,1.59,977.06,32.74
3420151,-0.09,-0.2,0.99,3.17,3.6,1.83,977.03,32.72
3420189,-0.08,-0.19,0.92,3.91,0.85,2.08,976.94,32.74
3420227,-0.06,-0.21,0.94,3.72,1.53,2.32,977.03,32.73
3420265,-0.1,-0.2,0.86,4.09,2.5,2.56,977.04,32.72
3420303,-0.07,-0.19,0.84,4.27,2.62,2.69,977.12,32.73
3420341,-0.05,-0.19,0.81,4.7,2.93,2.75,977.11,32.72
3420380,-0.09,-0.19,0.82,3.97,3.36,3.05,977.15,32.73
3420418,-0.06,-0.19,0.75,4.7,4.03,3.42,977.11,32.74
3420456,-0.04,-0.2,0.72,4.27,5.98,3.54,977.03,32.72
3420494,-0.06,-0.2,0.73,4.46,5.25,3.91,977.01,32.73
3420544,-0.05,-0.21,0.72,4.03,5.98,4.15,976.99,32.73
3420582,-0.08,-0.2,0.76,4.39,5.43,3.97,977.1,32.73
3420620,-0.03,-0.18,0.74,3.54,5.31,4.39,977.17,32.73
3420658,-0.01,-0.18,0.84,3.11,5.43,4.64,977.1,32.74
3420696,-0.03,-0.18,0.85,3.42,6.71,4.76,976.96,32.74
3420735,-0.06,-0.21,0.82,2.62,7.57,4.64,977.08,32.73
3420773,-0.04,-0.18,0.85,3.6,7.14,4.88,977.0,32.72
3420811,0.02,-0.21,0.87,3.23,7.75,5.0,977.06,32.72
3420849,0.01,-0.18,0.88,2.2,7.87,4.88,977.07,32.72
3420887,-0.06,-0.19,0.86,3.3,5.86,4.94,977.13,32.74
3420937,-0.03,-0.18,0.81,2.75,4.82,4.88,977.11,32.73
3420975,0.01,-0.18,0.82,2.56,4.15,4.94,977.13,32.73
3421013,0.01,-0.2,0.84,2.38,5.49,5.07,977.11,32.73
3421051,-0.02,-0.2,0.87,2.93,4.7,4.82,977.16,32.73
3421090,0.01,-0.19,0.9,2.81,1.83,4.58,977.22,32.74
3421128,0.04,-0.18,0.93,2.01,3.48,4.58,977.2,32.74
3421166,0.0,-0.18,0.87,2.44,4.64,4.46,977.09,32.73
3421204,-0.07,-0.2,0.92,3.78,2.32,4.21,977.05,32.73
3421242,0.07,-0.19,0.99,3.23,1.59,4.27,977.13,32.74
3421292,0.06,-0.2,0.99,2.81,2.75,3.91,977.12,32.73
3421330,0.02,-0.18,0.92,2.69,5.31,3.78,977.28,32.73
3421368,-0.08,-0.19,0.91,3.85,3.54,3.6,977.12,32.73
3421406,0.02,-0.2,0.91,3.11,1.89,3.42,977.31,32.76
3421444,0.09,-0.2,0.89,3.36,2.81,3.17,977.44,32.74
3421483,-0.01,-0.19,0.82,3.54,4.88,2.87,977.3,32.73
3421521,-0.0,-0.19,0.82,3.17,3.42,2.62,977.29,32.74
3421559,0.04,-0.18,0.88,3.11,2.32,2.26,977.28,32.75
3421597,0.06,-0.2,0.89,0.79,5.49,2.08,977.4,32.76
3421635,-0.02,-0.17,0.9,1.77,3.72,1.77,977.24,32.73
3421685,-0.0,-0.18,0.91,1.16,4.46,1.28,977.42,32.72
3421723,0.01,-0.19,0.97,1.83,1.46,1.34,977.44,32.74
3421761,0.05,-0.18,0.96,0.43,5.07,1.28,977.4,32.74
3421799,0.01,-0.19,0.9,0.92,4.39,1.1,977.37,32.74
3421837,-0.03,-0.17,0.99,1.46,2.08,0.98,977.35,32.73
3421876,0.02,-0.18,1.01,0.79,2.75,0.67,977.4,32.73
3421914,-0.02,-0.18,1.03,1.1,3.17,0.73,977.41,32.73
3421952,-0.03,-0.18,1.02,1.95,2.87,0.61,977.33,32.73
3421990,0.0,-0.19,1.11,1.77,2.69,0.61,977.5,32.73
3422028,0.0,-0.18,1.05,2.08,2.5,0.55,977.42,32.73
3422104,0.01,-0.18,1.02,3.85,2.56,0.0,977.41,32.7
3422142,0.01,-0.18,1.04,3.6,2.08,-0.12,977.56,32.72
3422180,-0.02,-0.17,0.97,3.72,2.75,0.12,977.49,32.73
3422271,-0.04,-0.17,0.98,5.43,2.08,-0.12,977.65,32.68
3422309,0.0,-0.17,0.94,5.07,2.5,-0.12,977.56,32.7
3422347,-0.02,-0.17,0.91,5.31,2.87,-0.37,977.63,32.7
3422385,-0.03,-0.19,0.85,5.92,2.32,-0.67,977.59,32.71
3422424,0.03,-0.17,0.86,5.43,2.62,-0.43,977.62,32.71
3422462,-0.01,-0.18,0.82,5.74,2.69,-0.61,977.63,32.71
3422500,-0.03,-0.18,0.78,5.98,3.3,-0.49,977.65,32.71
3422550,-0.06,-0.17,0.77,6.23,2.69,-0.73,977.66,32.71
3422588,0.0,-0.19,0.84,5.68,2.44,-0.73,977.76,32.71
3422626,-0.03,-0.18,0.8,5.25,3.6,-0.79,977.74,32.71
3422664,-0.06,-0.19,0.75,5.8,3.42,-0.85,977.82,32.71
3422702,0.0,-0.2,0.73,4.88,3.66,-0.61,977.77,32.71
3422741,0.01,-0.15,0.74,4.7,3.85,-0.61,977.84,32.71
3422779,-0.05,-0.17,0.72,5.13,4.21,-0.73,977.87,32.71
3422817,-0.03,-0.19,0.74,4.15,4.03,-0.73,977.89,32.72
3422855,-0.01,-0.17,0.79,4.33,3.48,-0.73,977.86,32.72
3422905,-0.01,-0.16,0.77,2.81,3.6,-0.73,977.89,32.71
3422943,-0.06,-0.19,0.77,3.11,2.99,-0.61,977.97,32.71
3422981,-0.05,-0.19,0.83,2.44,3.36,-0.49,977.98,32.72
3423019,-0.02,-0.18,0.83,1.65,4.46,-0.49,977.84,32.71
3423057,-0.06,-0.17,0.84,1.22,4.21,-0.49,977.94,32.72
3423095,-0.02,-0.16,0.83,1.77,4.58,-0.49,977.98,32.71
3423134,0.0,-0.18,0.85,0.61,5.92,-0.37,977.97,32.72
3423172,-0.08,-0.15,0.86,0.73,5.62,-0.37,977.96,32.71
3423210,-0.05,-0.16,0.89,0.43,5.49,-0.31,978.12,32.72
3423248,-0.01,-0.16,0.93,-0.12,6.35,0.0,977.85,32.71
3423298,-0.01,-0.18,0.98,-0.43,6.1,0.0,978.13,32.71
3423336,-0.06,-0.17,0.97,-0.31,6.23,-0.12,978.18,32.71
3423374,-0.03,-0.16,1.01,0.06,5.68,0.18,978.1,32.73
3423412,-0.05,-0.16,1.08,0.55,5.55,0.31,978.2,32.72
3423450,-0.06,-0.16,1.04,1.16,5.49,0.55,978.14,32.72
3423488,-0.04,-0.16,1.04,2.14,5.13,0.67,978.1,32.72
3423527,0.01,-0.14,1.08,3.48,4.39,0.67,978.28,32.73
3423565,-0.01,-0.16,1.0,3.17,5.49,0.92,978.17,32.72
3423603,-0.05,-0.17,1.0,4.33,5.13,1.04,978.33,32.73
3423653,-0.01,-0.17,0.99,5.68,4.58,1.1,978.42,32.72
3423691,-0.03,-0.15,0.91,6.1,3.48,0.92,978.36,32.73
3423729,-0.05,-0.17,0.89,5.86,3.72,1.22,978.32,32.72
3423767,-0.06,-0.16,0.84,6.04,3.23,1.22,978.31,32.73
3423805,-0.02,-0.15,0.83,5.86,3.36,1.28,978.32,32.74
3423844,-0.04,-0.18,0.8,5.86,2.81,1.1,978.52,32.73
3423882,-0.03,-0.18,0.8,5.31,2.81,1.34,978.39,32.73
3423920,-0.04,-0.16,0.75,4.94,3.11,1.46,978.34,32.74
3423958,-0.05,-0.16,0.77,4.27,3.42,1.4,978.54,32.73
3423996,-0.02,-0.19,0.77,4.52,3.36,1.46,978.54,32.74
3424046,-0.02,-0.19,0.77,4.64,2.56,1.46,978.56,32.73
3424084,-0.04,-0.17,0.76,3.42,3.11,1.53,978.54,32.73
3424122,-0.04,-0.17,0.78,3.6,2.01,1.53,978.6,32.74
3424160,0.01,-0.17,0.83,2.62,2.01,1.59,978.7,32.74
3424198,-0.02,-0.15,0.81,2.56,2.56,1.71,978.61,32.75
3424237,-0.04,-0.18,0.83,2.44,1.83,1.59,978.68,32.75
3424275,-0.01,-0.18,0.85,2.56,1.04,1.34,978.65,32.74
3424313,-0.04,-0.16,0.9,1.71,2.08,1.46,978.74,32.74
3424351,-0.07,-0.18,0.87,2.32,1.77,1.53,978.87,32.74
3424389,-0.01,-0.17,0.89,1.71,1.1,1.71,978.75,32.74
3424439,-0.04,-0.18,0.94,1.89,0.67,1.53,978.89,32.73
3424477,-0.02,-0.16,0.85,1.4,2.56,1.65,978.84,32.72
3424515,-0.01,-0.17,0.91,1.95,1.22,1.59,978.8,32.74
3424553,-0.03,-0.18,0.92,1.83,1.53,1.65,978.92,32.74
3424592,-0.04,-0.18,0.9,1.89,1.1,1.53,978.95,32.73
3424630,-0.04,-0.17,0.93,2.26,1.28,1.71,978.95,32.73
3424668,-0.05,-0.15,0.91,2.14,1.22,1.71,978.98,32.74
3424706,-0.03,-0.14,0.96,1.83,0.98,1.65,979.05,32.73
3424744,-0.02,-0.17,0.95,2.26,1.53,1.65,979.07,32.73
3424794,-0.02,-0.18,0.97,2.93,0.67,1.71,979.11,32.74
3424832,-0.02,-0.16,0.93,2.38,1.59,2.01,979.03,32.72
3424870,-0.04,-0.15,0.91,2.56,0.73,1.95,979.15,32.74
3424909,-0.03,-0.17,0.9,2.32,0.92,2.14,979.18,32.73
3424947,-0.05,-0.18,0.92,2.75,0.49,1.95,979.12,32.74
3424985,-0.05,-0.16,0.9,2.38,0.85,2.14,979.29,32.74
3425023,-0.05,-0.17,0.91,1.89,0.92,2.14,979.27,32.74
3425061,-0.03,-0.13,0.93,1.65,1.04,2.01,979.17,32.74
3425099,-0.01,-0.18,0.89,1.65,2.2,2.2,979.24,32.75
3425137,-0.05,-0.16,0.84,1.46,1.16,2.14,979.29,32.73
3425213,-0.04,-0.19,0.91,0.49,1.83,2.2,979.41,32.72
3425251,-0.03,-0.16,0.94,0.67,1.34,2.32,979.37,32.72
3425289,-0.02,-0.16,0.97,0.31,1.04,2.14,979.4,32.72
3425379,-0.05,-0.17,0.97,0.31,2.75,2.56,979.54,32.69
3425417,-0.04,-0.17,0.99,0.79,3.36,2.62,979.46,32.7
3425455,-0.02,-0.13,1.0,0.37,4.03,2.69,979.54,32.71
3425493,-0.04,-0.15,0.99,1.22,4.21,2.81,979.56,32.72
3425532,-0.02,-0.15,1.01,0.98,4.7,2.62,979.74,32.73
3425570,-0.02,-0.15,1.05,1.83,4.27,2.87,979.72,32.73
3425620,-0.02,-0.15,0.98,1.16,5.37,3.11,979.59,32.71
3425658,-0.05,-0.16,0.98,1.95,3.97,3.05,979.68,32.73
3425696,-0.03,-0.16,0.98,1.28,4.64,3.11,979.81,32.73
3425734,-0.0,-0.14,0.96,0.98,4.58,3.17,979.72,32.73
3425772,-0.02,-0.16,0.96,1.04,4.46,3.23,979.82,32.73
3425810,-0.03,-0.17,0.98,0.85,4.39,3.3,979.82,32.73
3425849,-0.02,-0.15,1.0,0.49,3.85,3.17,979.89,32.73
3425887,-0.01,-0.14,1.01,0.49,4.15,3.3,979.85,32.73
3425925,-0.01,-0.15,1.03,0.37,4.21,3.3,979.94,32.74
3425963,-0.01,-0.16,1.07,0.0,4.03,3.36,979.91,32.74
3426013,-0.02,-0.16,1.13,0.43,4.21,3.42,979.94,32.73
3426051,0.01,-0.16,1.18,0.55,3.48,3.23,980.05,32.73
3426089,-0.01,-0.14,1.17,0.85,4.39,3.23,980.06,32.73
3426127,-0.02,-0.17,1.14,1.71,4.52,3.23,979.96,32.72
3426165,-0.03,-0.16,1.15,2.44,2.87,3.11,980.08,32.74
3426203,-0.01,-0.12,1.13,1.16,4.21,3.3,980.13,32.74
3426241,-0.0,-0.15,1.09,2.14,4.82,2.99,980.1,32.74
3426280,0.01,-0.16,1.1,2.87,3.6,2.87,980.22,32.73
3426318,-0.01,-0.18,1.07,2.75,3.3,2.93,980.21,32.73
3426356,-0.02,-0.17,0.99,2.87,4.33,2.93,980.24,32.73
3426406,-0.05,-0.16,0.95,3.05,2.75,2.56,980.27,32.72
3426444,-0.02,-0.17,0.98,2.62,2.81,2.81,980.32,32.73
3426482,0.03,-0.17,0.96,2.81,1.89,2.69,980.25,32.74
3426520,-0.0,-0.15,0.97,1.4,2.56,2.56,980.42,32.74
3426558,-0.01,-0.15,0.95,1.71,0.98,2.81,980.41,32.73
3426596,0.01,-0.16,0.96,1.83,1.34,2.62,980.45,32.74
3426635,-0.01,-0.17,0.94,1.34,0.79,2.38,980.39,32.73
3426673,-0.06,-0.18,1.04,1.89,-0.24,2.38,980.45,32.73
3426711,-0.02,-0.14,1.02,0.98,1.16,2.44,980.24,32.73
3426749,0.01,-0.15,1.13,1.28,0.73,2.2,980.45,32.73
3426799,0.0,-0.17,1.11,0.49,1.59,2.32,980.46,32.72
3426837,-0.04,-0.16,1.2,0.24,0.0,2.5,980.41,32.73
3426875,-0.02,-0.18,1.11,0.06,1.04,2.44,980.64,32.73
3426913,-0.05,-0.17,1.12,0.67,0.79,2.32,980.57,32.73
3426951,-0.01,-0.14,1.07,-0.67,2.62,2.44,980.6,32.74
3426990,-0.03,-0.15,1.09,1.34,3.11,2.38,980.63,32.73
3427028,-0.03,-0.16,0.97,1.04,3.42,2.69,980.65,32.74
3427066,-0.02,-0.13,1.1,0.24,0.92,2.75,980.73,32.73
3427104,-0.04,-0.16,0.98,0.73,3.54,2.87,980.79,32.72
3427154,0.0,-0.14,1.03,0.92,2.93,2.81,980.65,32.71
3427192,-0.02,-0.17,1.04,0.73,4.76,2.62,980.82,32.73
3427230,-0.05,-0.15,1.03,15.44,2.01,2.75,980.71,32.72
3427268,-0.02,-0.17,1.05,0.49,2.69,2.81,980.91,32.73
3427306,-0.03,-0.17,1.06,0.24,4.21,2.81,980.76,32.74
3427345,-0.03,-0.15,1.13,0.37,4.15,2.81,980.68,32.74
3427383,-0.05,-0.16,1.05,0.18,6.47,2.87,980.87,32.73
3427421,-0.03,-0.16,1.04,-0.18,5.13,3.05,980.96,32.74
3427459,-0.05,-0.13,1.05,0.06,5.92,2.81,980.9,32.74
3427497,-0.02,-0.13,1.0,-0.31,6.65,2.81,980.87,32.73
3427547,-0.01,-0.16,1.1,0.67,6.84,2.87,980.94,32.74
3427585,-0.05,-0.15,1.05,0.37,8.12,2.93,981.01,32.73
3427623,-0.03,-0.15,1.03,1.04,6.96,2.99,981.01,32.73
3427662,0.0,-0.15,1.02,0.18,8.0,3.23,981.14,32.74
3427700,-0.01,-0.15,1.05,0.61,6.65,2.99,980.99,32.74
3427738,-0.03,-0.17,1.04,1.28,5.55,3.23,981.16,32.73
3427776,-0.01,-0.15,0.98,0.43,5.0,3.42,981.01,32.73
3427814,0.01,-0.14,1.06,0.55,4.64,3.36,981.15,32.74
3427852,-0.03,-0.14,1.01,0.24,4.15,3.36,981.27,32.75
3427890,-0.02,-0.14,1.02,-0.12,3.97,3.54,981.21,32.74
3427940,0.03,-0.17,1.06,-0.06,3.3,3.23,981.16,32.73
3427978,-0.0,-0.15,1.02,-0.92,3.54,3.05,981.17,32.73
3428017,-0.02,-0.13,1.07,-0.43,4.03,3.17,981.26,32.73
3428055,0.01,-0.15,1.07,-0.55,3.6,3.17,981.14,32.73
3428093,0.01,-0.12,1.09,-1.34,4.21,2.99,981.24,32.73
3428131,-0.04,-0.13,1.1,-1.34,3.6,3.36,981.29,32.73
3428169,-0.02,-0.15,1.08,-1.16,4.46,3.05,981.27,32.73
3428207,-0.01,-0.14,1.14,-1.53,3.36,2.87,981.26,32.73
3428245,0.01,-0.15,1.15,-1.4,2.75,3.17,981.3,32.73
3428321,-0.01,-0.14,1.19,-1.28,2.93,3.17,981.18,32.69
3428359,-0.01,-0.16,1.17,-0.61,3.78,3.11,981.47,32.71
3428397,-0.01,-0.12,1.14,-0.61,2.08,2.93,981.36,32.72
3428487,-0.0,-0.13,1.16,-0.18,1.34,3.05,981.35,32.7
3428525,-0.02,-0.12,1.23,-0.79,0.06,3.11,981.49,32.7
3428563,0.01,-0.12,1.29,-0.49,-0.61,3.3,981.48,32.7
3428601,-0.02,-0.11,1.21,-0.85,0.37,2.99,981.52,32.72
3428640,-0.01,-0.12,1.28,-0.18,-0.49,2.75,981.42,32.7
3428678,-0.04,-0.13,1.27,0.0,0.67,2.99,981.47,32.71
3428716,-0.04,-0.12,1.24,-0.18,0.73,3.11,981.3,32.72
3428766,-0.02,-0.11,1.28,0.24,0.43,3.23,981.58,32.71
3428804,-0.03,-0.11,1.29,-0.49,0.55,3.54,981.51,32.72
3428842,-0.01,-0.09,1.3,0.06,1.46,3.6,981.52,32.72
3428880,-0.05,-0.09,1.26,0.85,2.26,3.78,981.38,32.72
3428918,-0.01,-0.1,1.32,1.46,5.0,3.97,981.5,32.72
3428956,0.01,-0.09,1.35,2.56,4.46,3.91,981.29,32.7
3428994,-0.01,-0.1,1.3,1.59,6.35,3.91,981.61,32.72
3429033,0.02,-0.11,1.27,2.32,5.68,3.97,981.35,32.72
3429071,-0.04,-0.09,1.3,2.75,7.39,4.09,981.46,32.72
3429121,0.0,-0.12,1.19,2.2,10.5,4.09,981.32,32.72
3429159,-0.01,-0.08,1.25,2.99,8.67,4.09,981.35,32.72
3429197,0.01,-0.1,1.21,2.44,11.9,4.52,981.5,32.72
3429235,-0.02,-0.14,1.2,2.81,11.6,4.33,981.68,32.73
3429273,-0.01,-0.11,1.24,3.97,12.45,4.39,981.45,32.73
3429311,-0.02,-0.12,1.23,3.72,12.33,4.7,981.56,32.72
3429349,0.02,-0.12,1.14,4.09,11.35,4.88,981.48,32.72
3429388,-0.01,-0.1,1.08,3.36,11.72,4.82,981.53,32.72
3429426,-0.01,-0.12,1.1,4.03,10.86,5.43,981.62,32.73
3429464,0.01,-0.12,1.01,3.54,11.6,5.55,981.61,32.73
3429514,0.0,-0.12,1.02,3.54,9.09,5.49,981.57,32.73
3429552,0.0,-0.15,0.96,4.27,8.18,5.49,981.78,32.72
3429590,0.03,-0.12,1.01,3.72,6.65,5.68,981.87,32.72
3429628,0.02,-0.15,0.93,4.39,5.55,5.43,981.75,32.72
3429666,0.01,-0.14,0.9,3.97,5.31,5.49,981.77,32.74
3429704,0.06,-0.13,0.98,4.39,2.81,5.31,981.81,32.73
3429742,0.04,-0.15,0.84,3.97,3.05,5.19,981.81,32.73
3429780,0.03,-0.14,0.94,5.19,1.28,5.07,981.78,32.74
3429819,0.07,-0.17,0.82,3.6,4.64,4.7,981.82,32.73
3429857,0.04,-0.14,0.83,4.46,1.34,4.64,981.81,32.73
3429906,0.04,-0.14,0.7,4.27,2.56,4.58,981.91,32.71
3429945,0.02,-0.16,0.65,4.27,0.18,4.09,981.98,32.74
3429983,0.01,-0.15,0.59,3.72,2.75,3.48,981.81,32.73
3430021,0.03,-0.15,0.57,3.36,2.75,3.48,981.9,32.73
3430059,0.04,-0.16,0.59,3.3,2.5,3.23,981.86,32.73
3430097,0.06,-0.14,0.61,2.08,2.69,2.44,981.84,32.73
3430135,0.04,-0.16,0.64,1.95,4.88,2.26,981.86,32.73
3430173,0.06,-0.15,0.7,1.28,5.07,2.08,981.97,32.72
3430212,0.06,-0.16,0.73,1.34,6.53,1.16,981.89,32.73
3430261,0.02,-0.14,0.75,1.1,6.77,1.28,982.01,32.73
3430300,0.03,-0.14,0.81,1.22,6.9,1.22,981.99,32.73
3430338,0.04,-0.18,0.76,0.12,7.08,0.73,981.96,32.73
3430376,0.03,-0.15,0.92,1.04,4.52,0.79,982.1,32.73
3430414,0.06,-0.17,0.81,-0.43,6.41,0.61,981.93,32.72
3430452,0.03,-0.15,0.85,0.12,5.49,0.43,981.98,32.73
3430490,0.01,-0.16,0.91,0.61,4.58,0.06,982.07,32.72
3430528,0.04,-0.17,0.89,-0.18,3.23,-0.06,982.08,32.73
3430566,0.01,-0.14,0.91,1.16,2.01,-0.31,981.92,32.73
3430605,0.01,-0.17,0.85,0.85,2.87,-0.61,982.08,32.72
3430654,0.04,-0.13,0.89,1.53,1.22,-0.92,982.08,32.71
3430693,0.04,-0.15,0.88,0.92,2.93,-1.22,982.18,32.72
3430731,0.02,-0.16,0.89,1.83,2.81,-1.65,982.2,32.73
3430769,0.03,-0.13,0.92,1.95,3.17,-1.65,982.0,32.74
3430807,0.02,-0.17,0.96,2.2,3.42,-1.95,982.22,32.73
3430845,0.02,-0.15,0.95,2.32,3.42,-2.14,982.01,32.73
3430883,-0.0,-0.13,0.96,2.08,3.85,-2.38,982.15,32.73
3430921,-0.01,-0.13,0.92,2.08,4.09,-2.62,982.24,32.73
3430959,0.02,-0.12,0.95,1.77,3.97,-2.62,982.09,32.73
3430998,-0.0,-0.11,0.93,1.59,4.94,-2.99,982.33,32.73
3431047,-0.02,-0.13,0.94,1.71,4.33,-2.81,982.25,32.72
3431086,-0.0,-0.13,0.97,2.14,4.94,-2.93,982.21,32.72
3431124,-0.04,-0.11,0.97,2.08,5.13,-3.17,982.16,32.72
3431162,-0.01,-0.12,1.02,2.26,4.33,-3.17,982.23,32.74
3431200,-0.02,-0.14,0.98,1.71,5.25,-2.93,982.37,32.74
3431238,-0.04,-0.11,1.01,1.65,5.43,-2.87,982.29,32.74
3431276,-0.02,-0.13,1.0,1.77,5.25,-2.93,982.35,32.74
3431315,-0.03,-0.12,1.02,1.71,4.39,-2.81,982.41,32.73
3431353,-0.06,-0.12,1.01,1.34,5.25,-2.56,982.38,32.74
3431429,-0.02,-0.12,1.05,0.73,4.82,-2.38,982.33,32.71
3431467,-0.04,-0.1,1.04,0.61,4.58,-2.32,982.45,32.73
3431505,-0.03,-0.1,1.07,0.73,3.97,-2.14,982.32,32.72
3431594,-0.06,-0.11,1.08,0.43,3.72,-2.01,982.41,32.7
3431633,-0.02,-0.1,1.13,-0.06,3.36,-1.71,982.29,32.71
3431671,-0.07,-0.1,1.12,-0.06,4.21,-1.71,982.3,32.7
3431709,-0.07,-0.1,1.13,0.12,2.81,-1.65,982.3,32.71
3431747,-0.07,-0.09,1.12,-0.37,2.62,-1.46,982.42,32.71
3431785,-0.04,-0.11,1.11,-0.43,2.81,-1.4,982.35,32.72
3431823,-0.07,-0.1,1.12,-0.55,2.75,-1.22,982.42,32.73
3431873,-0.05,-0.1,1.11,0.37,2.81,-0.98,982.34,32.71
3431911,-0.05,-0.11,1.09,0.43,2.81,-0.79,982.4,32.7
3431949,-0.05,-0.11,1.11,0.43,2.44,-0.67,982.52,32.71
3431987,-0.05,-0.1,1.07,0.85,1.95,-0.61,982.42,32.72
3432025,-0.06,-0.09,1.1,1.28,2.2,-0.49,982.44,32.73
3432064,-0.06,-0.12,1.01,0.79,3.05,-0.31,982.58,32.73
3432102,-0.05,-0.09,1.05,1.71,1.71,-0.18,982.59,32.72
3432140,-0.04,-0.11,0.99,1.04,3.3,-0.06,982.67,32.72
3432178,-0.05,-0.09,1.0,1.71,2.2,0.0,982.5,32.72
3432228,-0.03,-0.11,0.99,1.46,4.7,0.18,982.65,32.71
3432266,-0.07,-0.07,1.01,1.4,3.23,0.18,982.69,32.7
3432304,-0.04,-0.1,1.07,2.01,4.52,0.24,982.67,32.71
3432342,-0.09,-0.11,1.01,1.83,4.52,0.49,982.58,32.72
3432380,-0.08,-0.08,1.08,2.01,3.54,0.79,982.63,32.71
3432418,-0.05,-0.09,1.0,1.1,6.47,0.98,982.57,32.72
3432456,-0.03,-0.09,1.0,1.4,5.31,1.04,982.66,32.72
3432494,-0.05,-0.09,1.02,1.04,4.7,0.85,982.65,32.71
3432533,-0.06,-0.1,0.98,0.43,5.13,1.28,982.51,32.71
3432571,-0.03,-0.11,0.98,0.55,4.27,1.53,982.62,32.71
3432621,-0.05,-0.11,0.98,0.18,4.27,1.65,982.58,32.69
3432659,-0.04,-0.09,1.02,-0.55,3.72,1.89,982.59,32.69
3432697,-0.04,-0.1,1.05,-0.49,4.15,1.89,982.69,32.72
3432735,-0.06,-0.09,1.09,-0.12,3.42,2.01,982.71,32.71
3432773,-0.05,-0.09,1.09,0.12,4.33,1.89,982.62,32.72
3432811,-0.02,-0.08,1.13,0.43,2.99,2.08,982.57,32.71
3432849,-0.04,-0.08,1.14,1.46,3.85,2.01,982.71,32.71
3432887,-0.04,-0.09,1.09,1.89,4.09,2.08,982.7,32.71
3432925,-0.07,-0.09,1.12,3.11,3.66,2.32,982.68,32.7
3432975,-0.02,-0.11,1.0,3.11,3.85,2.44,982.79,32.68
3433013,-0.08,-0.1,1.03,3.91,3.54,2.38,982.76,32.7
3433051,-0.03,-0.1,0.99,4.03,4.76,2.62,982.9,32.7
3433090,-0.01,-0.1,0.91,3.54,4.58,2.75,982.96,32.71
3433128,-0.03,-0.1,0.98,4.7,4.58,2.99,982.98,32.7
3433166,-0.03,-0.12,0.95,4.15,4.33,3.05,983.0,32.73
3433204,-0.05,-0.11,0.93,3.85,3.72,3.3,982.92,32.7
3433242,-0.03,-0.11,0.93,3.6,4.39,3.48,982.97,32.7
3433280,-0.05,-0.09,0.94,2.81,4.21,3.3,983.0,32.71
3433318,-0.02,-0.1,0.9,2.44,4.58,3.54,982.95,32.71
3433368,-0.02,-0.1,0.97,2.2,3.72,3.66,982.96,32.69
3433406,-0.03,-0.11,0.93,1.28,4.64,3.78,983.02,32.7
3433444,-0.02,-0.1,1.01,1.59,3.17,3.78,982.99,32.71
3433482,-0.03,-0.1,1.01,1.22,4.64,3.91,983.0,32.7
3433520,-0.03,-0.1,1.01,1.22,4.46,4.09,982.99,32.71
3433559,-0.04,-0.11,1.02,1.59,4.46,4.03,983.09,32.72
3433597,-0.02,-0.11,1.01,1.22,4.09,4.03,983.17,32.71
3433635,-0.03,-0.09,1.06,1.4,4.39,3.97,982.99,32.7
3433673,-0.02,-0.09,1.03,1.95,4.03,4.09,983.02,32.7
3433711,-0.03,-0.09,1.06,2.14,4.15,4.15,982.98,32.72
3433761,-0.01,-0.09,1.06,2.2,4.76,4.15,983.06,32.72
3433799,-0.04,-0.08,1.09,2.5,4.15,4.15,982.96,32.72
3433837,-0.02,-0.11,1.05,2.2,4.15,4.27,983.09,32.71
3433875,-0.03,-0.1,1.04,2.44,3.6,4.15,983.13,32.72
3433913,-0.02,-0.09,1.03,2.08,4.09,4.09,983.13,32.72
3433951,-0.01,-0.1,1.0,1.89,4.03,4.15,983.25,32.72
3433990,-0.03,-0.09,0.98,2.26,2.87,4.09,983.22,32.73
3434028,-0.02,-0.1,1.0,1.95,3.05,4.21,983.23,32.73
3434066,-0.01,-0.09,0.96,1.46,4.21,4.09,983.12,32.74
3434116,-0.01,-0.09,1.0,1.4,3.66,3.97,983.26,32.73
3434154,-0.01,-0.11,1.01,1.28,3.72,4.15,983.17,32.72
3434192,0.0,-0.09,1.03,1.16,3.6,4.03,983.15,32.72
3434230,-0.03,-0.09,1.0,0.92,3.91,4.09,983.24,32.72
3434268,-0.0,-0.11,0.99,1.28,3.3,4.03,983.22,32.72
3434306,-0.01,-0.1,1.02,0.61,3.54,3.78,983.3,32.72
3434344,-0.01,-0.09,1.02,0.92,3.3,3.66,983.22,32.73
3434383,-0.01,-0.11,1.0,0.79,3.97,3.72,983.28,32.73
3434421,-0.02,-0.11,1.01,0.79,3.66,3.72,983.35,32.74
3434459,0.02,-0.09,1.04,0.73,3.42,3.6,983.31,32.73
3434535,-0.0,-0.09,1.0,0.55,3.3,3.6,983.42,32.7
3434573,-0.02,-0.11,1.02,0.92,2.69,3.48,983.33,32.71
3434611,-0.02,-0.1,1.09,0.73,2.14,3.42,983.48,32.72
3434700,0.0,-0.07,1.08,0.79,2.5,2.99,983.29,32.69
3434739,-0.01,-0.08,1.07,1.22,4.33,3.05,983.42,32.69
3434777,-0.01,-0.1,1.06,1.46,3.54,2.69,983.37,32.71
3434815,-0.0,-0.08,1.08,1.71,3.97,2.69,983.4,32.72
3434853,0.0,-0.09,1.01,1.71,3.3,2.81,983.47,32.71
3434891,0.01,-0.09,1.07,1.04,3.85,2.93,983.42,32.72
3434929,0.01,-0.1,1.04,2.01,2.62,2.81,983.35,32.72
3434979,-0.01,-0.09,1.05,1.46,2.14,2.87,983.39,32.69
3435017,-0.0,-0.09,1.01,0.67,2.38,2.75,983.44,32.72
3435055,-0.0,-0.09,1.02,0.67,2.44,2.5,983.47,32.72
3435093,-0.0,-0.09,1.01,0.31,3.11,2.38,983.45,32.72
3435132,-0.0,-0.08,1.04,0.61,2.56,2.26,983.43,32.72
3435170,-0.01,-0.09,1.03,0.73,3.3,2.26,983.51,32.71
3435208,0.01,-0.11,1.05,0.85,2.32,1.89,983.45,32.72
3435246,0.02,-0.1,1.04,0.98,1.95,1.83,983.51,32.71
3435284,-0.0,-0.09,1.04,1.04,2.08,1.95,983.47,32.72
3435322,0.02,-0.1,1.03,1.28,1.59,1.77,983.48,32.73
3435372,-0.02,-0.08,1.05,0.92,0.98,1.59,983.47,32.7
3435410,-0.01,-0.08,1.02,1.22,1.16,1.71,983.53,32.72
3435448,0.01,-0.08,1.09,1.4,0.61,1.71,983.47,32.72
3435486,0.02,-0.1,1.1,1.95,0.37,1.59,983.43,32.71
3435525,-0.01,-0.1,1.05,1.77,1.34,1.53,983.61,32.72
3435563,-0.02,-0.1,1.04,2.44,1.77,1.34,983.56,32.72
3435601,-0.01,-0.07,1.03,3.11,0.85,1.16,983.58,32.72
3435639,-0.03,-0.08,1.0,2.99,1.16,1.04,983.64,32.72
3435677,-0.01,-0.1,1.0,4.03,0.92,1.16,983.57,32.73
3435727,-0.01,-0.09,0.94,4.09,2.99,0.73,983.69,32.72
3435765,-0.01,-0.1,0.94,4.7,2.81,0.79,983.69,32.73
3435803,-0.01,-0.1,0.93,4.52,3.17,0.92,983.56,32.73
3435841,-0.03,-0.11,0.93,4.64,3.3,0.55,983.76,32.73
3435879,-0.02,-0.08,0.87,4.09,4.88,0.67,983.77,32.73
3435918,-0.01,-0.11,0.86,4.64,4.46,0.79,983.76,32.72
3435956,-0.0,-0.11,0.89,4.39,4.33,0.67,983.77,32.73
3435994,-0.01,-0.11,0.82,4.03,4.58,0.79,983.81,32.72
3436032,-0.03,-0.09,0.85,3.85,3.6,1.04,983.77,32.72
3436070,0.01,-0.11,0.83,3.17,4.88,0.98,983.77,32.73
3436120,-0.01,-0.1,0.83,2.87,4.33,0.67,983.81,32.72
3436158,0.0,-0.11,0.84,2.26,5.98,0.61,983.81,32.72
3436196,-0.01,-0.1,0.85,1.89,5.98,0.55,983.68,32.73
3436234,-0.01,-0.09,0.92,1.77,6.41,0.55,983.82,32.73
3436272,-0.02,-0.11,0.89,1.53,7.26,0.55,983.7,32.72
3436311,-0.0,-0.09,0.92,1.22,7.32,0.43,983.77,32.74
3436349,-0.01,-0.09,0.97,1.16,6.9,0.61,983.81,32.73
3436387,-0.05,-0.08,0.93,0.61,7.08,0.92,983.73,32.73
3436425,-0.03,-0.1,0.97,0.37,6.65,1.04,983.79,32.72
3436463,-0.02,-0.08,1.0,0.67,5.86,1.16,983.61,32.72
3436513,-0.03,-0.07,0.97,0.06,5.74,1.4,983.86,32.72
3436551,-0.01,-0.06,1.0,0.12,4.46,1.65,983.77,32.72
3436589,0.0,-0.08,1.04,0.24,5.19,1.59,983.88,32.72
3436627,0.0,-0.07,1.02,0.18,4.7,1.22,983.78,32.73
3436665,-0.02,-0.06,1.06,0.18,3.23,1.4,983.66,32.72
3436704,-0.01,-0.07,1.08,0.0,4.64,1.53,983.83,32.72
3436742,0.01,-0.06,1.01,0.24,5.07,1.59,983.81,32.73
3436780,-0.04,-0.06,1.05,0.98,3.85,1.53,983.97,32.72
3436818,-0.02,-0.06,0.97,1.4,4.15,1.46,983.96,32.73
3436868,-0.01,-0.06,0.98,1.71,2.87,1.59,983.81,32.7
3436906,-0.02,-0.09,0.97,1.34,4.33,1.53,983.84,32.72
3436944,-0.01,-0.09,0.96,2.2,2.75,1.46,983.86,32.71
3436982,-0.02,-0.05,1.04,2.62,3.3,1.46,983.98,32.72
3437020,-0.01,-0.05,0.99,2.26,2.26,1.71,983.93,32.72
3437058,-0.0,-0.05,1.06,3.36,1.28,1.71,983.86,32.73
3437096,-0.01,-0.08,1.03,3.6,2.14,1.77,984.16,32.74
3437135,-0.0,-0.07,1.07,4.15,0.79,1.77,983.97,32.72
3437173,0.0,-0.06,1.03,4.52,1.16,1.83,984.02,32.73
3437211,-0.01,-0.06,0.96,4.7,0.49,1.83,983.99,32.72
3437261,-0.0,-0.07,0.93,4.58,0.37,1.89,983.87,32.73
3437299,-0.01,-0.08,0.95,4.33,0.43,1.83,983.88,32.72
3437337,-0.0,-0.06,0.96,4.27,-0.06,1.83,983.86,32.73
3437375,-0.01,-0.06,0.94,3.48,0.92,1.71,983.93,32.71
3437413,-0.01,-0.05,0.94,3.36,2.01,1.65,983.93,32.73
3437451,-0.01,-0.09,0.94,3.11,1.89,1.4,983.87,32.73
3437489,-0.02,-0.08,0.91,2.75,2.08,1.53,984.05,32.73
3437527,-0.01,-0.07,0.86,2.62,3.11,1.34,984.0,32.72
3437566,-0.01,-0.06,0.92,2.26,2.62,1.46,983.97,32.73
3437604,-0.01,-0.06,0.9,1.83,3.6,1.71,984.01,32.74
3437680,-0.04,-0.07,0.95,2.2,3.17,1.83,984.06,32.71
3437718,0.0,-0.07,0.88,1.04,4.39,1.83,984.02,32.73
3437756,-0.02,-0.05,0.97,1.65,3.78,1.77,984.13,32.72
3437845,-0.01,-0.07,0.97,1.28,4.15,1.77,984.2,32.7
3437884,-0.02,-0.07,0.91,1.22,5.37,1.95,984.06,32.7
3437922,0.0,-0.07,0.94,0.92,4.94,1.89,984.16,32.71
3437960,-0.01,-0.07,0.99,1.34,5.49,1.77,984.07,32.71
3437998,-0.0,-0.06,0.96,0.79,6.29,1.77,984.12,32.72
3438036,0.01,-0.08,0.98,1.28,6.1,1.53,984.15,32.71
3438086,-0.0,-0.03,0.93,0.12,6.47,1.65,984.28,32.7
3438124,-0.01,-0.06,0.99,0.85,6.84,1.53,984.05,32.72
3438162,0.0,-0.08,0.92,0.24,7.2,1.34,984.15,32.72
3438200,-0.0,-0.04,1.05,0.85,6.35,1.34,984.12,32.72
3438238,0.02,-0.05,0.98,0.55,7.75,1.53,984.06,32.72
3438276,-0.03,-0.04,1.0,0.98,6.96,1.46,984.13,32.71
3438315,-0.0,-0.05,1.02,1.28,6.9,1.4,984.13,32.72
3438353,0.0,-0.06,1.0,0.37,7.39,1.16,984.15,32.72
3438391,-0.02,-0.03,1.03,0.0,7.87,1.53,984.15,32.72
3438429,-0.0,-0.05,1.02,-0.18,7.57,1.34,984.1,32.73
3438479,0.01,-0.03,1.04,-0.49,7.02,1.34,984.24,32.72
3438517,0.01,-0.03,1.06,-1.04,6.16,1.83,984.25,32.72
3438555,0.0,-0.03,1.08,-1.16,5.37,1.71,984.13,32.73
3438593,0.03,-0.03,1.07,-1.16,6.1,1.71,984.23,32.72
3438631,-0.03,-0.01,1.08,-1.34,5.31,1.77,984.17,32.72
3438669,-0.01,-0.04,1.11,-0.98,5.25,1.83,984.22,32.73
3438707,-0.01,-0.05,1.01,-0.92,4.76,1.28,984.24,32.74
3438746,-0.01,-0.03,1.07,-1.1,3.97,1.1,984.31,32.72
3438784,-0.03,-0.03,1.07,-1.16,3.85,1.4,984.2,32.73
3438822,-0.02,-0.01,1.11,-0.92,2.99,0.98,984.32,32.73
3438872,0.0,-0.01,1.1,-0.79,3.85,1.16,984.24,32.71
3438910,-0.03,-0.04,1.11,-0.49,2.81,0.98,984.4,32.72
3438948,-0.01,-0.03,1.1,0.12,3.72,0.85,984.45,32.73
3438986,-0.03,-0.03,1.1,0.49,3.36,0.79,984.26,32.74
3439024,-0.01,-0.02,1.1,0.73,2.99,0.73,984.34,32.72
3439062,0.0,-0.01,1.08,0.85,3.85,0.67,984.38,32.72
3439101,-0.01,-0.04,1.04,0.92,3.48,0.43,984.26,32.73
3439139,-0.01,-0.02,1.05,0.12,3.42,0.24,984.23,32.73
3439177,0.01,0.01,1.07,0.0,2.5,0.43,984.33,32.73
3439227,-0.02,-0.0,1.12,0.49,1.95,0.18,984.45,32.73
3439265,-0.05,0.01,1.13,0.43,2.32,0.31,984.35,32.71
3439303,-0.02,0.0,1.15,0.43,2.01,0.0,984.2,32.71
3439341,-0.03,-0.01,1.13,0.12,2.01,-0.12,984.17,32.73
3439379,-0.02,-0.0,1.13,-0.12,1.83,0.18,984.26,32.73
3439417,-0.01,-0.0,1.15,-0.37,0.31,-0.06,984.3,32.74
3439455,-0.01,-0.02,1.11,-1.34,2.08,-0.12,984.3,32.72
3439493,-0.03,-0.0,1.17,-0.49,0.67,-0.12,984.4,32.73
3439532,-0.04,-0.02,1.1,-1.28,2.26,-0.24,984.46,32.73
3439570,-0.02,0.02,1.14,-1.04,0.79,-0.55,984.31,32.71
3439619,0.0,-0.02,1.1,-0.92,1.04,-0.49,984.42,32.7
3439658,-0.0,-0.01,1.12,-1.1,0.73,-0.49,984.39,32.71
3439696,-0.02,0.01,1.15,-1.34,1.95,-0.98,984.4,32.71
3439734,-0.02,0.0,1.11,-0.92,2.32,-0.85,984.22,32.7
3439772,-0.0,0.01,1.16,-0.73,1.71,-1.16,984.34,32.71
3439810,-0.03,0.01,1.12,-0.79,2.26,-1.34,984.47,32.72
3439848,-0.03,-0.02,1.11,-0.67,3.3,-1.4,984.43,32.71
3439886,-0.02,-0.0,1.12,-0.49,3.23,-1.4,984.37,32.72
3439925,-0.04,0.01,1.12,-0.37,2.81,-1.59,984.35,32.72
3439974,-0.02,0.03,1.09,-0.43,3.3,-1.59,984.46,32.72
3440012,-0.04,0.03,1.12,-0.24,3.85,-1.34,984.29,32.71
3440051,-0.05,0.01,1.12,-0.61,4.03,-1.4,984.28,32.72
3440089,-0.07,0.0,1.14,-0.24,3.91,-1.04,984.48,32.73
3440127,-0.03,0.02,1.12,-0.49,4.15,-0.73,984.43,32.72
3440165,-0.04,0.02,1.16,-0.24,3.91,-0.61,984.48,32.72
3440203,-0.05,0.0,1.12,-0.37,3.42,-0.37,984.52,32.72
3440241,-0.07,0.01,1.14,0.12,3.3,-0.12,984.44,32.72
3440279,-0.05,0.02,1.13,-0.18,3.11,0.18,984.42,32.72
3440317,-0.04,0.02,1.1,-0.24,2.99,0.55,984.53,32.73
3440367,-0.06,0.02,1.1,-0.37,2.14,0.98,984.49,32.71
3440405,-0.05,0.0,1.12,-0.37,2.56,1.4,984.41,32.72
3440443,-0.06,-0.01,1.14,-0.06,1.77,1.77,984.36,32.73
3440481,-0.06,-0.0,1.1,-0.49,1.83,1.83,984.31,32.72
3440520,-0.05,0.02,1.13,0.18,0.24,2.14,984.43,32.71
3440558,-0.05,0.01,1.11,-0.73,2.14,2.5,984.52,32.72
3440596,-0.08,-0.01,1.08,-0.49,0.37,2.56,984.59,32.72
3440634,-0.06,0.02,1.14,-0.79,0.79,2.87,984.46,32.71
3440672,-0.04,-0.0,1.07,-1.16,1.65,2.99,984.52,32.71
3440748,-0.04,-0.01,1.08,-0.98,1.71,2.99,984.53,32.68
3440786,-0.02,0.01,1.08,-0.55,0.85,3.17,984.52,32.7
3440824,-0.02,0.02,1.07,-0.85,1.95,3.11,984.47,32.7
3440914,-0.04,0.01,1.07,-0.37,1.71,3.11,984.52,32.67
3440952,-0.02,0.01,1.09,0.0,0.79,3.17,984.62,32.68
3440990,-0.0,0.01,1.03,-0.06,2.14,2.87,984.53,32.69
3441028,-0.01,0.03,1.07,0.24,1.89,2.75,984.42,32.69
3441066,-0.03,0.0,1.05,0.55,2.99,2.62,984.49,32.69
3441104,-0.02,0.02,1.07,0.55,1.95,2.32,984.49,32.69
3441142,-0.0,0.03,1.09,0.92,2.69,2.32,984.45,32.69
3441192,-0.02,0.02,1.06,0.79,2.56,2.32,984.56,32.7
3441230,-0.02,0.03,1.11,1.46,2.5,2.08,984.35,32.7
3441268,-0.02,0.01,1.06,1.28,3.91,1.89,984.6,32.69
3441306,-0.02,0.04,1.07,1.89,2.81,1.71,984.5,32.69
3441344,-0.02,0.02,1.08,2.2,3.36,1.77,984.48,32.7
3441382,-0.01,0.02,1.06,2.69,3.54,1.71,984.54,32.7
3441421,-0.02,0.03,1.03,2.99,3.66,1.71,984.56,32.71
3441459,-0.03,0.04,1.04,2.99,4.33,1.89,984.45,32.72
3441497,-0.02,0.03,1.05,2.99,4.03,1.77,984.57,32.7
3441535,-0.03,0.03,1.05,3.05,3.54,1.77,984.4,32.71
3441585,-0.02,-0.01,1.02,2.87,4.88,1.95,984.45,32.7
3441623,-0.01,0.03,1.02,2.62,5.13,2.01,984.52,32.72
3441661,-0.05,0.03,0.99,2.62,5.92,2.01,984.35,32.7
3441699,-0.05,-0.0,0.98,2.81,4.7,2.2,984.5,32.71
3441737,-0.03,0.01,1.03,2.56,5.13,2.2,984.48,32.71
3441776,-0.02,0.0,0.95,2.26,5.49,2.2,984.54,32.71
3441814,-0.03,0.02,1.01,2.38,4.88,2.5,984.56,32.72
3441852,-0.01,0.01,1.0,2.5,5.86,2.44,984.34,32.72
3441890,-0.02,-0.0,1.04,2.69,5.13,2.38,984.59,32.72
3441928,-0.02,0.01,1.04,3.05,4.33,2.62,984.52,32.71
3441978,-0.05,-0.01,1.08,4.03,3.48,2.69,984.53,32.71
3442016,-0.01,0.01,1.0,3.66,5.37,2.69,984.62,32.71
3442054,-0.04,0.01,1.02,4.52,4.09,2.69,984.58,32.71
3442092,-0.03,-0.02,0.97,4.52,4.39,2.81,984.5,32.72
3442130,-0.01,-0.01,0.94,4.52,3.42,2.69,984.59,32.71
3442168,-0.03,-0.0,0.98,4.39,4.09,2.69,984.65,32.73
3442207,-0.0,-0.01,0.9,3.66,4.27,2.69,984.73,32.72
3442245,-0.02,-0.01,0.95,3.97,2.93,2.75,984.74,32.73
3442283,-0.04,-0.03,0.94,3.78,3.72,2.62,984.54,32.73
3442333,-0.02,-0.02,0.94,2.93,4.39,2.93,984.59,32.72
3442371,-0.01,-0.01,0.98,2.99,3.11,2.69,984.58,32.7
3442409,-0.04,-0.03,0.95,2.93,3.3,2.81,984.66,32.7
3442447,-0.02,-0.03,0.93,2.87,4.15,2.69,984.71,32.72
3442485,-0.0,-0.03,0.94,2.69,3.23,2.81,984.53,32.72
3442523,-0.03,-0.03,0.9,2.2,4.09,2.75,984.71,32.73
3442562,-0.02,-0.03,0.88,2.01,3.54,2.56,984.47,32.73
3442600,-0.01,-0.02,0.87,1.65,3.48,2.5,984.62,32.73
3442638,-0.04,-0.03,0.88,1.59,2.75,2.5,984.57,32.73
3442676,-0.02,-0.03,0.87,1.04,3.85,2.38,984.51,32.72
3442726,-0.01,-0.01,0.87,0.85,2.99,2.26,984.49,32.71
3442764,-0.03,-0.02,0.92,0.67,4.33,2.38,984.52,32.72
3442802,-0.0,-0.0,0.89,-0.12,4.09,2.26,984.59,32.71
3442840,-0.03,0.0,1.0,0.43,3.85,2.2,984.47,32.72
3442878,-0.03,-0.01,0.94,-0.18,5.37,2.32,984.57,32.73
3442917,-0.03,0.03,0.98,0.31,3.36,2.5,984.6,32.72
3442955,-0.01,0.02,0.94,-0.31,4.7,2.44,984.38,32.74
3442993,-0.0,0.01,0.96,-0.06,4.03,2.62,984.54,32.73
3443031,-0.03,-0.01,0.94,0.12,5.0,2.38,984.39,32.72
3443069,-0.02,0.0,0.96,0.24,3.72,2.5,984.41,32.73
3443119,-0.01,0.03,1.02,0.55,4.03,2.5,984.33,32.72
3443157,-0.03,0.03,1.02,0.73,4.39,2.2,984.35,32.73
3443195,-0.04,0.01,1.03,0.79,4.46,2.2,984.37,32.73
3443233,-0.01,0.02,1.0,0.92,5.19,2.26,984.37,32.73
3443271,-0.02,0.02,0.99,1.53,4.94,2.26,984.4,32.73
3443309,-0.01,0.03,0.97,1.4,5.49,2.01,984.38,32.73
3443348,-0.03,0.02,0.98,1.53,5.92,1.89,984.51,32.71
3443386,-0.04,0.0,0.93,1.83,4.82,1.89,984.47,32.74
3443424,-0.04,0.01,0.98,1.4,4.94,2.01,984.4,32.73
3443462,-0.02,0.03,0.99,1.83,5.49,2.08,984.52,32.72
3443512,-0.01,0.02,0.96,2.01,4.58,2.08,984.57,32.72
3443550,-0.03,0.01,1.0,2.2,5.25,2.14,984.46,32.72
3443588,-0.04,0.0,0.98,2.14,5.49,2.26,984.57,32.72
3443626,-0.03,0.04,0.99,2.62,4.7,2.32,984.47,32.72
3443664,-0.01,0.05,0.93,1.71,6.71,2.38,984.42,32.72
3443702,-0.02,0.02,0.98,2.5,6.04,2.38,984.42,32.73
3443740,-0.04,0.01,0.97,1.89,6.84,2.56,984.6,32.73
3443778,-0.02,0.02,0.94,1.83,5.62,2.62,984.36,32.72
3443817,-0.02,0.03,0.98,1.71,6.9,2.5,984.51,32.71
3443855,-0.02,0.05,0.96,1.77,6.71,2.81,984.45,32.71
3443932,-0.03,0.01,1.01,1.83,6.9,3.05,984.44,32.69
3443970,-0.0,0.02,1.01,1.83,6.84,3.11,984.6,32.72
3444008,-0.03,0.05,1.01,1.89,7.08,3.3,984.47,32.7
3444098,-0.02,0.02,0.96,2.08,7.2,3.6,984.39,32.68
3444136,-0.02,0.02,1.0,2.38,6.59,3.85,984.38,32.68
3444174,-0.02,0.03,0.94,1.46,7.26,3.85,984.42,32.7
3444212,-0.02,0.04,0.96,2.38,6.41,3.78,984.6,32.7
3444250,-0.02,0.03,0.91,1.71,7.2,4.15,984.49,32.71
3444288,-0.01,0.03,0.95,2.32,5.8,4.21,984.37,32.71
3444338,-0.02,0.02,0.92,2.08,6.47,3.91,984.42,32.7
3444376,-0.02,0.04,0.96,2.56,4.88,4.15,984.54,32.7
3444414,-0.02,0.02,0.95,2.14,6.04,4.21,984.39,32.7
3444452,-0.02,0.04,0.95,2.26,5.55,4.21,984.35,32.7
3444491,-0.01,0.02,0.96,2.93,5.19,4.33,984.46,32.71
3444529,0.16,0.17,1.68,-0.12,4.21,3.85,984.47,32.72
3444567,0.16,0.19,1.59,8.3,8.91,3.54,984.48,32.71
3444605,0.12,-0.02,0.77,9.83,14.59,3.91,984.33,32.72
3444643,-0.0,-0.02,0.63,12.7,4.82,4.27,984.44,32.73
3444681,-0.02,0.07,0.92,13.67,1.71,3.3,984.42,32.73
3444731,0.04,-0.25,1.8,11.72,-1.71,3.42,984.59,32.71
3444769,0.36,0.26,1.75,5.19,5.31,4.88,984.61,32.72
3444807,0.05,0.02,2.26,29.48,-9.09,2.87,984.55,32.72
3444845,0.18,-0.21,1.21,10.13,10.31,2.87,984.56,32.72
3444883,-0.11,0.13,0.94,21.24,-0.67,3.05,984.42,32.72
3444922,-0.2,-0.12,-0.34,-14.47,20.51,3.72,984.51,32.71
3444960,0.03,-0.08,0.49,9.16,5.31,2.69,984.48,32.72
3444998,-0.09,-0.18,0.04,11.54,16.24,2.14,984.54,32.72
3445036,-0.11,-0.11,0.79,5.74,5.25,2.69,984.6,32.72
3445074,-0.05,-0.14,0.96,7.08,7.2,1.16,984.51,32.72
3445124,0.15,-0.03,1.57,2.32,-4.82,2.81,984.66,32.72
3445162,0.11,-0.1,0.02,-11.23,16.78,0.55,984.57,32.72
3445200,0.06,-0.07,1.17,9.09,-5.62,1.65,984.59,32.72
3445238,0.05,-0.25,1.37,-6.35,6.96,0.61,984.58,32.72
3445276,0.33,-0.33,1.55,-2.2,7.2,1.28,984.52,32.72
3445315,0.13,-0.18,1.92,-1.04,0.98,1.22,984.6,32.72
3445353,0.19,-0.38,1.13,-5.55,13.06,1.28,984.63,32.72
3445391,0.11,-0.28,1.16,-7.93,12.33,1.16,984.5,32.72
3445429,0.04,-0.3,0.79,-10.38,12.39,0.67,984.67,32.72
3445479,0.01,-0.05,1.06,-9.03,5.07,0.55,984.57,32.71
3445517,0.16,-0.17,0.73,-8.36,8.91,0.79,984.43,32.71
3445555,0.1,-0.1,0.81,-10.07,5.43,0.61,984.55,32.7
3445593,-0.03,0.02,1.12,-2.93,-0.24,0.18,984.61,32.7
3445631,0.12,-0.29,0.67,-4.64,7.32,0.31,984.64,32.72
3445669,0.03,-0.17,0.9,-1.83,3.97,0.18,984.6,32.71
3445708,-0.04,-0.08,0.84,-7.69,7.39,-0.31,984.59,32.7
3445746,0.01,-0.06,0.99,-5.19,9.03,0.0,984.43,32.72
3445784,0.1,0.0,1.02,-4.39,10.99,-0.24,984.54,32.73
3445822,-0.01,-0.08,0.86,-2.75,2.81,-0.49,984.55,32.7
3445872,-0.01,-0.11,0.97,-3.72,7.45,-0.31,984.54,32.7
3445910,-0.06,-0.09,0.48,-4.15,12.94,-0.24,984.48,32.71
3445948,-0.08,-0.08,0.86,-4.7,5.19,-0.37,984.53,32.71
3445986,-0.08,-0.35,1.54,10.56,-0.43,0.06,984.52,32.72
3446024,0.01,-0.2,1.45,4.76,8.67,-0.24,984.42,32.72
3446062,-0.0,-0.28,0.47,15.2,3.05,-0.31,984.48,32.71
3446100,-0.05,-0.05,1.11,13.61,-7.93,-0.49,984.42,32.72
3446139,-0.01,-0.3,0.86,24.41,9.89,0.37,984.45,32.72
3446177,-0.11,-0.13,1.36,16.05,-10.07,-0.43,984.46,32.72
3446227,-0.09,-0.39,0.96,7.32,6.53,-0.73,984.46,32.7
3446265,0.02,-0.17,1.69,15.99,-6.96,-0.49,984.45,32.71
3446303,-0.03,-0.39,0.24,6.47,15.2,-0.43,984.45,32.72
3446341,0.05,-0.07,1.02,8.36,-5.8,0.18,984.44,32.71
3446379,0.08,-0.25,0.46,11.54,0.43,0.12,984.51,32.71
3446417,-0.02,-0.1,0.82,-9.7,7.57,-0.31,984.45,32.72
3446455,-0.03,-0.19,0.82,7.81,4.94,-0.31,984.36,32.72
3446494,0.02,-0.43,1.52,3.66,4.88,-0.12,984.34,32.71
3446532,-0.04,-0.33,1.38,-0.18,6.77,0.0,984.4,32.71
3446570,-0.23,-0.4,1.4,3.66,7.69,0.12,984.45,32.71
3446620,0.09,-0.16,1.18,-2.26,4.94,0.43,984.48,32.7
3446658,-0.12,-0.27,0.18,-3.05,10.07,0.18,984.4,32.71
3446696,-0.05,-0.07,0.95,-4.76,-2.08,0.24,984.37,32.71
3446734,-0.05,-0.16,1.03,4.27,3.48,0.67,984.4,32.7
3446772,-0.08,-0.13,0.65,-10.31,7.87,0.85,984.48,32.72
3446810,0.05,-0.32,1.2,0.43,-0.18,0.55,984.35,32.72
3446848,-0.07,-0.36,1.15,0.06,7.51,0.67,984.38,32.71
3446886,-0.13,-0.11,0.95,1.16,-1.95,0.79,984.51,32.71
3446924,-0.07,-0.18,1.01,2.38,7.57,0.67,984.36,32.72
3447000,-0.03,-0.27,1.21,8.54,-2.87,0.85,984.37,32.69
3447038,0.03,-0.28,1.05,4.27,1.46,0.85,984.37,32.7
3447077,0.03,-0.21,1.08,6.71,-4.15,1.1,984.29,32.7
3447166,-0.16,-0.24,1.16,8.3,-1.22,1.46,984.33,32.68
3447204,-0.03,-0.19,0.9,-0.24,10.13,1.77,984.3,32.68
3447242,-0.11,-0.12,1.05,4.64,-3.36,1.77,984.46,32.69
3447280,-0.11,-0.25,0.61,6.23,7.75,2.26,984.3,32.69
3447319,-0.05,-0.35,0.64,3.48,0.73,1.77,984.3,32.7
3447357,-0.1,-0.19,1.22,5.0,-1.1,2.38,984.34,32.69
3447395,-0.03,-0.36,0.8,5.25,10.62,2.62,984.32,32.69
3447445,0.03,-0.14,1.19,2.32,-3.11,2.93,984.32,32.68
3447483,0.02,-0.26,0.69,8.54,4.21,2.81,984.3,32.69
3447521,-0.03,-0.23,1.31,1.04,-2.75,2.75,984.35,32.7
3447559,0.04,-0.17,0.98,-0.98,6.04,3.42,984.24,32.68
3447597,0.12,-0.26,0.49,-5.25,0.31,2.93,984.3,32.69
3447635,-0.0,-0.29,1.16,-0.24,8.18,4.09,984.31,32.71
3447674,0.02,-0.28,0.57,-22.52,16.6,3.72,984.33,32.7
3447712,0.08,-0.05,1.6,-2.5,-0.79,3.6,984.37,32.71
3447750,0.02,-0.51,1.0,-2.81,12.94,4.15,984.28,32.68
3447800,0.16,-0.14,1.13,2.38,-3.85,3.78,984.45,32.69
3447838,0.0,-0.25,0.52,5.0,10.56,3.78,984.36,32.69
3447876,0.07,-0.17,0.99,3.11,-3.54,3.66,984.26,32.7
3447914,0.01,-0.13,0.7,8.67,8.73,3.66,984.24,32.69
3447952,0.16,0.01,0.86,-14.95,9.52,3.85,984.3,32.71
3447990,-0.04,-0.06,1.12,4.76,-0.55,3.66,984.19,32.69
3448029,-0.04,-0.49,0.58,0.85,4.58,3.11,984.28,32.69
3448067,-0.06,-0.07,1.49,1.95,-1.46,4.09,984.22,32.7
3448105,-0.17,-0.37,0.81,5.43,2.44,2.75,984.22,32.71
3448143,0.08,-0.08,1.48,4.21,-0.55,3.48,984.25,32.69
3448193,0.06,-0.38,1.01,8.3,4.33,3.3,984.15,32.68
3448231,0.08,-0.21,1.36,8.42,-3.3,3.48,984.18,32.7
3448269,-0.01,-0.15,1.12,10.19,9.09,3.66,984.17,32.69
3448307,0.01,-0.27,0.87,7.87,1.71,3.36,984.22,32.7
3448345,0.02,-0.07,0.73,4.52,6.71,3.97,984.23,32.71
3448384,0.03,-0.29,0.83,0.37,10.01,3.78,984.11,32.71
3448422,0.07,-0.27,1.06,0.49,0.18,3.72,984.1,32.69
3448460,0.16,-0.28,1.01,1.65,3.6,3.85,984.2,32.71
3448498,-0.0,-0.31,0.83,0.49,10.5,4.15,984.2,32.7
3448536,0.08,-0.21,0.82,-1.95,3.85,4.03,984.23,32.72
3448586,0.08,-0.2,1.25,-4.94,7.14,3.91,984.08,32.71
3448624,0.03,-0.21,1.44,-3.6,1.77,4.09,984.18,32.71
3448662,0.07,-0.25,0.99,-0.06,7.08,4.21,984.21,32.7
3448701,-0.05,-0.23,1.18,-0.06,1.59,4.15,984.2,32.71
3448739,0.13,-0.35,1.03,0.24,8.36,4.39,984.1,32.71
3448777,0.1,-0.22,1.18,1.16,0.98,4.03,984.07,32.7
3448815,-0.06,-0.22,0.93,1.04,7.69,4.21,984.09,32.71
3448853,0.06,-0.27,0.97,2.5,3.6,3.91,984.15,32.72
3448891,-0.01,-0.2,0.94,4.33,-0.43,3.97,984.16,32.72
3448941,0.07,-0.1,0.84,-0.73,-0.73,4.03,984.13,32.7
3448979,0.05,-0.3,1.36,1.83,3.48,3.91,984.15,32.72
3449017,0.06,-0.35,0.96,-16.66,8.3,4.03,984.18,32.72
3449056,0.02,-0.25,0.75,1.28,1.53,4.09,984.07,32.72
3449094,-0.0,-0.32,1.28,2.44,-1.28,4.15,984.13,32.71
3449132,0.06,-0.24,1.05,-0.67,9.95,4.21,984.1,32.73
3449170,0.01,-0.18,0.9,2.69,8.3,4.15,984.07,32.71
3449208,0.05,-0.17,0.97,0.0,5.07,4.15,984.1,32.72
3449246,-0.01,-0.07,0.83,8.42,2.93,4.09,984.05,32.71
3449284,-0.02,-0.21,0.4,-1.89,7.02,3.78,984.05,32.73
3449334,0.0,0.04,1.11,10.19,-1.28,4.15,984.0,32.7
3449372,-0.01,-0.18,0.98,-6.77,9.46,4.27,984.04,32.72
3449410,-0.01,-0.16,1.3,10.74,-0.18,4.03,984.07,32.72
3449448,0.09,-0.12,1.2,-4.27,4.76,4.46,984.03,32.73
3449487,-0.06,-0.12,1.28,10.07,2.32,4.46,984.0,32.72
3449525,0.01,-0.23,0.91,-2.99,7.51,4.21,984.04,32.72
3449563,-0.01,-0.21,0.81,0.49,3.3,4.39,984.09,32.72
3449601,-0.07,-0.11,0.62,-3.85,2.99,4.46,984.03,32.73
3449639,-0.02,-0.13,0.67,-6.1,4.03,4.27,983.99,32.71
3449689,0.04,-0.2,1.25,-1.53,-1.34,4.46,984.0,32.72
3449727,-0.01,-0.2,1.23,-0.43,2.69,4.46,983.98,32.71
3449765,0.06,-0.3,1.47,-1.83,-1.71,4.39,983.99,32.73
3449803,0.01,-0.14,1.2,1.22,8.0,4.58,984.01,32.72
3449841,0.02,-0.16,0.86,1.83,2.44,4.46,984.04,32.73
3449880,-0.01,-0.19,1.02,5.74,1.65,4.39,983.98,32.74
3449918,0.04,-0.2,0.98,-0.61,10.68,4.27,984.02,32.73
3449956,0.01,-0.25,1.33,8.12,-3.11,4.7,984.08,32.73
3449994,-0.0,-0.29,1.12,1.28,8.06,4.46,983.98,32.72
3450032,-0.0,-0.15,1.12,5.37,1.53,4.46,983.95,32.74
3450108,0.01,-0.07,0.53,6.04,2.2,4.58,983.94,32.7
3450146,-0.07,-0.1,0.72,7.02,0.98,4.64,984.03,32.71
3450184,-0.07,-0.16,0.72,2.26,5.19,4.7,983.93,32.71
3450273,-0.03,-0.07,1.22,-5.07,9.16,4.82,983.99,32.68
3450312,-0.03,-0.08,1.29,-0.37,-1.1,4.82,984.02,32.69
3450350,-0.04,-0.17,0.9,3.97,7.57,5.31,983.93,32.7
3450388,-0.01,-0.02,0.77,1.65,-0.43,5.07,983.98,32.7
3450426,-0.03,0.0,1.0,5.25,-2.81,4.82,983.93,32.71
3450464,0.06,-0.05,0.94,2.44,2.93,5.07,983.99,32.72
3450502,-0.01,-0.1,1.0,6.84,-2.01,5.0,983.96,32.71
3450552,0.05,-0.14,1.09,3.36,0.92,5.25,983.96,32.7
3450590,-0.02,-0.1,1.05,5.8,2.81,5.13,983.97,32.71
3450628,0.04,-0.03,0.88,-7.75,9.52,5.13,983.96,32.71
3450666,0.06,-0.12,1.03,0.79,0.12,5.19,983.91,32.71
3450704,0.03,-0.25,0.59,-10.13,7.69,5.49,983.97,32.73
3450743,0.1,0.02,1.47,-5.13,-2.2,5.37,983.98,32.72
3450781,0.02,-0.24,1.09,-4.64,4.88,5.55,983.91,32.73
3450819,-0.04,-0.2,1.17,-3.66,-3.05,5.68,983.97,32.73
3450857,0.02,-0.02,1.34,2.5,3.66,5.68,983.92,32.72
3450907,-0.02,-0.16,0.78,1.4,-3.48,5.43,983.97,32.71
3450945,-0.02,-0.13,0.88,8.67,1.34,5.74,983.99,32.72
3450983,0.11,-0.03,0.92,-5.37,8.85,5.55,984.03,32.72
3451021,0.03,-0.1,0.88,5.74,0.92,5.43,983.99,32.72
3451059,0.01,0.0,1.38,-2.08,4.88,5.62,983.98,32.72
3451098,0.01,-0.11,1.02,8.61,4.21,5.62,983.96,32.72
3451136,0.0,-0.21,0.61,9.83,7.69,6.1,984.04,32.74
3451174,-0.02,-0.03,1.22,5.43,-6.53,5.92,984.06,32.73
3451212,-0.2,-0.28,0.89,0.43,8.73,6.47,983.96,32.73
3451250,0.17,-0.08,0.44,-2.62,2.38,7.63,983.9,32.72
3451300,-0.15,0.1,1.2,1.28,-2.5,8.18,983.88,32.72
3451338,0.02,-0.22,0.69,-5.74,16.11,8.79,983.89,32.72
3451376,-0.09,-0.12,1.16,-2.87,-0.18,8.36,983.99,32.73
3451414,-0.17,-0.09,1.47,-4.03,5.86,7.93,983.96,32.72
3451452,0.03,-0.16,1.36,-0.06,5.92,8.24,983.92,32.72
3451491,0.0,0.15,1.57,-0.98,3.05,7.75,983.95,32.72
3451529,0.17,-0.1,1.08,2.44,5.92,8.54,983.96,32.73
3451567,0.11,-0.12,0.55,4.03,8.85,9.4,983.97,32.73
3451605,0.01,-0.15,0.93,8.24,3.17,8.97,983.9,32.72
3451643,-0.02,-0.25,0.76,8.24,8.54,9.09,983.87,32.72
3451693,0.09,-0.2,1.25,10.31,-1.71,8.85,983.98,32.72
3451731,0.01,-0.18,0.96,2.81,4.21,8.67,983.94,32.72
3451769,-0.02,-0.21,1.04,4.21,-1.77,8.85,983.87,32.73
3451807,0.03,-0.09,0.82,-2.26,7.63,9.16,983.88,32.73
3451845,0.02,-0.23,0.67,-3.3,2.32,8.97,983.81,32.73
3451883,0.01,-0.07,0.87,-4.33,3.78,9.03,983.89,32.73
3451921,-0.01,-0.12,0.78,-1.28,2.75,9.4,983.86,32.73
3451960,0.01,0.03,1.29,-0.24,-0.61,8.91,983.88,32.72
3451998,-0.04,-0.23,1.17,-3.48,8.36,8.73,983.89,32.73
3452047,-0.02,-0.25,1.38,5.0,2.69,8.97,983.93,32.71
3452086,0.02,0.03,1.49,2.93,5.25,8.42,983.89,32.72
3452124,-0.09,-0.26,0.52,-5.55,8.36,9.58,983.94,32.72
3452162,-0.12,-0.17,1.11,12.02,3.11,10.68,983.83,32.73
3452200,0.26,-0.48,0.51,-15.08,15.75,9.95,983.88,32.73
3452238,0.03,-0.02,1.61,3.3,-5.19,10.93,983.96,32.73
3452276,-0.15,-0.19,0.61,-7.45,11.72,9.7,983.81,32.73
3452314,0.17,-0.15,0.83,2.93,0.98,9.46,983.88,32.74
3452352,0.03,-0.01,1.28,2.32,-2.69,8.48,983.82,32.74
3452391,0.04,-0.11,0.03,-27.47,19.71,8.67,983.84,32.73
3452440,0.14,0.11,1.03,-11.72,-3.54,10.44,983.83,32.71
3452478,0.05,-0.1,1.73,-2.93,-4.76,8.0,983.83,32.72
3452517,-0.1,-0.43,1.87,0.67,-0.37,9.46,983.91,32.73
3452555,-0.18,-0.15,1.27,-5.43,0.92,10.07,983.9,32.74
3452593,0.16,0.09,1.8,-4.58,3.54,8.97,983.89,32.71
3452631,0.16,-0.27,0.31,-0.79,20.08,8.79,983.85,32.72
3452669,0.03,-0.03,1.13,5.43,-8.79,9.22,983.89,32.72
3452707,0.05,0.04,0.19,6.29,12.02,9.46,983.83,32.74
3452745,0.04,-0.09,0.53,-4.58,3.85,8.73,983.91,32.74
3452795,0.06,0.0,0.82,7.93,5.74,8.73,983.96,32.73
3452833,0.17,0.16,0.94,-13.49,10.25,9.83,983.94,32.73
3452871,-0.13,0.09,1.53,7.93,-8.61,8.0,983.9,32.73
3452909,-0.09,-0.18,1.18,-9.77,6.04,8.06,983.91,32.73
3452948,0.03,0.05,1.51,11.29,-5.92,8.97,983.9,32.73
3452986,-0.14,-0.44,0.56,23.13,8.12,8.79,983.8,32.73
3453024,0.03,0.15,1.8,9.89,-3.91,9.4,983.84,32.73
3453062,-0.37,-0.37,0.36,39.61,6.1,10.99,983.85,32.73
3453100,0.07,0.2,1.59,2.08,-0.37,9.34,983.89,32.74
3453138,-0.06,-0.09,0.94,23.62,2.38,10.07,983.84,32.73
3453214,-0.05,-0.09,0.61,4.27,0.55,8.48,983.94,32.71
3453252,0.06,-0.11,0.51,3.17,-3.05,8.79,983.87,32.72
3453290,0.05,0.09,0.86,-7.75,4.21,9.16,983.88,32.72
3453380,0.07,-0.08,1.38,-5.37,-4.64,8.54,983.87,32.7
3453418,-0.12,-0.07,1.55,3.11,-5.19,9.89,983.89,32.7
3453456,0.29,0.03,1.54,-22.46,19.35,8.91,983.92,32.71
3453494,-0.11,-0.12,1.74,-3.11,-4.46,8.61,983.91,32.71
3453532,-0.06,0.03,1.05,-2.69,9.95,10.44,983.85,32.71
3453570,0.06,-0.14,0.25,-3.05,8.48,11.05,983.86,32.72
3453608,0.04,0.11,1.25,1.95,-5.98,9.4,983.84,32.72
3453658,-0.12,-0.14,0.44,10.38,-0.06,9.09,983.82,32.7
3453696,-0.04,0.03,1.26,3.11,-3.97,9.95,983.82,32.7
3453735,0.03,-0.04,0.89,17.46,1.16,9.09,983.83,32.73
3453773,-0.12,-0.21,1.32,13.98,-4.64,8.91,983.82,32.72
3453811,-0.06,-0.11,1.57,13.12,-3.66,10.25,983.81,32.72
3453849,-0.1,-0.14,0.83,2.5,4.94,9.83,983.81,32.72
3453887,-0.11,-0.13,1.24,7.45,-1.34,9.34,983.89,32.72
3453925,0.12,0.12,0.72,-14.83,19.23,9.58,983.83,32.73
3453963,0.06,0.09,0.74,3.42,-0.73,9.58,983.82,32.73
3454013,-0.11,-0.08,0.94,14.71,-5.13,9.46,983.87,32.7
3454051,0.01,-0.07,0.86,-2.81,10.38,9.7,983.86,32.72
3454089,-0.03,-0.06,1.05,13.73,3.05,9.46,983.86,32.73
3454128,-0.06,-0.07,0.96,-0.67,1.95,8.73,983.85,32.71
3454166,-0.13,0.08,1.14,7.2,2.32,9.22,983.82,32.72
3454204,0.01,-0.12,0.47,-2.99,10.8,9.09,983.83,32.72
3454242,0.05,0.06,1.47,1.77,-2.26,8.73,983.85,32.72
3454280,-0.19,-0.3,0.94,21.12,-1.4,9.46,983.8,32.72
3454318,0.04,0.08,1.24,0.61,-1.28,8.73,983.89,32.73
3454356,0.0,-0.02,1.11,12.21,1.65,8.73,983.79,32.73
3454406,0.01,-0.17,0.75,7.2,0.85,8.24,983.83,32.7
3454444,-0.04,-0.13,0.98,10.44,5.43,8.36,983.77,32.72
3454482,0.04,0.05,1.22,-12.94,10.86,7.87,983.87,32.73
3454520,-0.08,-0.07,1.15,11.66,-1.83,7.75,983.86,32.72
3454559,-0.0,-0.12,0.53,-6.47,8.54,8.42,983.87,32.72
3454597,-0.13,-0.0,1.22,6.29,-4.7,7.93,983.83,32.73
3454635,-0.16,-0.34,0.54,13.61,2.32,7.69,983.84,32.73
3454673,-0.11,0.08,1.29,-0.18,-6.29,8.12,983.89,32.73
3454711,-0.04,-0.18,0.88,14.4,-1.53,8.24,983.75,32.72
3454761,-0.1,-0.1,1.14,0.18,-6.65,7.57,983.84,32.72
3454799,-0.35,-0.26,0.4,9.83,1.89,8.0,983.83,32.73
3454837,-0.03,-0.14,0.67,-3.54,-1.28,8.73,983.78,32.73
3454875,-0.1,-0.23,0.31,5.55,16.91,9.4,983.78,32.72
3454913,-0.07,0.15,1.34,-4.33,0.92,8.97,983.84,32.72
3454952,-0.17,-0.1,0.56,-0.24,8.91,9.58,983.85,32.73
3454990,-0.07,0.09,1.17,-0.73,2.62,10.19,983.78,32.73
3455028,-0.06,-0.14,1.21,2.69,7.26,8.61,983.82,32.73
3455066,-0.13,-0.01,1.75,-1.77,8.48,10.13,983.89,32.73
3455104,-0.13,-0.25,1.15,4.09,8.91,11.66,983.81,32.74
3455154,0.02,-0.1,1.32,2.38,7.02,10.56,983.82,32.72
3455192,-0.09,-0.07,0.97,3.66,11.41,10.86,983.76,32.72
3455230,0.0,-0.12,0.22,-2.93,18.25,10.8,983.87,32.73
3455268,0.0,-0.05,0.94,5.55,-0.67,10.44,983.8,32.73
3455307,0.06,-0.1,0.51,12.94,12.63,9.58,983.75,32.73
3455345,-0.06,-0.06,0.91,1.1,0.92,10.19,983.83,32.73
3455383,-0.04,-0.03,1.29,6.65,4.52,10.93,983.8,32.73
3455421,-0.03,-0.2,1.21,-15.87,15.99,9.89,983.85,32.74
3455459,-0.04,-0.0,1.46,-0.55,-0.18,10.13,983.82,32.73
3455509,0.11,-0.06,0.53,-25.82,15.99,10.07,983.79,32.72
3455547,-0.0,-0.0,1.15,-4.27,-2.26,9.46,983.8,32.71
3455585,0.06,-0.13,1.21,5.43,-5.0,9.52,983.72,32.73
3455623,0.05,-0.22,1.1,-4.46,14.34,9.95,983.79,32.73
3455661,-0.06,-0.07,1.49,6.53,2.2,9.83,983.86,32.74
3455699,0.02,0.08,1.4,-8.73,12.82,9.64,983.79,32.73
3455737,-0.04,-0.09,0.74,7.26,5.43,9.83,983.82,32.73
3455775,0.02,-0.0,0.44,2.14,8.91,9.22,983.81,32.74
3455814,-0.0,0.06,0.6,6.96,2.38,9.03,983.74,32.72
3455852,-0.05,-0.16,0.81,10.93,-0.98,9.03,983.78,32.74
3455901,-0.01,-0.12,1.24,8.85,0.49,9.4,983.78,32.72
3455940,-0.07,-0.15,1.21,6.16,5.0,9.28,983.77,32.73
3455978,0.01,-0.11,1.41,1.71,5.0,8.91,983.8,32.73
3456016,-0.03,-0.14,1.02,4.33,3.66,8.91,983.79,32.74
3456054,0.08,-0.17,0.55,-4.39,10.07,8.67,983.8,32.74
3456092,-0.03,-0.05,0.76,-1.89,0.24,8.3,983.8,32.74
3456130,0.0,-0.13,0.75,-0.92,2.26,8.42,983.69,32.73
3456168,-0.03,-0.09,0.93,-6.35,3.3,8.42,983.77,32.74
3456206,-0.07,-0.0,1.18,-3.23,2.08,8.24,983.75,32.73
3456282,-0.05,-0.07,1.39,-1.1,-2.32,8.36,983.83,32.69
3456320,0.01,-0.0,1.24,-9.7,6.96,7.57,983.8,32.72
3456358,-0.01,-0.01,0.97,-2.62,4.33,7.75,983.79,32.72
3456448,-0.07,0.0,1.15,2.56,-1.46,7.75,983.79,32.7
3456486,-0.06,-0.04,0.98,-1.16,2.08,7.81,983.83,32.71
3456524,-0.08,-0.05,1.33,4.39,-0.85,7.69,983.82,32.7
3456562,-0.01,-0.13,1.31,4.88,3.05,7.81,983.77,32.71
3456600,0.03,-0.12,1.27,5.0,3.48,7.63,983.81,32.73
3456638,-0.09,-0.08,1.14,5.8,1.53,7.69,983.84,32.73
3456676,-0.0,-0.06,1.1,13.18,1.4,8.0,983.73,32.72
3456726,-0.17,-0.14,1.07,8.12,-2.01,8.36,983.8,32.72
3456764,-0.2,-0.25,0.43,10.93,10.93,8.18,983.75,32.73
3456802,-0.1,-0.02,1.11,0.49,-7.26,8.85,983.75,32.72
3456841,-0.15,-0.22,0.73,20.2,0.98,8.61,983.72,32.72
3456879,0.09,0.1,0.57,3.48,-0.24,7.57,983.82,32.72
3456917,-0.03,-0.03,0.66,1.46,6.59,6.53,983.75,32.73
3456955,-0.04,-0.26,0.59,-3.36,-1.46,7.26,983.85,32.73
3456993,-0.2,-0.11,1.55,4.64,-6.71,9.4,983.81,32.73
3457031,-0.23,-0.25,0.76,0.79,12.51,8.48,983.8,32.73
3457081,-0.21,-0.02,1.91,-0.06,-2.81,9.64,983.82,32.72
3457119,-0.31,-0.37,0.98,25.09,0.06,10.31,983.75,32.73
3457158,0.02,-0.05,0.39,7.32,1.83,9.46,983.86,32.73
3457196,-0.04,0.02,1.09,3.6,-0.24,9.28,983.82,32.73
3457234,-0.09,-0.15,0.2,20.02,-0.61,10.01,983.78,32.72
3457272,-0.07,0.16,1.01,-0.79,2.38,9.46,983.77,32.73
3457310,-0.09,-0.19,0.7,22.52,10.01,10.01,983.74,32.73
3457348,0.02,0.16,1.46,0.98,2.93,9.83,983.85,32.72
3457386,-0.0,-0.0,1.31,9.09,2.14,9.64,983.69,32.74
3457424,-0.09,-0.44,0.57,-27.65,20.45,8.54,983.82,32.72
3457474,-0.08,-0.14,1.12,14.71,2.14,9.22,983.78,32.72
3457512,-0.02,0.03,1.06,-15.69,9.16,8.73,983.78,32.73
3457551,0.01,-0.02,0.93,4.09,0.85,8.3,983.78,32.72
3457589,0.03,-0.14,0.38,-8.48,13.61,7.81,983.76,32.73
3457627,-0.12,0.0,1.38,0.37,-3.54,8.3,983.81,32.73
3457665,-0.13,-0.31,0.84,9.09,0.18,8.06,983.77,32.73
3457703,-0.03,0.04,1.2,-5.25,2.01,7.26,983.85,32.74
3457741,-0.12,-0.06,1.14,4.58,1.16,7.75,983.82,32.73
3457779,0.03,0.1,1.24,-15.38,9.4,7.69,983.82,32.73
3457829,-0.12,-0.07,1.03,1.89,-0.73,7.87,983.82,32.72
3457867,-0.11,-0.04,1.08,2.81,7.87,7.51,983.77,32.72
3457905,-0.07,0.02,1.3,3.3,-5.13,7.45,983.81,32.73
3457943,-0.17,-0.08,1.13,9.46,0.37,7.75,983.71,32.72
3457981,-0.09,-0.08,0.77,4.15,6.59,7.45,983.86,32.74
3458020,-0.01,-0.04,1.15,7.87,0.61,6.96,983.84,32.72
3458058,-0.06,-0.05,0.61,-1.22,9.77,7.14,983.75,32.73
3458096,-0.21,0.03,1.08,8.79,-4.21,7.39,983.81,32.73
3458134,-0.14,-0.15,0.82,7.57,3.6,7.2,983.74,32.73
3458172,-0.05,-0.1,1.26,4.15,-0.85,7.08,983.8,32.73
3458222,-0.13,-0.23,0.97,-11.66,10.99,7.39,983.71,32.71
3458260,-0.08,0.01,1.06,-2.2,2.26,6.84,983.74,32.72
3458298,-0.1,-0.04,0.62,-0.98,7.2,6.47,983.76,32.72
3458336,-0.03,-0.18,0.8,-1.04,1.34,6.59,983.79,32.74
3458375,-0.04,-0.07,0.94,0.98,1.77,6.84,983.83,32.74
3458413,-0.15,-0.07,1.0,-2.01,5.68,6.59,983.81,32.74
3458451,-0.09,0.03,1.05,-0.79,-0.18,6.71,983.76,32.73
3458489,-0.08,-0.15,0.97,8.0,4.21,7.08,983.79,32.73
3458527,-0.12,-0.07,1.32,1.53,1.4,6.84,983.8,32.73
3458577,-0.14,-0.22,0.82,-0.92,11.78,6.84,983.82,32.73
3458615,-0.13,0.07,1.01,0.06,0.92,6.59,983.74,32.72
3458653,-0.09,-0.1,0.64,7.02,5.86,7.14,983.75,32.73
3458691,-0.07,-0.15,0.73,0.37,4.15,6.53,983.78,32.74
3458729,-0.15,-0.17,0.91,5.43,0.12,6.71,983.8,32.73
3458768,-0.11,-0.04,1.14,-1.22,4.03,7.14,983.77,32.73
3458806,-0.16,-0.21,0.91,2.38,4.94,6.84,983.79,32.73
3458844,-0.12,-0.03,1.01,-4.03,3.66,6.53,983.83,32.72
3458882,-0.11,-0.05,0.86,1.04,5.49,7.02,983.74,32.73
3458920,-0.06,-0.19,0.82,-1.59,5.8,7.2,983.79,32.73
3458970,-0.08,0.03,1.2,2.32,2.56,6.77,983.79,32.73
3459008,-0.18,-0.14,1.02,2.01,7.02,6.96,983.79,32.73
3459046,-0.12,-0.06,0.97,2.93,2.75,7.08,983.83,32.74
3459084,-0.06,-0.05,1.15,6.04,3.54,6.65,983.75,32.73
3459122,-0.09,-0.16,1.01,2.2,8.36,6.53,983.77,32.73
3459161,-0.15,-0.09,1.13,5.43,1.34,7.02,983.8,32.73
3459199,-0.17,-0.17,1.04,6.53,4.82,7.08,983.71,32.73
3459237,-0.12,-0.15,1.09,2.26,5.43,6.35,983.82,32.73
3459275,-0.1,-0.15,0.93,2.38,4.58,6.16,983.78,32.74
3459313,-0.08,-0.2,0.86,0.61,3.11,5.86,983.81,32.74
3459389,-0.04,-0.1,0.85,-0.55,4.27,5.13,983.74,32.71
3459427,-0.12,-0.14,1.02,1.34,1.71,5.31,983.8,32.73
3459465,-0.14,-0.21,0.85,-2.38,5.07,4.76,983.75,32.72
3459555,-0.08,-0.11,0.89,-1.71,4.94,4.46,983.79,32.7
3459593,-0.06,-0.08,0.98,0.49,1.22,4.27,983.81,32.7
3459631,-0.11,-0.09,1.06,1.22,2.93,3.97,983.82,32.72
3459669,-0.14,-0.13,1.19,1.77,2.69,3.78,983.73,32.7
3459707,-0.17,-0.14,1.19,3.3,2.32,4.03,983.75,32.74
3459745,-0.14,-0.1,1.02,1.65,2.81,3.78,983.8,32.72
3459795,-0.14,-0.18,0.98,3.85,3.91,3.91,983.78,32.72
3459833,-0.12,-0.19,0.99,4.39,3.78,3.91,983.75,32.72
3459871,-0.15,-0.15,1.03,5.07,3.11,3.91,983.79,32.72
3459910,-0.16,-0.14,0.95,4.76,3.36,3.72,983.79,32.73
3459948,-0.16,-0.13,0.92,4.21,3.05,3.72,983.79,32.74
3459986,-0.14,-0.17,0.88,3.11,3.85,3.23,983.76,32.73
3460024,-0.11,-0.16,0.94,2.81,3.3,3.05,983.75,32.73
3460062,-0.11,-0.12,0.92,1.28,4.58,2.93,983.77,32.73
3460100,-0.11,-0.09,0.96,0.49,3.66,3.11,983.81,32.73
3460139,-0.13,-0.1,0.93,-0.12,4.27,2.62,983.67,32.73
3460188,-0.13,-0.11,0.97,0.31,3.42,2.38,983.83,32.73
3460227,-0.11,-0.1,1.0,0.31,4.03,2.38,983.77,32.73
3460265,-0.1,-0.07,1.06,1.34,3.72,2.08,983.78,32.73
3460303,-0.11,-0.06,1.04,1.46,4.7,2.08,983.77,32.74
3460341,-0.13,-0.06,1.05,2.32,3.78,2.08,983.82,32.74
3460379,-0.13,-0.07,0.99,2.62,4.64,1.83,983.78,32.73
3460417,-0.13,-0.05,1.0,2.99,3.3,1.83,983.81,32.73
3460455,-0.12,-0.05,0.97,2.62,3.78,1.59,983.74,32.73
3460493,-0.1,-0.05,0.96,3.11,3.11,1.34,983.72,32.73
