timestamp,acc_x,acc_y,acc_z,rot_x,rot_y,rot_z,qfe,temp,Unnamed: 10
431,0.1,0.09,0.94,0.18,1.95,1.71,988.69,25.04,
469,0.11,0.09,0.97,3.05,3.48,1.34,988.66,25.06,
507,0.11,0.09,0.97,1.89,2.99,1.4,988.71,25.08,
545,0.11,0.09,0.97,1.89,2.81,1.4,988.71,25.1,
583,0.11,0.09,0.97,1.77,2.93,1.46,988.68,25.11,
621,0.11,0.09,0.97,1.83,2.62,1.59,988.74,25.12,
659,0.11,0.09,0.97,1.83,2.81,1.4,988.7,25.12,
698,0.11,0.09,0.97,1.95,2.75,1.65,988.71,25.14,
736,0.11,0.09,0.97,1.89,2.69,1.28,988.66,25.15,
774,0.11,0.09,0.97,1.83,2.93,1.34,988.67,25.16,
812,0.11,0.09,0.97,1.89,2.93,1.4,988.73,25.16,
874,0.11,0.09,0.97,1.89,2.81,1.4,988.72,25.16,
912,0.11,0.09,0.97,1.89,2.69,1.34,988.68,25.16,
951,0.11,0.09,0.97,1.83,2.87,1.46,988.7,25.16,
1040,0.1,0.09,0.97,2.01,2.81,1.46,988.72,25.15,
1079,0.11,0.09,0.98,1.83,2.81,1.46,988.71,25.15,
1117,0.11,0.09,0.97,1.89,2.99,1.4,988.66,25.16,
1155,0.1,0.08,0.97,1.95,2.87,1.28,988.7,25.16,
1193,0.11,0.09,0.98,1.71,3.05,1.59,988.7,25.18,
1231,0.11,0.09,0.98,1.89,2.75,1.28,988.71,25.18,
1270,0.11,0.1,0.97,1.59,2.87,1.4,988.67,25.19,
1308,0.11,0.09,0.97,1.65,2.99,1.46,988.73,25.19,
1358,0.11,0.09,0.98,2.01,2.75,1.34,988.66,25.18,
1396,0.11,0.09,0.97,1.77,2.93,1.34,988.72,25.19,
1434,0.11,0.09,0.97,1.83,2.93,1.4,988.74,25.19,
1472,0.11,0.09,0.98,1.71,2.62,1.46,988.69,25.2,
1510,0.11,0.09,0.98,1.89,2.87,1.46,988.68,25.21,
1548,0.11,0.09,0.97,2.08,2.81,1.59,988.78,25.21,
1586,0.11,0.09,0.97,1.95,2.87,1.53,988.72,25.21,
1625,0.11,0.06,0.98,1.71,3.05,1.4,988.69,25.2,
1663,0.11,0.09,0.97,1.83,2.87,1.46,988.76,25.21,
1701,0.11,0.09,0.98,1.77,2.75,1.4,988.75,25.22,
1739,0.11,0.09,0.97,1.77,2.87,1.46,988.68,25.21,
1789,0.11,0.09,0.98,2.01,2.81,1.4,988.71,25.2,
1827,0.11,0.09,0.98,1.77,2.81,1.4,988.68,25.21,
1865,0.11,0.09,0.97,1.71,2.75,1.46,988.7,25.21,
1903,0.11,0.09,0.97,1.89,2.81,1.59,988.73,25.22,
1942,0.11,0.09,0.98,1.89,2.81,1.53,988.74,25.23,
1980,0.11,0.09,0.98,1.89,2.81,1.34,988.7,25.23,
2018,0.11,0.09,0.98,1.89,2.93,1.4,988.7,25.23,
2056,0.11,0.09,0.98,1.83,2.75,1.34,988.72,25.24,
2094,0.11,0.09,0.98,1.77,2.99,1.46,988.75,25.23,
2132,0.11,0.09,0.98,2.2,2.56,1.46,988.69,25.24,
2182,0.11,0.09,0.97,1.83,2.69,1.59,988.71,25.22,
2220,0.11,0.09,0.98,1.83,3.11,1.65,988.67,25.22,
2259,0.11,0.09,0.98,1.59,3.17,1.59,988.71,25.24,
2297,0.11,0.09,0.98,1.89,2.81,1.34,988.7,25.23,
2335,0.11,0.09,0.98,1.95,2.81,1.4,988.65,25.24,
2373,0.11,0.09,0.97,1.83,2.81,1.53,988.71,25.24,
2411,0.11,0.09,0.98,1.83,2.81,1.4,988.74,25.24,
2449,0.11,0.09,0.98,1.77,2.87,1.46,988.71,25.24,
2488,0.11,0.09,0.98,1.89,2.81,1.53,988.74,25.24,
2526,0.11,0.09,0.98,1.83,2.69,1.28,988.69,25.25,
2564,0.11,0.09,0.98,1.89,2.69,1.34,988.69,25.25,
2614,0.08,0.09,0.97,1.71,2.87,1.4,988.7,25.23,
2652,0.11,0.09,0.98,1.89,2.81,1.4,988.62,25.23,
2690,0.1,0.09,0.98,1.65,2.99,1.34,988.69,25.23,
2728,0.11,0.09,0.98,1.89,2.93,1.46,988.72,25.24,
2766,0.11,0.09,0.98,1.77,2.99,1.4,988.64,25.24,
2804,0.11,0.09,0.98,1.83,2.87,1.46,988.71,25.25,
2843,0.11,0.09,0.97,1.83,3.05,1.4,988.69,25.24,
2881,0.11,0.09,0.98,1.89,2.99,1.46,988.7,25.26,
2919,0.1,0.09,0.97,1.89,2.93,1.46,988.68,25.25,
2957,0.1,0.09,0.98,1.77,2.75,1.4,988.64,25.24,
2995,0.11,0.09,0.98,1.95,2.75,1.53,988.7,25.24,
3045,0.1,0.09,0.98,1.95,2.75,1.34,988.71,25.23,
3083,0.11,0.09,0.97,1.83,2.75,1.4,988.71,25.24,
3121,0.11,0.1,0.98,1.89,2.75,1.34,988.77,25.26,
3159,0.11,0.09,0.98,1.77,2.75,1.34,988.69,25.25,
3197,0.11,0.1,0.98,1.77,2.87,1.4,988.74,25.25,
3236,0.1,0.09,0.98,1.77,2.75,1.46,988.68,25.25,
3274,0.1,0.09,0.97,1.83,2.75,1.4,988.71,25.25,
3312,0.1,0.09,0.98,1.77,2.93,1.4,988.69,25.26,
3350,0.11,0.09,0.97,1.77,2.93,1.4,988.72,25.26,
3388,0.11,0.09,0.98,1.59,2.99,1.16,988.75,25.27,
3438,0.11,0.09,0.98,1.77,3.05,1.34,988.71,25.24,
3476,0.11,0.09,0.98,1.83,3.05,1.53,988.73,25.26,
3514,0.11,0.09,0.98,2.01,2.87,1.28,988.71,25.25,
3552,0.1,0.09,0.98,1.77,2.75,1.22,988.74,25.26,
3591,0.11,0.09,0.98,1.77,2.75,1.4,988.76,25.26,
3629,0.11,0.09,0.98,1.77,2.87,1.4,988.71,25.25,
3667,0.11,0.09,0.98,1.77,2.87,1.34,988.64,25.26,
3705,0.11,0.09,0.98,1.83,2.75,1.53,988.69,25.26,
3743,0.11,0.1,0.97,1.89,2.75,1.46,988.72,25.26,
3781,0.11,0.09,0.98,1.77,2.81,1.53,988.7,25.26,
3819,0.11,0.09,0.98,1.71,2.87,1.53,988.71,25.27,
3869,0.1,0.09,0.98,1.77,2.81,1.53,988.72,25.27,
3907,0.1,0.09,0.98,1.89,2.99,1.46,988.69,25.27,
3945,0.1,0.09,0.98,1.89,2.81,1.4,988.7,25.26,
3983,0.11,0.09,0.98,1.71,2.93,1.28,988.69,25.27,
4022,0.11,0.09,0.98,1.89,2.87,1.4,988.69,25.27,
4060,0.11,0.09,0.98,1.89,2.87,1.4,988.68,25.27,
4098,0.11,0.09,0.98,1.65,2.93,1.46,988.77,25.28,
4136,0.1,0.09,0.98,1.89,2.93,1.28,988.73,25.28,
4174,0.1,0.09,0.98,1.95,2.93,1.4,988.69,25.27,
4213,0.11,0.09,0.98,1.77,2.75,1.46,988.71,25.28,
4251,0.11,0.09,0.98,1.95,2.87,1.34,988.64,25.27,
4328,0.11,0.09,0.98,1.95,2.99,1.59,988.68,25.25,
4366,0.11,0.09,0.98,1.89,2.93,1.53,988.69,25.26,
4404,0.11,0.09,0.98,1.77,2.93,1.4,988.67,25.27,
4494,0.11,0.09,0.98,1.77,2.75,1.4,988.68,25.23,
4532,0.11,0.09,0.98,1.89,2.75,1.53,988.7,25.25,
4570,0.11,0.09,0.98,1.71,2.87,1.4,988.66,25.24,
4608,0.11,0.09,0.98,1.65,2.81,1.34,988.72,25.26,
4646,0.11,0.09,0.98,1.89,2.87,1.46,988.7,25.26,
4684,0.11,0.09,0.98,1.83,2.81,1.34,988.66,25.25,
4723,0.11,0.09,0.98,1.89,3.05,1.46,988.68,25.26,
4772,0.11,0.09,0.98,1.89,2.87,1.53,988.66,25.25,
4810,0.11,0.09,0.98,1.83,2.99,1.53,988.67,25.26,
4849,0.11,0.09,0.98,1.95,2.87,1.4,988.71,25.27,
4887,0.11,0.09,0.98,1.83,2.93,1.4,988.69,25.27,
4925,0.11,0.09,0.98,1.77,2.87,1.59,988.71,25.27,
4963,0.11,0.09,0.98,1.83,2.81,1.34,988.66,25.27,
5001,0.11,0.09,0.98,1.83,2.81,1.34,988.72,25.27,
5039,0.11,0.09,0.98,1.89,2.81,1.34,988.68,25.28,
5078,0.11,0.09,0.98,1.83,2.87,1.4,988.66,25.26,
5116,0.11,0.09,0.98,1.89,2.75,1.4,988.74,25.28,
5154,0.11,0.09,0.98,1.77,2.75,1.4,988.71,25.3,
5204,0.11,0.09,0.98,1.65,2.81,1.46,988.67,25.27,
5242,0.11,0.09,0.98,1.65,2.75,1.4,988.71,25.27,
5280,0.11,0.09,0.98,1.71,2.93,1.46,988.7,25.28,
5318,0.11,0.09,0.98,1.89,2.81,1.4,988.74,25.29,
5356,0.11,0.09,0.98,1.77,2.87,1.4,988.7,25.28,
5394,0.11,0.09,0.98,1.89,2.87,1.4,988.7,25.28,
5433,0.11,0.09,0.98,2.01,2.87,1.28,988.73,25.28,
5471,0.11,0.09,0.97,1.95,2.87,1.4,988.71,25.29,
5509,0.11,0.09,0.98,1.77,2.75,1.4,988.67,25.29,
5547,0.11,0.09,0.98,1.89,2.87,1.1,988.65,25.28,
5585,0.11,0.09,0.98,1.59,2.87,1.4,988.73,25.29,
5635,0.11,0.09,0.98,1.71,2.87,1.16,988.68,25.27,
5673,0.11,0.09,0.98,1.89,2.81,1.46,988.76,25.28,
5711,0.11,0.09,0.98,1.65,2.93,1.65,988.7,25.28,
5749,0.11,0.09,0.98,1.77,2.81,1.46,988.68,25.27,
5788,0.11,0.09,0.98,1.83,2.81,1.28,988.74,25.28,
5826,0.11,0.09,0.98,1.77,2.93,1.53,988.64,25.27,
5864,0.1,0.09,0.98,1.77,2.75,1.28,988.66,25.27,
5902,0.11,0.09,0.98,1.95,2.81,1.59,988.74,25.28,
5940,0.11,0.09,0.98,1.77,2.81,1.4,988.7,25.28,
5978,0.11,0.09,0.98,1.77,2.75,1.46,988.67,25.28,
6028,0.11,0.09,0.98,1.95,2.75,1.4,988.71,25.26,
6066,0.11,0.09,0.98,1.65,2.87,1.34,988.72,25.27,
6104,0.11,0.09,0.98,1.95,2.93,1.46,988.65,25.27,
6143,0.1,0.09,0.98,1.83,2.99,1.4,988.7,25.27,
6181,0.11,0.09,0.98,1.89,2.93,1.46,988.66,25.28,
6219,0.11,0.09,0.97,1.77,2.87,1.53,988.71,25.27,
6257,0.11,0.09,0.98,1.95,2.93,1.46,988.68,25.28,
6295,0.11,0.09,0.98,1.83,2.93,1.59,988.74,25.29,
6333,0.11,0.09,0.98,1.83,2.93,1.4,988.71,25.29,
6371,0.11,0.09,0.98,1.83,2.87,1.28,988.75,25.31,
6410,0.11,0.09,0.98,1.83,2.93,1.46,988.73,25.29,
6459,0.11,0.09,0.98,1.89,2.81,1.4,988.7,25.28,
6498,0.11,0.09,0.98,1.71,2.69,1.28,988.71,25.28,
6536,0.11,0.09,0.97,1.89,2.87,1.4,988.68,25.29,
6574,0.11,0.09,0.98,1.95,2.87,1.4,988.7,25.29,
6612,0.11,0.09,0.98,1.83,2.87,1.4,988.72,25.29,
6650,0.11,0.09,0.98,1.71,2.69,1.53,988.63,25.29,
6688,0.11,0.09,0.98,1.89,2.99,1.28,988.7,25.29,
6726,0.11,0.09,0.98,1.71,2.93,1.4,988.71,25.3,
6765,0.11,0.09,0.98,1.83,2.81,1.46,988.72,25.3,
6803,0.11,0.09,0.98,1.83,2.93,1.59,988.69,25.3,
6841,0.11,0.09,0.98,1.71,2.87,1.53,988.77,25.3,
6891,0.11,0.09,0.98,1.77,2.93,1.53,988.68,25.29,
6929,0.11,0.09,0.98,2.01,2.87,1.34,988.73,25.29,
6967,0.11,0.09,0.98,1.95,2.93,1.46,988.71,25.29,
7005,0.11,0.09,0.98,1.83,2.87,1.46,988.73,25.29,
7043,0.11,0.09,0.98,1.95,2.93,1.4,988.74,25.29,
7082,0.11,0.09,0.98,1.71,2.99,1.4,988.72,25.29,
7120,0.11,0.09,0.98,1.89,2.69,1.59,988.73,25.29,
7158,0.11,0.09,0.98,2.01,2.75,1.4,988.7,25.28,
7196,0.11,0.09,0.98,1.83,2.81,1.59,988.66,25.28,
7234,0.11,0.09,0.98,1.95,2.69,1.28,988.77,25.3,
7284,0.11,0.09,0.98,1.77,2.87,1.28,988.71,25.28,
7322,0.11,0.09,0.98,1.77,2.81,1.28,988.76,25.28,
7361,0.1,0.09,0.97,1.83,2.81,1.34,988.73,25.29,
7399,0.1,0.09,0.97,1.89,2.69,1.34,988.74,25.28,
7437,0.1,0.09,0.98,1.89,2.87,1.46,988.72,25.29,
7475,0.11,0.09,0.98,1.83,2.99,1.34,988.76,25.28,
7513,0.11,0.09,0.97,1.83,2.87,1.28,988.67,25.29,
7551,0.1,0.09,0.97,1.77,2.93,1.34,988.75,25.29,
7590,0.16,0.09,0.97,1.77,2.99,1.4,988.75,25.3,
7628,0.09,0.09,0.98,2.01,2.75,1.4,988.71,25.3,
7666,0.11,0.09,0.98,1.83,2.62,1.34,988.67,25.28,
7742,0.11,0.09,0.98,1.77,2.87,1.34,988.7,25.26,
7780,0.1,0.09,0.98,1.89,2.81,1.46,988.7,25.28,
7818,0.13,0.15,0.82,-0.43,4.03,1.65,988.76,25.28,
7909,0.11,0.09,0.98,1.53,2.99,1.46,988.72,25.25,
7947,0.1,0.09,0.97,1.89,2.56,1.4,988.74,25.26,
7985,0.11,0.09,0.96,1.77,2.81,1.46,988.7,25.26,
8023,0.1,0.09,0.97,1.89,2.99,1.34,988.77,25.28,
8061,0.11,0.09,0.98,1.46,3.11,1.59,988.68,25.27,
8099,0.11,0.1,0.98,1.65,3.11,1.4,988.76,25.28,
8138,0.11,0.09,0.98,1.89,2.93,1.4,988.68,25.28,
8176,0.11,0.09,0.98,1.83,2.62,1.46,988.74,25.28,
8226,0.1,0.09,0.98,2.01,2.75,1.53,988.75,25.27,
8264,0.11,0.09,0.97,1.77,2.62,1.53,988.75,25.28,
8302,0.11,0.09,0.98,1.77,2.87,1.4,988.71,25.28,
8340,0.11,0.09,0.98,1.83,2.93,1.28,988.74,25.29,
8378,0.11,0.09,0.98,1.71,2.75,1.28,988.71,25.29,
8417,0.1,0.09,0.98,1.83,2.93,1.28,988.72,25.3,
8455,0.1,0.09,0.97,1.89,2.87,1.4,988.7,25.3,
8493,0.11,0.09,0.98,1.83,2.81,1.4,988.73,25.3,
8531,0.11,0.09,0.98,1.83,2.93,1.4,988.71,25.3,
8569,0.11,0.09,0.98,1.83,3.05,1.4,988.72,25.3,
8619,0.11,0.09,0.97,1.71,2.99,1.34,988.73,25.29,
8657,0.1,0.09,0.98,1.89,2.81,1.46,988.76,25.3,
8695,0.11,0.09,0.98,1.77,2.87,1.28,988.75,25.3,
8734,0.11,0.09,0.98,1.83,2.93,1.46,988.74,25.32,
8772,0.11,0.09,0.97,1.89,2.87,1.59,988.67,25.29,
8810,0.11,0.09,0.98,1.77,2.87,1.4,988.71,25.32,
8848,0.1,0.09,0.98,1.71,2.93,1.34,988.78,25.31,
8886,0.11,0.09,0.98,1.89,2.93,1.28,988.72,25.3,
8925,0.11,0.09,0.98,1.77,2.87,1.46,988.74,25.32,
8963,0.11,0.09,0.98,1.77,2.75,1.28,988.73,25.31,
9001,0.11,0.09,0.98,1.59,2.62,1.46,988.71,25.32,
9051,0.1,0.09,0.97,1.83,2.62,1.4,988.73,25.3,
9089,0.1,0.09,0.98,1.83,2.69,1.4,988.75,25.31,
9127,0.11,0.09,0.98,1.77,2.93,1.46,988.69,25.29,
9165,0.11,0.09,0.98,1.89,2.69,1.34,988.73,25.31,
9203,0.11,0.09,0.98,1.65,2.75,1.4,988.77,25.31,
9241,0.11,0.09,0.98,1.71,2.87,1.4,988.69,25.31,
9280,0.11,0.09,0.98,1.77,2.75,1.34,988.66,25.3,
9318,0.1,0.09,0.98,1.71,2.81,1.53,988.73,25.31,
9356,0.11,0.09,0.98,1.89,3.05,1.34,988.7,25.31,
9394,0.11,0.09,0.98,1.77,2.99,1.34,988.7,25.32,
9432,0.1,0.09,0.98,1.71,2.81,1.34,988.71,25.31,
9482,0.11,0.09,0.98,1.89,2.93,1.53,988.71,25.31,
9520,0.11,0.09,0.97,1.83,2.99,1.34,988.75,25.32,
9558,0.11,0.09,0.98,1.83,2.81,1.34,988.74,25.31,
9596,0.11,0.09,0.98,1.83,2.81,1.46,988.68,25.31,
9635,0.11,0.09,0.98,1.83,2.93,1.34,988.73,25.31,
9673,0.11,0.09,0.97,1.89,2.81,1.34,988.75,25.32,
9711,0.11,0.09,0.97,1.65,2.81,1.4,988.67,25.3,
9749,0.11,0.09,0.98,1.77,2.81,1.53,988.72,25.31,
9787,0.11,0.09,0.98,1.77,2.93,1.4,988.71,25.31,
9825,0.11,0.09,0.98,1.77,2.93,1.34,988.69,25.31,
9875,0.11,0.09,0.98,1.77,2.93,1.34,988.72,25.3,
9913,0.1,0.09,0.98,1.83,2.93,1.28,988.74,25.31,
9951,0.11,0.09,0.98,1.77,2.87,1.28,988.72,25.31,
9990,0.11,0.09,0.98,1.71,2.93,1.4,988.68,25.32,
10028,0.11,0.09,0.97,1.77,2.93,1.53,988.7,25.31,
10066,0.11,0.09,0.98,1.71,2.93,1.28,988.74,25.32,
10104,0.11,0.09,0.97,1.77,2.93,1.28,988.71,25.32,
10142,0.11,0.09,0.98,1.77,2.87,1.4,988.7,25.32,
10180,0.11,0.09,0.98,1.71,2.75,1.34,988.69,25.31,
10219,0.11,0.09,0.98,1.89,2.69,1.34,988.73,25.32,
10257,0.11,0.09,0.98,1.83,2.81,1.53,988.72,25.31,
10307,0.11,0.09,0.98,1.77,2.87,1.28,988.68,25.31,
10345,0.11,0.09,0.98,1.71,2.87,1.34,988.75,25.31,
10383,0.11,0.09,0.98,1.89,2.87,1.46,988.68,25.31,
10421,0.11,0.09,0.98,1.89,2.93,1.46,988.67,25.32,
10459,0.11,0.09,0.98,1.95,2.81,1.53,988.69,25.31,
10497,0.11,0.09,0.97,1.89,2.87,1.4,988.74,25.32,
10536,0.1,0.09,0.97,1.77,2.87,1.4,988.75,25.31,
10574,0.11,0.09,0.98,1.77,3.11,1.46,988.78,25.34,
10612,0.1,0.09,0.97,1.71,3.17,1.46,988.74,25.32,
10650,0.11,0.09,0.98,1.71,3.05,1.34,988.71,25.32,
10700,0.11,0.09,0.97,1.59,3.05,1.4,988.64,25.3,
10738,0.11,0.09,0.98,1.77,2.93,1.4,988.73,25.33,
10776,0.11,0.09,0.98,1.89,2.93,1.46,988.7,25.32,
10814,0.11,0.09,0.98,1.83,2.81,1.28,988.71,25.32,
10852,0.11,0.1,0.98,1.83,2.87,1.28,988.76,25.33,
10891,0.11,0.09,0.98,1.77,2.69,1.59,988.67,25.32,
10929,0.11,0.09,0.97,1.77,2.62,1.34,988.68,25.31,
10967,0.11,0.09,0.98,1.77,2.81,1.4,988.64,25.33,
11005,0.11,0.09,0.97,1.77,2.93,1.34,988.72,25.32,
11043,0.11,0.09,0.98,1.71,2.87,1.46,988.77,25.33,
11081,0.11,0.1,0.98,1.83,2.93,1.4,988.78,25.34,
11157,0.11,0.1,0.98,1.71,2.87,1.53,988.72,25.3,
11196,0.1,0.09,0.98,1.83,3.05,1.46,988.71,25.31,
11234,0.11,0.08,0.98,1.83,2.99,1.34,988.66,25.31,
11323,0.11,0.09,0.98,1.77,2.99,1.4,988.65,25.27,
11362,0.11,0.09,0.98,1.89,2.99,1.46,988.71,25.3,
11400,0.11,0.09,0.97,1.59,2.99,1.53,988.71,25.31,
11438,0.11,0.1,0.98,1.59,2.99,1.53,988.69,25.31,
11476,0.1,0.1,0.97,1.77,2.87,1.4,988.69,25.31,
11514,0.11,0.09,0.97,1.71,2.75,1.4,988.66,25.31,
11552,0.11,0.1,0.97,1.71,2.81,1.4,988.71,25.31,
11602,0.11,0.09,0.98,1.89,2.69,1.46,988.64,25.32,
11640,0.11,0.09,0.98,1.89,2.81,1.4,988.73,25.32,
11678,0.11,0.09,0.98,1.89,2.81,1.28,988.69,25.33,
11717,0.1,0.09,0.98,1.77,2.87,1.28,988.74,25.31,
11755,0.1,0.09,0.98,1.95,2.81,1.4,988.71,25.32,
11793,0.11,0.09,0.98,1.89,2.81,1.34,988.69,25.32,
11831,0.11,0.09,0.98,1.71,3.11,1.53,988.72,25.33,
11869,0.11,0.09,0.97,1.89,2.99,1.53,988.72,25.33,
11908,0.11,0.09,0.98,1.83,3.11,1.4,988.71,25.33,
11946,0.1,0.09,0.98,1.59,2.99,1.46,988.72,25.34,
11984,0.11,0.09,0.98,1.83,2.87,1.34,988.72,25.34,
12034,0.11,0.09,0.98,1.89,2.99,1.28,988.7,25.33,
12072,0.11,0.1,0.98,1.83,2.81,1.4,988.69,25.33,
12110,0.11,0.09,0.98,1.71,2.87,1.34,988.67,25.33,
12148,0.11,0.09,0.98,1.83,2.93,1.4,988.73,25.34,
12187,0.1,0.09,0.97,1.89,2.69,1.34,988.67,25.33,
12225,0.11,0.09,0.98,1.95,2.93,1.28,988.76,25.35,
12263,0.11,0.09,0.98,1.89,2.81,1.53,988.67,25.34,
12301,0.11,0.09,0.98,1.83,2.87,1.34,988.76,25.35,
12339,0.1,0.09,0.98,1.89,2.93,1.34,988.71,25.35,
12378,0.1,0.09,0.98,1.71,2.87,1.46,988.71,25.35,
12427,0.11,0.09,0.98,1.71,3.23,1.4,988.67,25.33,
12465,0.11,0.09,0.98,1.89,3.11,1.16,988.69,25.35,
12504,0.11,0.09,0.98,1.83,3.11,1.46,988.68,25.35,
12542,0.11,0.09,0.98,1.71,3.23,1.22,988.73,25.36,
12580,0.11,0.09,0.98,1.89,2.93,1.46,988.74,25.36,
12618,0.11,0.09,0.98,1.65,3.05,1.34,988.73,25.35,
12656,0.11,0.09,0.98,1.77,2.99,1.28,988.7,25.35,
12694,0.11,0.09,0.98,1.89,3.05,1.28,988.71,25.36,
12732,0.11,0.09,0.98,1.83,2.93,1.4,988.72,25.35,
12770,0.11,0.09,0.98,1.65,3.11,1.34,988.69,25.35,
12809,0.11,0.09,0.98,1.77,3.05,1.28,988.68,25.35,
12858,0.11,0.09,0.98,1.89,2.87,1.46,988.74,25.34,
12897,0.11,0.09,0.98,1.71,2.87,1.4,988.64,25.33,
12935,0.11,0.09,0.98,1.77,2.99,1.34,988.75,25.35,
12973,0.11,0.09,0.97,1.89,3.17,1.46,988.72,25.36,
13011,0.11,0.09,0.98,1.89,2.99,1.16,988.67,25.35,
13049,0.1,0.09,0.98,1.83,3.05,1.34,988.68,25.34,
13087,0.11,0.09,0.98,1.83,3.17,1.28,988.69,25.35,
13126,0.11,0.09,0.98,1.89,2.99,1.28,988.73,25.36,
13164,0.11,0.09,0.98,1.83,3.11,1.34,988.76,25.37,
13202,0.11,0.09,0.97,1.77,3.05,1.4,988.73,25.37,
13252,0.11,0.09,0.98,1.77,2.99,1.4,988.7,25.35,
13290,0.11,0.09,0.98,1.77,2.99,1.22,988.77,25.36,
13328,0.11,0.09,0.98,1.83,2.93,1.53,988.67,25.36,
13366,0.11,0.09,0.98,1.89,2.99,1.4,988.73,25.37,
13404,0.11,0.09,0.98,1.71,3.05,1.34,988.67,25.36,
13443,0.11,0.09,0.97,1.83,3.11,1.34,988.69,25.36,
13481,0.11,0.09,0.98,1.83,3.17,1.28,988.73,25.36,
13519,0.11,0.09,0.98,1.77,3.11,1.28,988.69,25.37,
13557,0.11,0.09,0.98,1.89,3.11,1.4,988.68,25.37,
13595,0.1,0.09,0.98,1.95,3.17,1.34,988.72,25.37,
13633,0.11,0.09,0.98,1.83,2.99,1.28,988.68,25.38,
13683,0.11,0.09,0.98,2.01,3.23,1.53,988.74,25.36,
13721,0.1,0.09,0.97,2.01,2.99,1.4,988.69,25.37,
13760,0.11,0.09,0.98,1.95,3.11,1.4,988.73,25.37,
13798,0.11,0.09,0.98,1.83,3.11,1.34,988.69,25.37,
13836,0.11,0.09,0.98,2.01,3.05,1.4,988.74,25.38,
13874,0.11,0.09,0.97,1.83,2.99,1.34,988.68,25.38,
13912,0.11,0.09,0.98,1.89,2.93,1.46,988.71,25.38,
13950,0.11,0.09,0.98,1.83,2.87,1.34,988.75,25.38,
13989,0.11,0.09,0.98,2.01,2.93,1.4,988.69,25.38,
14027,0.11,0.09,0.98,1.89,2.81,1.4,988.69,25.39,
14077,0.11,0.09,0.97,2.08,2.93,1.46,988.72,25.35,
14115,0.11,0.09,0.98,1.83,2.99,1.34,988.74,25.38,
14153,0.1,0.09,0.98,1.65,2.93,1.34,988.66,25.37,
14191,0.1,0.09,0.98,1.77,3.11,1.34,988.73,25.38,
14229,0.11,0.09,0.98,1.83,3.11,1.34,988.74,25.4,
14267,0.11,0.09,0.98,1.71,3.11,1.4,988.67,25.37,
14306,0.11,0.09,0.98,1.83,3.17,1.34,988.73,25.39,
14344,0.11,0.09,0.98,1.83,3.23,1.46,988.74,25.38,
14382,0.11,0.09,0.98,1.83,3.11,1.53,988.74,25.38,
14420,0.11,0.09,0.98,1.83,3.17,1.4,988.76,25.38,
14496,0.11,0.09,0.98,1.59,3.05,1.28,988.69,25.35,
14534,0.11,0.09,0.98,1.71,3.05,1.28,988.74,25.37,
14572,0.11,0.09,0.98,1.83,2.87,1.46,988.76,25.37,
14661,0.11,0.09,0.98,1.89,2.93,1.34,988.7,25.34,
14700,0.11,0.09,0.98,1.77,3.05,1.34,988.74,25.36,
14738,0.11,0.09,0.98,1.95,2.93,1.28,988.72,25.36,
14776,0.1,0.09,0.98,1.83,2.93,1.28,988.66,25.36,
14814,0.1,0.09,0.98,1.83,3.11,1.34,988.71,25.35,
14852,0.11,0.09,0.98,1.95,3.17,1.4,988.64,25.35,
14890,0.11,0.09,0.98,1.59,3.11,1.59,988.74,25.37,
14928,0.11,0.09,0.98,1.65,3.3,1.34,988.73,25.37,
14978,0.11,0.09,0.98,1.71,3.17,1.46,988.73,25.36,
15016,0.11,0.1,0.98,1.95,3.3,1.16,988.67,25.35,
15055,0.11,0.09,0.98,2.01,3.11,1.28,988.7,25.36,
15093,0.1,0.09,0.97,1.65,3.3,1.65,988.74,25.37,
15131,0.22,0.06,1.03,1.95,2.56,1.59,988.68,25.36,
15169,0.11,0.07,0.99,1.65,2.93,1.4,988.7,25.37,
15207,0.12,0.09,0.98,1.77,2.93,1.53,988.71,25.38,
15245,0.11,0.1,0.98,1.95,2.75,1.4,988.68,25.36,
15283,0.09,0.1,0.95,2.14,2.75,1.28,988.71,25.37,
15322,0.11,0.09,0.97,1.65,2.81,1.46,988.71,25.38,
15371,0.11,0.09,0.97,1.77,2.81,1.34,988.66,25.36,
15410,0.1,0.1,0.98,1.71,2.93,1.34,988.73,25.37,
15448,0.1,0.1,0.98,1.77,2.87,1.28,988.71,25.37,
15486,0.11,0.08,1.0,1.89,2.99,1.83,988.74,25.38,
15524,0.11,0.09,0.98,1.77,3.05,1.4,988.7,25.39,
15562,0.11,0.09,0.98,2.01,2.99,1.46,988.69,25.37,
15601,0.11,0.09,0.98,1.89,2.99,1.59,988.68,25.38,
15639,0.11,0.09,0.98,1.77,2.93,1.4,988.77,25.39,
15677,0.11,0.09,0.98,2.01,3.05,1.46,988.68,25.38,
15715,0.11,0.09,0.98,1.77,2.81,1.46,988.72,25.39,
15753,0.11,0.09,0.98,1.83,2.87,1.53,988.74,25.38,
15803,0.11,0.09,0.98,1.77,2.69,1.53,988.75,25.38,
15841,0.11,0.09,0.97,1.71,2.75,1.4,988.69,25.38,
15879,0.11,0.1,0.99,1.4,2.87,1.53,988.78,25.4,
15918,0.11,0.09,0.98,2.2,2.87,1.34,988.71,25.39,
15956,0.1,0.09,0.97,1.59,2.81,1.4,988.72,25.39,
15994,0.11,0.1,0.98,1.1,3.17,1.34,988.71,25.39,
16032,0.11,0.1,0.98,1.53,2.99,1.34,988.7,25.39,
16070,0.11,0.09,0.98,1.89,3.05,1.34,988.67,25.4,
16108,0.11,0.1,0.97,2.2,2.75,1.34,988.73,25.39,
16146,0.11,0.09,0.98,2.2,2.81,1.34,988.64,25.39,
16196,0.11,0.09,0.98,1.95,2.99,1.4,988.73,25.4,
16234,0.11,0.09,0.98,1.95,2.99,1.4,988.72,25.41,
16273,0.17,0.18,1.2,-4.33,3.17,1.46,988.71,25.4,
16311,0.1,0.09,0.99,1.65,3.17,1.4,988.68,25.38,
16349,0.1,0.09,0.98,1.16,3.11,1.4,988.73,25.41,
16387,0.11,0.09,0.99,1.53,2.99,1.22,988.73,25.39,
16425,0.11,0.1,0.98,2.38,2.75,1.16,988.73,25.41,
16463,0.11,0.09,0.98,2.93,2.81,1.34,988.74,25.42,
16501,0.11,0.09,0.98,2.08,2.81,1.46,988.72,25.4,
16540,0.11,0.09,0.98,2.01,2.99,1.34,988.69,25.4,
16578,0.11,0.09,0.98,1.95,2.75,1.4,988.71,25.4,
16628,0.11,0.1,0.98,2.26,2.99,1.22,988.66,25.39,
16666,0.11,0.09,0.97,0.98,2.87,1.46,988.71,25.39,
16704,0.11,0.1,0.97,0.73,2.81,1.22,988.69,25.4,
16742,0.11,0.11,1.0,0.06,2.99,1.22,988.7,25.41,
16780,0.1,0.09,0.98,0.67,3.3,1.22,988.74,25.4,
16818,0.11,0.1,0.98,1.59,2.99,1.34,988.72,25.4,
16856,0.11,0.1,0.98,1.71,2.44,1.28,988.75,25.41,
16895,0.1,0.1,0.98,2.38,3.11,1.34,988.69,25.41,
16933,0.11,0.11,1.0,3.97,3.11,1.34,988.68,25.41,
16971,0.1,0.09,0.97,4.03,2.93,1.28,988.68,25.41,
17021,0.11,0.09,0.98,1.89,3.11,1.4,988.72,25.4,
17059,0.11,0.09,0.98,1.83,2.99,1.4,988.69,25.39,
17097,0.11,0.09,0.98,1.83,2.93,1.34,988.73,25.41,
17135,0.11,0.09,0.98,1.89,2.87,1.4,988.71,25.41,
17173,0.11,0.09,0.98,1.83,2.75,1.46,988.73,25.4,
17212,0.11,0.09,0.98,1.95,2.87,1.46,988.73,25.41,
17250,0.11,0.09,0.98,1.89,2.93,1.22,988.72,25.41,
17288,0.11,0.09,0.98,1.83,2.81,1.53,988.71,25.41,
17326,0.11,0.09,0.98,1.89,2.81,1.4,988.72,25.41,
17364,0.1,0.09,0.98,1.71,2.75,1.22,988.74,25.4,
17402,0.11,0.09,0.98,1.77,2.81,1.46,988.74,25.4,
17452,0.1,0.09,0.98,1.83,3.05,1.34,988.76,25.4,
17490,0.11,0.09,0.98,1.95,2.87,1.46,988.72,25.4,
17528,0.11,0.09,0.98,1.83,3.05,1.46,988.69,25.41,
17567,0.11,0.09,0.98,1.95,2.99,1.28,988.73,25.42,
17605,0.11,0.09,0.98,1.83,3.17,1.4,988.68,25.4,
17643,0.11,0.09,0.98,2.08,3.11,1.34,988.71,25.41,
17681,0.11,0.09,0.98,1.95,2.99,1.34,988.75,25.4,
17719,0.11,0.09,0.98,1.83,2.99,1.22,988.69,25.41,
17758,0.11,0.09,0.98,1.83,3.05,1.34,988.72,25.41,
17796,0.11,0.09,0.98,1.95,2.99,1.34,988.69,25.41,
17871,0.11,0.09,0.97,1.89,2.87,1.46,988.72,25.37,
17910,0.11,0.09,0.98,1.83,2.81,1.4,988.7,25.39,
17948,0.11,0.1,0.98,1.83,2.81,1.53,988.68,25.4,
18037,0.11,0.09,0.98,1.95,2.87,1.4,988.72,25.37,
18076,0.11,0.09,0.98,2.01,2.93,1.4,988.69,25.39,
18114,0.11,0.09,0.98,1.77,2.81,1.59,988.65,25.38,
18152,0.11,0.09,0.98,1.89,2.87,1.34,988.73,25.38,
18190,0.11,0.09,0.98,1.71,2.99,1.53,988.74,25.4,
18228,0.11,0.09,0.98,1.89,2.87,1.4,988.69,25.4,
18266,0.11,0.09,0.98,1.71,3.05,1.34,988.68,25.41,
18316,0.11,0.09,0.98,1.89,2.87,1.4,988.68,25.38,
18354,0.11,0.09,0.98,2.08,2.81,1.95,988.73,25.4,
18392,0.11,0.08,0.97,1.89,2.93,1.53,988.7,25.4,
18431,0.1,0.11,0.98,2.01,2.87,1.53,988.74,25.4,
18469,0.11,0.08,0.98,2.01,2.99,1.95,988.64,25.4,
18507,0.11,0.09,0.98,1.89,2.93,1.46,988.73,25.41,
18545,0.11,0.09,0.98,1.89,2.99,1.4,988.64,25.4,
18583,0.11,0.09,0.98,1.71,2.75,1.34,988.67,25.4,
18621,0.1,0.1,0.99,0.92,2.93,0.98,988.7,25.4,
18659,0.1,0.09,0.98,2.08,2.75,1.16,988.69,25.42,
18697,0.11,0.09,0.98,1.89,2.87,1.22,988.76,25.41,
18747,0.1,0.09,0.98,1.83,2.81,1.34,988.76,25.4,
18785,0.1,0.09,0.98,1.83,2.62,1.46,988.68,25.41,
18824,0.11,0.09,0.98,1.71,2.69,1.28,988.69,25.4,
18862,0.11,0.09,0.98,2.08,2.75,1.4,988.75,25.41,
18900,0.11,0.09,0.98,1.71,2.87,1.46,988.63,25.41,
18938,0.11,0.09,0.98,1.83,2.87,1.28,988.69,25.41,
18976,0.11,0.09,0.98,1.71,2.99,1.28,988.7,25.41,
19014,0.11,0.09,0.98,1.83,3.05,1.28,988.71,25.41,
19053,0.11,0.09,0.98,1.59,3.11,1.34,988.73,25.41,
19091,0.1,0.09,0.98,1.77,3.05,1.4,988.67,25.41,
19140,0.11,0.09,0.98,1.71,2.99,1.4,988.68,25.41,
19179,0.11,0.09,0.98,1.71,2.87,1.22,988.66,25.4,
19217,0.11,0.1,0.98,1.71,2.87,1.4,988.66,25.41,
19255,0.11,0.1,1.0,1.04,2.93,1.4,988.73,25.41,
19293,0.11,0.09,0.97,1.1,2.87,1.28,988.67,25.41,
19331,0.11,0.1,0.98,-0.43,2.81,1.46,988.71,25.43,
19369,0.11,0.1,0.98,0.49,2.62,1.22,988.71,25.42,
19408,0.1,0.1,0.98,1.22,2.75,1.1,988.7,25.42,
19446,0.11,0.1,0.98,2.62,2.87,1.04,988.76,25.43,
19484,0.11,0.09,0.97,2.81,2.75,1.16,988.72,25.42,
19522,0.11,0.1,0.98,1.1,2.69,1.34,988.67,25.42,
19572,0.11,0.1,0.98,1.83,2.93,1.4,988.65,25.4,
19610,0.1,0.09,0.98,1.46,2.81,1.22,988.72,25.41,
19648,0.11,0.1,0.98,1.71,3.11,1.46,988.7,25.43,
19687,0.11,0.08,0.98,1.83,2.93,1.22,988.72,25.43,
19725,0.11,0.09,0.97,1.16,3.11,1.16,988.67,25.43,
19763,0.11,0.1,0.98,1.28,2.87,1.22,988.72,25.42,
19801,0.11,0.1,0.98,0.98,3.05,1.34,988.74,25.42,
19839,0.11,0.1,0.98,1.65,3.11,1.28,988.66,25.42,
19877,0.11,0.09,0.98,1.4,3.17,1.1,988.71,25.43,
19916,0.11,0.1,0.98,1.77,2.93,1.28,988.67,25.43,
19965,0.11,0.1,0.98,1.71,2.87,1.4,988.65,25.41,
20004,0.11,0.09,0.98,2.01,2.75,1.16,988.67,25.43,
20042,0.11,0.1,0.98,1.83,2.81,1.22,988.7,25.42,
20080,0.11,0.1,0.98,2.01,2.87,1.28,988.7,25.43,
20118,0.11,0.1,0.98,1.65,2.87,1.4,988.64,25.43,
20156,0.11,0.1,0.98,1.59,2.99,1.22,988.68,25.43,
20194,0.11,0.1,0.98,1.83,2.93,1.22,988.65,25.43,
20232,0.11,0.1,0.98,2.38,2.87,1.28,988.66,25.43,
20271,0.11,0.1,0.98,3.05,3.05,1.16,988.68,25.43,
20309,0.11,0.1,0.98,4.03,3.11,1.28,988.7,25.44,
20347,0.1,0.09,0.98,2.38,3.05,1.22,988.76,25.44,
20397,0.11,0.09,0.98,2.08,2.99,1.34,988.72,25.43,
20435,0.11,0.09,0.98,1.83,2.93,1.4,988.72,25.43,
20473,0.11,0.1,0.98,2.01,2.99,1.4,988.68,25.41,
20511,0.11,0.09,0.98,1.83,2.93,1.34,988.73,25.43,
20550,0.11,0.09,0.99,1.46,3.05,1.77,988.72,25.43,
20588,0.11,0.09,0.98,1.16,3.11,1.83,988.65,25.43,
20626,0.11,0.09,0.98,1.46,2.75,1.65,988.73,25.43,
20664,0.11,0.09,0.98,1.77,2.87,1.28,988.7,25.44,
20702,0.11,0.09,0.98,3.05,2.69,0.85,988.69,25.43,
20741,0.11,0.09,0.98,2.38,2.75,1.04,988.69,25.44,
20790,0.11,0.09,0.98,1.83,2.75,1.28,988.75,25.43,
20829,0.18,0.14,0.99,-2.32,3.85,2.01,988.67,25.43,
20867,0.11,0.1,0.98,2.81,2.87,1.22,988.69,25.42,
20905,0.11,0.09,0.98,3.6,2.81,1.16,988.68,25.42,
20943,0.1,0.07,0.97,2.44,2.81,1.16,988.67,25.43,
20981,0.11,0.09,0.98,1.83,2.81,1.46,988.74,25.44,
21019,0.11,0.09,0.98,2.01,2.99,1.4,988.7,25.44,
21057,0.16,0.33,1.28,-13.49,2.69,2.14,988.65,25.43,
21096,0.11,0.09,0.97,3.3,3.23,1.1,988.7,25.44,
21134,0.11,0.09,0.97,2.81,3.3,1.28,988.72,25.44,
21172,0.1,0.09,0.98,2.2,3.05,1.34,988.68,25.44,
21248,0.11,0.1,0.97,1.83,2.75,1.34,988.68,25.42,
21286,0.11,0.1,0.98,2.62,3.3,1.16,988.69,25.43,
21324,0.11,0.09,0.97,2.93,3.23,1.28,988.69,25.43,
21413,0.11,0.09,0.98,2.08,3.05,1.28,988.68,25.4,
21452,0.11,0.09,0.98,1.95,2.93,1.34,988.71,25.41,
21490,0.11,0.09,0.98,1.4,2.99,1.22,988.72,25.42,
21528,0.11,0.1,0.98,1.4,3.11,1.22,988.7,25.42,
21566,0.11,0.09,0.98,1.53,3.23,1.4,988.69,25.42,
21604,0.11,0.09,0.97,1.59,3.11,1.53,988.72,25.44,
21642,0.11,0.1,0.98,1.28,3.17,1.46,988.73,25.43,
21692,0.11,0.1,0.98,1.28,3.17,1.65,988.67,25.42,
21730,0.11,0.1,0.99,2.32,2.75,1.77,988.74,25.44,
21769,0.11,0.1,0.98,3.36,2.32,1.65,988.73,25.44,
21807,0.11,0.1,0.98,1.77,2.87,1.34,988.68,25.44,
21845,0.11,0.1,0.98,2.5,2.75,1.1,988.65,25.45,
21883,0.11,0.09,0.97,1.95,2.99,1.4,988.66,25.46,
21921,0.11,0.1,0.98,0.79,2.75,1.28,988.72,25.45,
21959,0.1,0.09,0.98,2.01,2.93,1.28,988.66,25.44,
21997,0.11,0.09,0.98,0.98,2.87,1.22,988.65,25.45,
22036,0.11,0.09,0.98,1.53,2.99,1.22,988.64,25.44,
22086,0.11,0.1,0.98,2.2,2.99,1.34,988.66,25.43,
22124,0.11,0.1,0.98,3.05,2.87,1.34,988.68,25.45,
22162,0.1,0.09,0.95,1.65,2.81,1.46,988.75,25.45,
22200,0.11,0.09,0.98,2.01,2.99,1.4,988.7,25.45,
22238,0.11,0.09,0.98,1.77,2.87,1.28,988.77,25.46,
22276,0.11,0.09,0.98,1.16,2.93,1.16,988.67,25.45,
22314,0.11,0.1,0.98,1.22,2.81,1.22,988.71,25.46,
22353,0.11,0.1,0.98,1.53,3.05,1.22,988.68,25.45,
22391,0.11,0.1,0.98,1.95,2.93,1.34,988.71,25.46,
22429,0.11,0.1,0.98,2.69,3.11,1.28,988.68,25.45,
22467,0.1,0.08,0.96,2.56,3.05,1.28,988.73,25.46,
22517,0.1,0.09,0.97,2.56,2.69,1.28,988.69,25.45,
22555,0.1,0.09,0.98,-0.12,2.99,1.34,988.69,25.45,
22593,0.11,0.1,0.99,1.22,2.81,1.16,988.62,25.45,
22631,0.11,0.1,0.98,1.83,2.81,1.16,988.72,25.46,
22670,0.11,0.09,0.98,2.14,2.99,1.53,988.69,25.46,
22708,0.11,0.09,0.98,2.69,2.93,1.34,988.67,25.45,
22746,0.11,0.09,0.97,2.2,2.75,1.34,988.73,25.47,
22784,0.11,0.09,0.97,2.08,2.81,1.34,988.7,25.46,
22822,0.11,0.09,0.98,-0.12,2.93,1.46,988.66,25.45,
22860,0.11,0.1,0.98,0.12,2.99,1.4,988.73,25.45,
22910,0.11,0.1,0.98,2.69,3.11,1.04,988.67,25.46,
22948,0.11,0.1,0.99,5.0,3.3,0.85,988.67,25.46,
22987,0.11,0.09,0.98,2.01,2.99,1.4,988.7,25.46,
23025,0.12,0.07,0.97,-2.14,2.99,1.59,988.77,25.48,
23063,0.11,0.1,1.0,1.53,2.99,1.22,988.67,25.47,
23101,0.11,0.1,0.99,3.36,3.05,1.04,988.73,25.46,
23139,0.09,0.06,0.93,4.21,3.17,1.28,988.67,25.45,
23177,0.11,0.08,0.96,1.83,2.87,1.34,988.7,25.46,
23216,0.11,0.09,0.98,-1.28,2.5,1.34,988.68,25.46,
23254,0.11,0.1,0.99,1.22,2.81,1.1,988.65,25.46,
23292,0.11,0.1,0.98,1.89,2.87,1.1,988.71,25.46,
23342,0.12,0.11,0.98,1.34,2.87,1.22,988.65,25.46,
23380,0.11,0.1,0.98,2.14,2.81,1.16,988.68,25.46,
23418,0.11,0.1,0.98,2.26,2.99,1.16,988.75,25.47,
23456,0.1,0.09,0.97,1.71,2.99,1.1,988.74,25.47,
23495,0.11,0.11,1.0,3.23,3.17,1.34,988.7,25.47,
23533,0.11,0.1,0.98,2.87,3.05,1.22,988.69,25.48,
23571,0.11,0.09,0.98,1.95,3.05,1.22,988.61,25.47,
23609,0.11,0.09,0.98,1.71,2.93,1.16,988.72,25.47,
23647,0.11,0.09,0.98,2.01,2.99,1.34,988.71,25.49,
23686,0.1,0.09,0.98,1.77,3.05,1.46,988.69,25.47,
23736,0.11,0.09,0.98,1.89,3.05,1.34,988.71,25.47,
23774,0.11,0.09,0.98,1.89,2.99,1.22,988.7,25.46,
23812,0.11,0.09,0.98,1.83,2.87,1.28,988.69,25.47,
23850,0.11,0.09,0.98,1.83,2.99,1.4,988.76,25.48,
23888,0.11,0.09,0.98,1.95,3.05,1.34,988.67,25.47,
23926,0.11,0.09,0.98,1.71,2.75,1.28,988.73,25.47,
23965,0.11,0.09,0.98,1.89,2.87,1.34,988.68,25.47,
24003,0.1,0.1,0.98,2.81,1.95,1.22,988.72,25.47,
24041,0.11,0.09,0.97,1.34,3.3,1.46,988.64,25.47,
24079,0.11,0.1,0.98,2.44,2.44,1.22,988.7,25.49,
24117,0.1,0.09,1.0,1.65,2.69,1.22,988.7,25.47,
24167,0.11,0.09,0.97,1.46,2.69,1.4,988.68,25.47,
24205,0.1,0.09,0.98,0.92,2.99,1.34,988.62,25.46,
24243,0.11,0.09,0.98,1.04,2.62,1.04,988.68,25.47,
24282,0.1,0.09,0.98,1.53,2.93,0.98,988.7,25.47,
24320,0.1,0.1,0.98,0.85,2.87,1.16,988.65,25.48,
24358,0.11,0.09,0.98,3.05,2.87,1.22,988.7,25.47,
24396,0.11,0.08,0.98,3.48,2.75,1.16,988.72,25.48,
24434,0.11,0.09,0.98,3.66,2.69,1.1,988.67,25.47,
24472,0.11,0.1,0.98,3.3,2.5,1.34,988.7,25.49,
24511,0.11,0.1,0.99,2.93,2.69,1.65,988.69,25.48,
24586,0.1,0.08,0.98,1.71,2.93,1.77,988.72,25.47,
24625,0.1,0.09,0.97,2.08,2.44,1.4,988.67,25.46,
24663,0.1,0.09,0.99,1.4,2.87,1.59,988.7,25.46,
24829,0.1,0.07,0.99,1.46,2.87,1.71,988.66,25.41,
24867,0.1,0.09,0.98,1.34,3.11,1.4,988.7,25.43,
24905,0.1,0.06,0.97,2.5,3.48,1.16,988.65,25.43,
24943,0.12,0.17,0.98,4.7,2.44,2.38,988.69,25.43,
24982,0.11,0.11,0.98,2.69,2.69,1.71,988.61,25.43,
25020,0.11,0.11,0.99,0.55,2.87,1.77,988.69,25.44,
25058,0.13,0.16,0.98,-1.59,3.48,0.49,988.7,25.43,
25108,0.1,0.07,0.97,2.62,2.56,1.4,988.7,25.43,
25146,0.1,0.09,0.98,1.46,2.99,1.28,988.73,25.44,
25184,0.1,0.07,0.97,2.69,2.99,1.04,988.69,25.44,
25222,0.12,0.11,0.98,3.36,3.05,2.14,988.69,25.43,
25261,0.12,0.13,0.96,2.81,2.87,1.34,988.68,25.44,
25299,0.12,0.13,0.98,0.55,2.5,1.46,988.75,25.46,
25337,0.11,0.15,0.97,-1.77,3.23,1.46,988.69,25.45,
25375,0.08,0.02,0.97,2.2,2.81,1.65,988.7,25.44,
25413,0.1,0.08,0.98,2.75,2.93,0.98,988.69,25.45,
25452,0.08,-0.04,0.97,6.1,2.14,0.85,988.74,25.45,
25490,0.11,0.13,0.98,1.95,2.44,2.14,988.71,25.45,
25540,0.16,0.12,0.95,-3.17,6.1,2.2,988.7,25.45,
25578,0.1,0.06,0.91,3.48,3.11,0.85,988.66,25.45,
25616,0.12,0.1,0.98,1.1,2.99,1.46,988.64,25.45,
25654,0.11,0.09,0.97,1.89,3.05,1.28,988.64,25.45,
25692,0.1,0.09,0.98,1.89,2.87,1.28,988.7,25.44,
25731,0.1,0.09,0.98,1.65,2.99,1.46,988.67,25.46,
25769,0.11,0.09,0.98,1.71,3.05,1.28,988.67,25.46,
25807,0.11,0.09,0.98,1.71,2.87,1.1,988.66,25.45,
25845,0.11,0.09,0.97,1.89,2.87,1.16,988.7,25.47,
25883,0.11,0.09,0.97,1.83,2.81,1.4,988.69,25.46,
25933,0.11,0.09,0.98,1.95,2.81,1.28,988.72,25.43,
25971,0.1,0.09,0.98,1.95,2.99,1.34,988.71,25.45,
26009,0.1,0.09,0.98,1.83,2.87,1.4,988.74,25.44,
26048,0.1,0.09,0.97,1.83,2.93,1.28,988.73,25.44,
26086,0.11,0.09,0.98,1.71,2.93,1.46,988.74,25.45,
26124,0.12,0.05,0.85,4.03,2.69,1.34,988.75,25.45,
26162,0.11,0.1,0.99,1.53,3.17,1.83,988.75,25.45,
26200,0.11,0.1,0.98,0.67,4.88,1.89,988.7,25.45,
26239,0.11,0.09,0.98,1.65,3.3,1.34,988.67,25.46,
26277,0.1,0.09,0.99,1.89,2.87,1.34,988.65,25.46,
26315,0.1,0.09,0.98,2.14,2.75,1.28,988.69,25.45,
26365,0.11,0.09,0.99,1.89,2.99,1.4,988.67,25.44,
26403,0.13,0.11,0.96,0.92,2.99,1.22,988.66,25.45,
26441,0.11,0.09,0.98,2.56,2.87,1.46,988.62,25.45,
26479,0.11,0.1,0.99,2.75,3.05,1.22,988.71,25.46,
26517,0.11,0.09,0.99,3.05,2.01,0.92,988.71,25.47,
26556,0.11,0.09,0.98,2.01,2.38,1.4,988.67,25.46,
26594,0.11,0.09,0.97,2.2,2.44,1.34,988.68,25.47,
26632,0.11,0.1,0.99,2.62,2.01,1.28,988.7,25.47,
26670,0.1,0.1,0.99,-0.37,3.48,2.01,988.66,25.48,
26708,0.1,0.1,0.97,-0.12,3.72,1.53,988.66,25.46,
26758,0.11,0.09,0.96,1.71,2.87,1.22,988.7,25.45,
26796,0.1,0.08,0.93,3.42,1.53,0.79,988.7,25.47,
26834,0.1,0.1,1.0,5.68,1.83,1.46,988.74,25.47,
26873,0.1,0.09,1.0,1.71,3.54,2.38,988.7,25.47,
26911,0.1,0.09,0.97,-0.55,4.64,2.5,988.65,25.48,
26949,0.11,0.08,0.97,-0.06,3.6,1.46,988.7,25.48,
26987,0.11,0.09,0.97,1.71,3.05,1.22,988.69,25.48,
27025,0.11,0.09,0.96,1.65,3.3,1.59,988.7,25.49,
27064,0.11,0.09,0.97,2.2,2.93,1.28,988.67,25.48,
27102,0.11,0.09,0.98,1.71,2.99,1.46,988.63,25.47,
27140,0.11,0.09,0.98,2.01,3.05,1.34,988.68,25.47,
27190,0.11,0.09,0.98,1.95,2.81,1.4,988.7,25.46,
27228,0.11,0.09,0.97,1.59,2.81,1.34,988.69,25.47,
27266,0.11,0.09,0.97,1.83,2.87,1.34,988.68,25.47,
27304,0.11,0.09,0.98,3.78,1.71,0.92,988.72,25.47,
27342,0.1,0.09,0.98,2.26,2.81,1.4,988.68,25.47,
27381,0.1,0.09,0.98,2.81,2.26,1.22,988.69,25.48,
27419,0.1,0.1,0.97,2.14,2.5,1.59,988.68,25.48,
27457,0.1,0.09,0.98,3.23,2.14,1.46,988.71,25.48,
27495,0.11,0.09,0.98,2.26,2.69,2.14,988.72,25.48,
27533,0.11,0.09,0.98,0.98,3.66,2.26,988.72,25.48,
27583,0.11,0.09,0.96,-1.77,5.19,2.38,988.66,25.46,
27621,0.1,0.09,0.98,1.65,3.05,1.22,988.73,25.47,
27660,0.1,0.09,0.98,1.83,2.87,1.34,988.75,25.48,
27698,0.1,0.09,0.98,1.83,2.99,1.34,988.68,25.49,
27736,0.11,0.09,0.98,1.71,2.93,1.22,988.7,25.48,
27774,0.11,0.09,0.97,2.2,2.81,1.1,988.7,25.48,
27812,0.1,0.09,1.04,3.54,2.87,0.85,988.7,25.49,
27850,0.11,0.1,0.98,1.77,3.11,1.34,988.74,25.48,
27889,0.11,0.09,0.98,2.5,2.5,1.28,988.7,25.47,
27927,0.11,0.09,0.97,0.79,2.81,1.46,988.66,25.49,
28003,0.12,0.13,0.99,0.43,2.62,0.79,988.7,25.46,
28041,0.1,0.09,0.97,1.59,2.69,2.2,988.63,25.46,
28079,0.1,0.08,0.97,1.89,2.69,1.4,988.7,25.48,
28169,0.12,0.13,0.97,2.44,2.87,1.1,988.65,25.45,
28207,0.11,0.11,0.98,1.04,2.99,1.59,988.71,25.47,
28245,0.1,0.08,0.98,-1.1,3.3,1.4,988.71,25.47,
28284,0.1,0.09,0.98,2.26,3.3,0.85,988.65,25.47,
28322,0.09,0.0,0.94,5.49,3.6,0.92,988.66,25.46,
28360,0.1,0.08,0.95,1.65,2.87,1.28,988.65,25.47,
28398,0.11,0.09,0.97,1.77,2.99,1.34,988.68,25.47,
28436,0.11,0.09,0.97,1.83,2.87,1.16,988.71,25.48,
28486,0.11,0.09,0.98,1.77,2.93,1.4,988.67,25.46,
28524,0.11,0.09,0.97,2.01,2.87,1.1,988.71,25.47,
28563,0.11,0.09,0.98,1.95,2.87,1.34,988.71,25.45,
28601,0.11,0.09,0.98,1.71,2.81,1.4,988.65,25.46,
28639,0.11,0.09,0.98,1.83,2.93,1.4,988.68,25.47,
28677,0.11,0.09,0.98,1.89,2.87,1.34,988.67,25.45,
28715,0.11,0.09,0.97,1.77,2.87,1.28,988.68,25.44,
28753,0.11,0.09,0.98,1.89,2.93,1.04,988.65,25.45,
28791,0.11,0.09,0.98,1.77,3.05,1.34,988.66,25.44,
28830,0.11,0.09,0.98,1.83,2.87,1.22,988.69,25.44,
28880,0.1,0.09,0.97,1.89,3.11,1.28,988.69,25.43,
28918,0.11,0.09,0.97,1.83,2.93,1.1,988.72,25.43,
28956,0.11,0.09,0.98,1.89,2.87,1.22,988.67,25.43,
28994,0.11,0.09,0.98,1.65,2.99,1.28,988.63,25.42,
29032,0.11,0.09,0.97,1.71,3.05,1.28,988.7,25.43,
29070,0.11,0.09,0.98,1.71,2.93,1.28,988.68,25.43,
29109,0.11,0.09,0.98,1.77,2.99,1.28,988.69,25.43,
29147,0.11,0.09,0.98,1.89,2.93,1.28,988.7,25.44,
29185,0.11,0.09,0.97,1.77,2.87,1.4,988.65,25.43,
29223,0.11,0.09,0.98,1.89,2.87,1.34,988.66,25.45,
29261,0.11,0.09,0.98,1.83,2.93,1.16,988.66,25.44,
29311,0.11,0.09,0.98,1.95,2.75,1.4,988.71,25.42,
29349,0.11,0.09,0.98,1.89,2.81,1.4,988.64,25.44,
29387,0.11,0.09,0.97,1.89,2.87,1.28,988.67,25.44,
29426,0.11,0.09,0.98,1.83,2.81,1.22,988.68,25.45,
29464,0.11,0.09,0.98,1.89,2.93,1.22,988.64,25.43,
29502,0.11,0.09,0.98,1.95,2.93,1.22,988.78,25.46,
29540,0.11,0.09,0.98,1.89,2.99,1.34,988.73,25.45,
29578,0.11,0.09,0.98,1.95,2.99,1.16,988.65,25.44,
29616,0.11,0.09,0.98,1.83,2.87,1.22,988.72,25.44,
29654,0.11,0.09,0.98,1.77,2.99,1.28,988.69,25.44,
29704,0.11,0.09,0.98,1.71,2.81,1.16,988.67,25.43,
29743,0.11,0.09,0.98,1.71,3.11,1.28,988.66,25.45,
29781,0.11,0.09,0.97,1.83,2.99,1.28,988.67,25.43,
29819,0.11,0.09,0.98,1.83,2.81,1.04,988.69,25.43,
29857,0.11,0.09,0.98,1.89,3.11,1.22,988.68,25.43,
29895,0.11,0.09,0.98,1.83,2.87,1.34,988.67,25.43,
29933,0.11,0.09,0.98,1.89,2.93,1.28,988.66,25.41,
29972,0.11,0.09,0.98,1.83,2.99,1.16,988.64,25.43,
30010,0.11,0.09,0.98,1.83,2.87,1.28,988.68,25.43,
30048,0.11,0.09,0.98,1.77,2.99,1.28,988.67,25.43,
30086,0.11,0.09,0.98,1.71,2.93,1.28,988.64,25.43,
30136,0.11,0.09,0.98,1.77,2.99,1.28,988.67,25.42,
30174,0.11,0.09,0.98,1.83,2.87,1.28,988.66,25.43,
30212,0.11,0.09,0.97,1.77,3.05,1.28,988.7,25.42,
30251,0.11,0.09,0.98,1.77,2.93,1.34,988.7,25.44,
30289,0.11,0.09,0.98,1.83,2.87,1.34,988.71,25.45,
30327,0.11,0.09,0.98,1.89,2.81,1.1,988.64,25.43,
30365,0.11,0.09,0.97,1.77,3.05,1.28,988.66,25.45,
30403,0.11,0.09,0.97,1.83,2.99,1.1,988.62,25.44,
30442,0.11,0.09,0.98,1.83,2.93,1.34,988.7,25.45,
30480,0.11,0.09,0.98,1.83,2.93,1.22,988.67,25.46,
30530,0.11,0.09,0.98,2.01,2.93,1.28,988.71,25.46,
30568,0.11,0.09,0.98,1.71,2.99,1.34,988.7,25.45,
30606,0.11,0.09,0.98,1.83,2.93,1.4,988.7,25.46,
30644,0.11,0.09,0.98,1.95,2.99,1.28,988.66,25.45,
30682,0.11,0.09,0.98,1.77,3.11,1.22,988.63,25.46,
30720,0.11,0.09,0.98,1.77,2.99,1.34,988.74,25.46,
30759,0.11,0.09,0.98,1.89,3.11,1.34,988.7,25.45,
30797,0.11,0.09,0.98,1.77,2.87,1.4,988.7,25.45,
30835,0.11,0.09,0.98,1.89,2.99,1.34,988.75,25.46,
30873,0.11,0.09,0.98,1.83,2.99,1.34,988.65,25.45,
30911,0.11,0.09,0.98,1.83,2.99,1.22,988.64,25.44,
30961,0.11,0.09,0.98,1.83,2.99,1.34,988.75,25.44,
30999,0.11,0.09,0.98,1.77,2.99,1.28,988.73,25.45,
31038,0.11,0.09,0.98,1.77,2.87,1.34,988.72,25.43,
31076,0.11,0.09,0.98,1.89,2.93,1.34,988.72,25.43,
31114,0.11,0.09,0.98,1.71,2.75,1.16,988.67,25.43,
31152,0.11,0.09,0.97,1.77,2.93,1.22,988.71,25.43,
31190,0.11,0.09,0.98,1.77,2.99,1.16,988.68,25.41,
31228,0.11,0.09,0.98,1.83,2.87,1.22,988.68,25.41,
31267,0.11,0.09,0.98,1.95,2.93,1.4,988.67,25.41,
31305,0.11,0.09,0.98,1.95,2.99,1.34,988.67,25.41,
31381,0.11,0.09,0.98,1.83,3.05,1.28,988.7,25.38,
31419,0.11,0.09,0.97,1.95,2.99,1.22,988.7,25.4,
31457,0.11,0.09,0.98,1.95,2.93,1.28,988.73,25.41,
31547,0.11,0.09,0.97,1.77,3.05,1.53,988.68,25.37,
31585,0.11,0.09,0.98,1.95,2.93,1.28,988.68,25.38,
31623,0.11,0.09,0.97,1.77,3.05,1.22,988.69,25.38,
31661,0.11,0.09,0.97,1.89,2.99,1.28,988.73,25.39,
31699,0.11,0.09,0.97,1.77,3.11,1.28,988.68,25.38,
31737,0.11,0.09,0.98,1.83,2.99,1.22,988.71,25.38,
31776,0.11,0.09,0.97,1.77,3.11,1.1,988.76,25.37,
31826,0.11,0.09,0.97,1.77,3.11,1.28,988.76,25.36,
31864,0.11,0.09,0.98,1.89,2.99,1.34,988.6,25.37,
31902,0.11,0.09,0.97,1.83,2.81,1.28,988.71,25.37,
31940,0.11,0.09,0.98,1.83,2.87,1.16,988.68,25.37,
31978,0.11,0.09,0.97,1.89,2.87,1.53,988.69,25.38,
32016,0.11,0.09,0.97,1.77,2.93,1.28,988.71,25.38,
32054,0.11,0.09,0.97,1.89,2.99,1.22,988.75,25.39,
32093,0.11,0.09,0.97,1.71,2.99,1.34,988.64,25.38,
32131,0.11,0.09,0.97,1.83,2.99,1.28,988.72,25.4,
32169,0.11,0.09,0.98,1.71,2.93,1.28,988.61,25.41,
32207,0.11,0.09,0.98,1.83,2.87,1.34,988.68,25.43,
32257,0.11,0.09,0.97,1.83,2.99,1.28,988.66,25.41,
32295,0.11,0.09,0.97,1.71,3.05,1.16,988.71,25.41,
32333,0.11,0.09,0.97,1.89,2.93,1.4,988.75,25.4,
32372,0.11,0.09,0.97,1.89,3.05,1.34,988.66,25.4,
32410,0.11,0.09,0.98,1.83,2.87,1.22,988.72,25.43,
32448,0.11,0.09,0.97,1.89,2.87,1.34,988.7,25.43,
32486,0.11,0.09,0.98,1.77,3.05,1.34,988.69,25.41,
32524,0.11,0.09,0.98,1.89,2.87,1.22,988.61,25.41,
32562,0.11,0.09,0.97,1.89,2.93,1.28,988.66,25.41,
32601,0.11,0.09,0.98,2.01,2.93,1.34,988.75,25.43,
32651,0.11,0.09,0.98,1.95,2.87,1.4,988.68,25.4,
32689,0.11,0.09,0.98,1.71,2.93,1.4,988.61,25.4,
32727,0.11,0.09,0.98,1.83,2.87,1.28,988.71,25.41,
32765,0.11,0.09,0.98,2.01,2.87,1.22,988.69,25.41,
32803,0.11,0.09,0.98,1.83,2.93,1.22,988.69,25.41,
32841,0.11,0.09,0.98,1.89,2.93,1.16,988.73,25.41,
32879,0.11,0.09,0.98,1.95,2.99,1.28,988.68,25.42,
32918,0.11,0.09,0.98,1.95,2.87,1.28,988.75,25.42,
32956,0.11,0.09,0.98,1.71,2.81,1.4,988.69,25.42,
32994,0.11,0.09,0.98,1.83,2.99,1.4,988.73,25.43,
33032,0.11,0.09,0.98,1.89,2.87,1.4,988.7,25.43,
33082,0.11,0.09,0.98,1.83,2.87,1.28,988.68,25.41,
33120,0.11,0.09,0.98,1.83,2.99,1.28,988.67,25.43,
33158,0.11,0.09,0.98,1.83,2.99,1.4,988.67,25.43,
33196,0.11,0.09,0.98,1.89,3.05,1.34,988.69,25.44,
33234,0.11,0.09,0.98,1.89,3.11,1.28,988.7,25.44,
33273,0.11,0.09,0.98,1.83,2.99,1.4,988.73,25.45,
33311,0.11,0.09,0.98,1.89,2.87,1.34,988.67,25.44,
33349,0.11,0.09,0.98,1.77,2.81,1.28,988.69,25.44,
33387,0.11,0.09,0.98,1.89,2.93,1.4,988.69,25.46,
33425,0.11,0.09,0.98,1.77,2.93,1.22,988.66,25.45,
33475,0.11,0.09,0.98,1.77,2.93,1.34,988.66,25.43,
33513,0.11,0.09,0.98,1.89,2.99,1.16,988.71,25.44,
33552,0.11,0.09,0.98,1.83,2.99,1.4,988.75,25.43,
33590,0.11,0.09,0.98,1.89,2.93,1.34,988.71,25.43,
33628,0.11,0.09,0.98,1.71,2.99,1.34,988.73,25.42,
33666,0.11,0.09,0.98,1.89,2.93,1.28,988.67,25.42,
33704,0.11,0.09,0.97,1.71,2.99,1.28,988.7,25.43,
33742,0.11,0.09,0.98,1.65,2.81,1.16,988.71,25.44,
33780,0.11,0.09,0.98,1.95,2.99,1.22,988.69,25.43,
33819,0.11,0.09,0.98,1.71,2.87,1.22,988.67,25.44,
33857,0.11,0.09,0.98,1.83,2.81,1.34,988.67,25.44,
33907,0.11,0.09,0.97,1.89,2.93,1.4,988.67,25.42,
33945,0.11,0.09,0.98,1.77,2.87,1.28,988.73,25.44,
33983,0.11,0.09,0.97,1.83,2.93,1.4,988.72,25.44,
34021,0.11,0.09,0.97,1.83,2.81,1.22,988.72,25.45,
34059,0.11,0.09,0.98,1.95,2.99,1.22,988.72,25.45,
34098,0.11,0.09,0.98,1.89,2.93,1.28,988.73,25.45,
34136,0.11,0.09,0.98,1.95,2.93,1.28,988.72,25.45,
34174,0.11,0.09,0.97,1.89,2.93,1.4,988.68,25.45,
34212,0.11,0.09,0.97,1.83,3.05,1.34,988.68,25.45,
34250,0.11,0.09,0.98,2.01,2.93,1.34,988.72,25.46,
34300,0.11,0.09,0.97,2.01,2.93,1.28,988.74,25.45,
34338,0.11,0.09,0.98,1.83,3.11,1.28,988.7,25.44,
34376,0.11,0.09,0.97,1.83,2.75,1.28,988.67,25.45,
34414,0.11,0.09,0.97,1.77,2.93,1.16,988.73,25.45,
34453,0.11,0.09,0.98,1.83,2.87,1.28,988.6,25.44,
34491,0.11,0.09,0.98,1.83,2.99,1.34,988.67,25.45,
34529,0.11,0.09,0.98,1.77,2.99,1.34,988.72,25.46,
34567,0.11,0.09,0.98,1.83,2.99,1.22,988.69,25.45,
34605,0.11,0.09,0.98,1.89,2.93,1.4,988.67,25.45,
34643,0.11,0.09,0.98,1.77,2.69,1.16,988.73,25.44,
34682,0.11,0.09,0.98,1.71,2.99,1.22,988.67,25.45,
34757,0.11,0.09,0.98,1.95,2.81,1.34,988.68,25.42,
34796,0.11,0.09,0.98,1.83,2.99,1.34,988.66,25.42,
34834,0.11,0.09,0.97,1.83,2.93,1.22,988.68,25.43,
34923,0.11,0.09,0.97,1.77,3.05,1.16,988.74,25.4,
34962,0.1,0.09,0.97,1.77,3.11,1.28,988.7,25.4,
35000,0.11,0.09,0.98,1.89,2.93,1.28,988.67,25.42,
35038,0.11,0.09,0.98,1.89,2.99,1.16,988.66,25.41,
35076,0.11,0.09,0.98,1.77,2.99,1.22,988.75,25.43,
35114,0.11,0.09,0.98,1.89,2.87,1.22,988.69,25.42,
35152,0.11,0.09,0.98,1.83,2.81,1.22,988.75,25.43,
35202,0.11,0.09,0.98,1.89,2.81,1.28,988.71,25.43,
35240,0.11,0.09,0.97,1.83,2.69,1.34,988.66,25.42,
35278,0.1,0.09,0.98,1.95,2.87,1.22,988.72,25.43,
35317,0.1,0.09,0.98,2.14,2.56,1.34,988.69,25.43,
35355,0.11,0.09,0.98,2.08,2.81,1.22,988.73,25.44,
35393,0.11,0.09,0.97,2.01,2.75,1.34,988.71,25.45,
35431,0.11,0.09,0.98,2.08,2.69,1.4,988.73,25.44,
35469,0.11,0.09,0.97,1.89,2.75,1.34,988.7,25.45,
35507,0.1,0.09,0.98,1.95,2.81,1.28,988.7,25.45,
35546,0.11,0.09,0.98,1.95,2.81,1.46,988.71,25.46,
35584,0.11,0.09,0.98,1.77,3.11,1.34,988.67,25.46,
35634,0.11,0.09,0.97,2.01,2.93,1.4,988.71,25.46,
35672,0.1,0.09,0.97,1.77,3.05,1.34,988.72,25.45,
35710,0.11,0.09,0.98,1.71,3.11,1.34,988.67,25.46,
35748,0.11,0.09,0.98,1.89,2.93,1.46,988.7,25.44,
35786,0.11,0.09,0.99,1.65,2.93,1.53,988.67,25.45,
35824,0.11,0.09,0.98,0.85,3.66,1.4,988.65,25.44,
35862,0.1,0.1,0.99,1.34,3.36,1.4,988.71,25.44,
35901,0.1,0.09,0.98,1.65,2.99,1.16,988.69,25.44,
35939,0.11,0.09,0.98,1.77,2.93,1.16,988.7,25.44,
35977,0.11,0.09,0.98,2.01,2.75,1.1,988.76,25.44,
36027,0.11,0.09,0.98,1.71,3.05,1.28,988.65,25.42,
36065,0.11,0.09,0.98,1.65,2.87,1.28,988.69,25.43,
36103,0.11,0.09,0.98,1.71,2.93,1.34,988.73,25.43,
36141,0.1,0.09,0.97,1.65,3.17,1.28,988.66,25.43,
36179,0.11,0.09,0.97,1.59,3.11,1.28,988.68,25.43,
36217,0.11,0.09,0.98,1.71,3.17,1.34,988.66,25.42,
36256,0.1,0.09,0.97,1.65,3.17,1.34,988.68,25.44,
36294,0.11,0.09,0.98,2.01,3.05,1.28,988.67,25.43,
36332,0.11,0.09,0.97,1.89,3.11,1.28,988.69,25.44,
36370,0.11,0.09,0.97,1.83,3.05,1.4,988.71,25.44,
36420,0.12,0.09,0.98,1.89,3.05,1.22,988.73,25.42,
36458,0.11,0.09,0.97,1.95,2.93,1.4,988.7,25.43,
36496,0.1,0.09,0.98,1.77,2.99,1.4,988.73,25.45,
36534,0.1,0.09,0.97,1.77,2.87,1.28,988.72,25.42,
36572,0.11,0.09,0.98,1.83,2.81,1.22,988.76,25.44,
36611,0.11,0.1,0.98,1.89,2.81,1.22,988.66,25.43,
36649,0.11,0.1,0.97,1.95,2.87,1.28,988.7,25.44,
36687,0.11,0.09,0.98,1.89,2.75,1.28,988.66,25.45,
36725,0.11,0.09,0.97,1.89,2.93,1.28,988.69,25.44,
36763,0.11,0.09,0.98,1.89,2.93,1.22,988.67,25.45,
36801,0.1,0.09,0.98,1.89,3.11,1.4,988.66,25.44,
36851,0.11,0.09,0.97,1.83,2.93,1.4,988.65,25.43,
36889,0.1,0.09,0.98,1.71,2.99,1.22,988.63,25.43,
36928,0.11,0.09,0.97,1.89,3.23,1.22,988.68,25.44,
36966,0.11,0.09,0.98,1.89,3.05,1.34,988.71,25.45,
37004,0.11,0.09,0.97,1.77,2.93,1.1,988.67,25.46,
37042,0.11,0.09,0.98,2.01,2.99,1.28,988.71,25.45,
37080,0.11,0.09,0.97,1.89,2.99,1.28,988.66,25.45,
37118,0.1,0.09,0.98,1.89,2.99,1.34,988.65,25.46,
37157,0.11,0.09,0.98,1.95,2.93,1.22,988.67,25.47,
37195,0.11,0.09,0.98,1.77,2.87,1.28,988.72,25.47,
37245,0.11,0.09,0.97,1.89,2.93,1.16,988.7,25.45,
37283,0.11,0.1,0.97,1.83,2.99,1.22,988.69,25.45,
37321,0.11,0.1,0.97,1.95,2.87,1.28,988.7,25.45,
37359,0.1,0.1,0.98,1.95,2.81,1.34,988.69,25.46,
37397,0.1,0.1,0.98,1.89,2.81,1.28,988.68,25.46,
37435,0.11,0.09,0.98,1.95,2.93,1.34,988.73,25.46,
37474,0.11,0.09,0.98,1.89,3.05,1.28,988.68,25.46,
37512,0.09,0.09,0.97,1.83,2.81,1.22,988.67,25.46,
37550,0.11,0.09,0.98,1.83,2.99,1.16,988.73,25.47,
37588,0.11,0.09,0.98,1.77,2.93,1.22,988.69,25.47,
37626,0.11,0.09,0.98,1.89,3.05,1.22,988.69,25.47,
37676,0.11,0.09,0.97,1.89,3.05,1.34,988.69,25.44,
37714,0.1,0.09,0.98,2.01,2.93,1.28,988.69,25.46,
37752,0.11,0.09,0.98,1.83,3.05,1.16,988.71,25.48,
37791,0.11,0.09,0.98,1.89,2.93,1.22,988.71,25.48,
37829,0.11,0.09,0.98,1.83,2.93,1.34,988.7,25.48,
37867,0.11,0.09,0.98,1.89,2.87,1.34,988.65,25.48,
37905,0.11,0.09,0.98,1.83,2.93,1.28,988.71,25.47,
37943,0.11,0.1,0.98,1.71,2.99,1.34,988.7,25.49,
37982,0.1,0.09,0.97,1.83,2.81,1.28,988.68,25.48,
38020,0.11,0.1,0.98,1.89,2.93,1.28,988.71,25.48,
38096,0.11,0.09,0.98,1.89,2.93,1.1,988.72,25.46,
38134,0.11,0.09,0.98,1.89,3.05,1.4,988.69,25.47,
38172,0.11,0.09,0.98,2.01,3.11,1.4,988.68,25.48,
38262,0.11,0.09,0.98,1.77,3.05,1.28,988.69,25.45,
38300,0.11,0.09,0.98,1.89,2.87,1.22,988.74,25.46,
38338,0.1,0.09,0.97,1.83,3.05,1.28,988.67,25.47,
38376,0.11,0.09,0.98,1.83,2.99,1.4,988.72,25.47,
38414,0.11,0.09,0.98,1.89,2.99,1.22,988.71,25.48,
38452,0.11,0.09,0.98,1.77,3.11,1.46,988.7,25.49,
38491,0.11,0.09,0.98,1.77,2.75,1.4,988.67,25.47,
38529,0.11,0.09,0.98,1.71,2.87,1.4,988.67,25.49,
38578,0.11,0.1,0.97,1.77,2.87,1.34,988.69,25.48,
38617,0.1,0.09,0.97,1.71,2.93,1.34,988.68,25.49,
38655,0.1,0.09,0.97,1.95,2.93,1.34,988.67,25.48,
38693,0.11,0.1,0.98,2.01,3.05,1.28,988.72,25.49,
38731,0.11,0.1,0.98,1.95,2.99,1.28,988.69,25.48,
38769,0.08,0.09,0.96,1.77,3.17,1.34,988.71,25.5,
38808,0.11,0.09,0.98,1.71,3.11,1.28,988.77,25.51,
38846,0.11,0.09,0.98,1.77,3.05,1.34,988.69,25.51,
38884,0.11,0.09,0.97,1.77,3.17,1.34,988.66,25.5,
38922,0.12,0.09,0.98,1.71,3.05,1.28,988.66,25.51,
38972,0.1,0.09,0.99,2.01,2.62,1.16,988.7,25.49,
39010,0.11,0.09,0.98,1.95,2.81,1.34,988.64,25.49,
39048,0.11,0.09,0.97,1.95,2.87,1.34,988.65,25.49,
39086,0.11,0.09,0.97,1.95,2.99,1.4,988.7,25.52,
39125,0.1,0.09,0.98,1.89,3.11,1.1,988.72,25.5,
39163,0.11,0.1,0.98,2.01,2.99,1.28,988.76,25.51,
39201,0.11,0.1,0.98,1.89,3.05,1.28,988.66,25.5,
39239,0.11,0.1,0.98,1.77,2.75,1.1,988.71,25.52,
39277,0.11,0.1,0.97,1.83,2.99,1.22,988.69,25.51,
39315,0.1,0.09,0.97,1.71,2.93,1.22,988.7,25.51,
39354,0.11,0.09,0.98,1.77,3.17,1.34,988.72,25.52,
39404,0.11,0.09,0.98,1.77,2.87,1.28,988.7,25.5,
39442,0.11,0.09,0.98,1.83,2.99,1.22,988.72,25.52,
39480,0.11,0.09,0.98,1.95,2.93,1.28,988.68,25.51,
39518,0.11,0.09,0.97,1.89,3.05,1.22,988.64,25.52,
39556,0.11,0.09,0.98,1.77,3.11,1.34,988.69,25.51,
39594,0.11,0.09,0.98,1.95,2.99,1.28,988.66,25.52,
39633,0.1,0.09,0.98,1.89,2.93,1.4,988.7,25.53,
39671,0.11,0.09,0.98,1.95,2.93,1.28,988.66,25.52,
39709,0.1,0.09,0.98,2.01,3.05,1.34,988.68,25.53,
39747,0.11,0.09,0.98,1.89,2.93,1.16,988.67,25.52,
39797,0.11,0.09,0.98,2.01,2.99,1.28,988.71,25.51,
39835,0.11,0.09,0.98,1.89,3.05,1.4,988.71,25.52,
39873,0.11,0.09,0.98,1.89,2.99,1.34,988.69,25.53,
39911,0.1,0.09,0.98,1.83,3.05,1.16,988.7,25.51,
39950,0.1,0.09,0.98,1.89,2.93,1.4,988.71,25.52,
39988,0.11,0.09,0.98,1.77,3.05,1.4,988.67,25.53,
40026,0.11,0.09,0.98,1.77,2.99,1.16,988.72,25.53,
40064,0.11,0.09,0.98,1.77,3.05,1.4,988.7,25.53,
40102,0.11,0.09,0.98,1.89,3.11,1.28,988.68,25.52,
40140,0.11,0.09,0.98,1.89,2.87,1.4,988.68,25.53,
40190,0.11,0.09,0.98,1.83,2.87,1.28,988.72,25.51,
40228,0.11,0.09,0.98,2.01,2.87,1.34,988.71,25.53,
40267,0.11,0.09,0.98,2.08,2.93,1.28,988.7,25.52,
40305,0.11,0.09,0.98,1.71,2.93,1.16,988.62,25.52,
40343,0.11,0.09,0.98,1.71,2.93,1.34,988.68,25.53,
40381,0.11,0.09,0.98,1.83,2.99,1.22,988.68,25.54,
40419,0.11,0.09,0.98,1.89,2.99,1.28,988.68,25.52,
40457,0.11,0.09,0.98,1.83,2.93,1.22,988.66,25.52,
40496,0.11,0.09,0.98,1.89,2.93,1.34,988.66,25.53,
40534,0.11,0.09,0.98,1.89,2.99,1.22,988.73,25.53,
40572,0.11,0.09,0.97,1.95,2.81,1.34,988.67,25.52,
40622,0.11,0.09,0.98,1.77,2.99,1.28,988.68,25.53,
40660,0.11,0.09,0.98,1.77,2.93,1.34,988.68,25.52,
40698,0.11,0.09,0.98,1.71,2.87,1.34,988.7,25.53,
40736,0.11,0.09,0.98,1.71,3.11,1.28,988.69,25.53,
40774,0.11,0.09,0.98,1.89,2.99,1.22,988.65,25.52,
40813,0.11,0.09,0.98,1.89,3.11,1.22,988.71,25.52,
40851,0.11,0.09,0.98,1.89,3.05,1.22,988.7,25.52,
40889,0.11,0.09,0.98,1.77,2.99,1.28,988.68,25.53,
40927,0.11,0.09,0.98,1.89,3.05,1.28,988.75,25.53,
40965,0.11,0.09,0.98,1.83,3.17,1.4,988.66,25.53,
41015,0.11,0.09,0.98,1.83,3.05,1.34,988.64,25.51,
41053,0.1,0.09,0.97,1.77,2.99,1.28,988.73,25.52,
41091,0.11,0.09,0.97,2.08,3.05,1.28,988.7,25.53,
41129,0.11,0.09,0.98,1.83,2.87,1.1,988.64,25.52,
41168,0.11,0.09,0.98,1.95,2.93,1.34,988.72,25.52,
41206,0.11,0.09,0.98,1.89,2.93,1.28,988.75,25.52,
41244,0.11,0.09,0.98,1.95,2.99,1.22,988.68,25.52,
41282,0.11,0.09,0.98,1.83,2.93,1.34,988.68,25.51,
41320,0.11,0.09,0.98,2.01,2.99,1.4,988.68,25.51,
41358,0.11,0.09,0.98,1.95,2.93,1.22,988.77,25.51,
41397,0.11,0.09,0.98,1.89,2.87,1.16,988.75,25.52,
41472,0.11,0.09,0.98,1.95,3.05,1.34,988.72,25.48,
41511,0.11,0.09,0.97,1.83,3.11,1.22,988.69,25.49,
41549,0.11,0.09,0.98,1.77,3.11,1.22,988.7,25.5,
41639,0.11,0.09,0.98,1.89,3.11,1.28,988.72,25.47,
41677,0.11,0.09,0.98,2.01,3.11,1.34,988.73,25.47,
41715,0.11,0.09,0.98,1.77,3.11,1.22,988.77,25.47,
41753,0.11,0.09,0.98,1.89,2.87,1.22,988.71,25.49,
41791,0.11,0.09,0.98,1.89,2.93,1.4,988.69,25.48,
41829,0.11,0.09,0.98,1.89,2.93,1.28,988.72,25.48,
41868,0.11,0.09,0.98,1.71,3.05,1.28,988.71,25.49,
41918,0.11,0.09,0.98,1.77,2.81,1.16,988.69,25.47,
41956,0.11,0.09,0.98,1.83,2.93,1.34,988.69,25.47,
41994,0.11,0.09,0.98,1.77,2.87,1.22,988.66,25.48,
42032,0.11,0.09,0.98,1.89,2.99,1.28,988.7,25.49,
42070,0.11,0.09,0.98,1.83,2.81,1.34,988.67,25.49,
42108,0.11,0.09,0.98,1.83,3.05,1.28,988.69,25.49,
42147,0.11,0.09,0.97,2.01,3.17,1.16,988.7,25.49,
42185,0.11,0.09,0.98,1.71,3.11,1.28,988.69,25.49,
42223,0.11,0.09,0.98,1.95,2.99,1.34,988.67,25.5,
42261,0.11,0.09,0.98,1.83,3.17,1.46,988.73,25.51,
42299,0.11,0.09,0.98,2.08,3.11,1.34,988.73,25.5,
42349,0.11,0.09,0.98,2.01,3.17,1.4,988.76,25.5,
42388,0.11,0.09,0.98,1.95,2.93,1.34,988.71,25.5,
42426,0.11,0.09,0.98,1.89,2.81,1.34,988.68,25.5,
42464,0.11,0.09,0.98,1.89,2.87,1.34,988.7,25.51,
42502,0.11,0.09,0.98,1.95,2.81,1.28,988.68,25.5,
42540,0.11,0.09,0.98,2.01,2.75,1.1,988.73,25.51,
42578,0.11,0.09,0.98,1.89,2.75,1.28,988.67,25.51,
42617,0.1,0.09,0.98,1.89,2.69,1.34,988.71,25.51,
42655,0.11,0.09,0.98,1.83,2.87,1.28,988.7,25.51,
42693,0.1,0.09,0.98,1.71,3.05,1.1,988.71,25.51,
42743,0.1,0.09,0.98,1.83,2.99,1.4,988.69,25.5,
42781,0.11,0.09,0.98,1.83,2.93,1.34,988.7,25.5,
42819,0.11,0.09,0.98,1.65,3.17,1.28,988.7,25.51,
42857,0.11,0.09,0.97,1.95,3.17,1.28,988.74,25.52,
42895,0.11,0.09,0.97,1.83,3.11,1.28,988.68,25.5,
42934,0.11,0.09,0.98,1.83,3.36,1.22,988.68,25.5,
42972,0.11,0.09,0.98,1.83,2.99,1.4,988.69,25.51,
43010,0.11,0.09,0.98,1.89,2.87,1.34,988.73,25.52,
43048,0.11,0.09,0.98,1.83,2.81,1.4,988.65,25.52,
43086,0.11,0.09,0.98,1.95,2.93,1.4,988.71,25.5,
43124,0.11,0.1,0.98,1.83,2.87,1.34,988.69,25.52,
43174,0.11,0.1,0.98,1.77,2.87,1.22,988.66,25.5,
43212,0.11,0.09,0.98,1.83,2.87,1.28,988.69,25.51,
43251,0.11,0.09,0.98,1.83,2.87,1.34,988.65,25.51,
43289,0.11,0.09,0.98,1.83,2.93,1.28,988.68,25.5,
43327,0.11,0.09,0.98,2.01,3.11,1.22,988.67,25.51,
43365,0.11,0.09,0.97,1.83,3.11,1.34,988.69,25.51,
43403,0.11,0.09,0.98,1.95,2.93,1.22,988.67,25.5,
43442,0.11,0.09,0.98,1.77,3.11,1.22,988.65,25.52,
43480,0.1,0.09,0.98,1.77,3.05,1.34,988.65,25.5,
43518,0.11,0.09,0.98,2.01,2.93,1.22,988.7,25.51,
43568,0.11,0.09,0.98,1.89,2.99,1.4,988.7,25.51,
43606,0.11,0.09,0.98,1.89,3.05,1.28,988.71,25.51,
43644,0.11,0.09,0.98,1.95,3.05,1.28,988.66,25.52,
43682,0.11,0.09,0.97,1.89,3.05,1.4,988.65,25.52,
43721,0.11,0.09,0.98,2.14,3.11,1.28,988.72,25.5,
43759,0.11,0.09,0.98,2.01,2.81,1.34,988.65,25.51,
43797,0.11,0.1,0.98,1.83,2.81,1.22,988.72,25.51,
43835,0.11,0.09,0.98,1.95,2.75,1.4,988.71,25.52,
43873,0.11,0.09,0.97,1.71,2.81,1.22,988.71,25.52,
43912,0.11,0.09,0.98,1.83,2.75,1.22,988.65,25.52,
43962,0.1,0.09,0.98,1.83,2.87,1.34,988.71,25.51,
44000,0.11,0.09,0.98,1.83,2.93,1.28,988.69,25.53,
44038,0.11,0.09,0.98,1.89,2.99,1.22,988.69,25.52,
44076,0.1,0.09,0.98,1.95,2.93,1.28,988.66,25.52,
44114,0.11,0.09,0.98,1.83,2.99,1.28,988.73,25.53,
44153,0.11,0.09,0.97,1.83,2.99,1.28,988.71,25.52,
44191,0.11,0.09,0.98,1.53,3.36,1.22,988.71,25.52,
44229,0.11,0.09,0.98,1.77,3.17,1.4,988.74,25.52,
44267,0.11,0.09,0.98,2.08,2.87,1.4,988.76,25.52,
44305,0.11,0.09,0.98,1.77,2.99,1.28,988.71,25.53,
44344,0.11,0.1,0.97,1.77,3.05,1.4,988.69,25.53,
44393,0.11,0.1,0.98,2.01,3.05,1.34,988.67,25.52,
44432,0.11,0.11,0.99,1.71,3.3,1.28,988.67,25.52,
44470,0.11,0.09,0.97,1.95,2.81,1.4,988.7,25.51,
44508,0.11,0.09,0.98,1.95,2.81,1.34,988.65,25.5,
44546,0.11,0.09,0.98,2.08,2.93,1.28,988.67,25.53,
44584,0.11,0.09,0.98,1.89,2.99,1.28,988.66,25.52,
44623,0.11,0.09,0.97,1.89,3.17,1.28,988.67,25.52,
44661,0.11,0.09,0.98,1.83,3.11,1.4,988.6,25.51,
44699,0.11,0.09,0.98,1.95,2.93,1.4,988.71,25.53,
44737,0.11,0.09,0.98,1.95,2.93,1.28,988.66,25.52,
44813,0.11,0.09,0.97,1.77,3.11,1.34,988.71,25.49,
44851,0.11,0.09,0.98,1.89,2.93,1.22,988.69,25.5,
44890,0.11,0.09,0.98,1.83,2.87,1.28,988.7,25.49,
44979,0.11,0.09,0.98,1.95,2.99,1.28,988.68,25.47,
45018,0.11,0.09,0.98,1.83,2.99,1.34,988.7,25.5,
45056,0.11,0.09,0.98,1.65,2.93,1.4,988.71,25.48,
45094,0.11,0.09,0.98,1.77,3.05,1.28,988.69,25.49,
45132,0.11,0.09,0.97,1.89,3.05,1.4,988.7,25.5,
45170,0.11,0.09,0.98,1.95,2.99,1.34,988.67,25.5,
45209,0.11,0.09,0.98,1.77,2.93,1.22,988.72,25.51,
45247,0.11,0.09,0.98,1.83,3.05,1.28,988.66,25.51,
45297,0.11,0.09,0.98,1.89,2.93,1.34,988.68,25.49,
45335,0.11,0.09,0.98,1.77,2.93,1.4,988.75,25.5,
45373,0.11,0.09,0.98,1.77,2.99,1.4,988.64,25.5,
45411,0.11,0.09,0.98,1.83,2.81,1.34,988.71,25.51,
45450,0.11,0.09,0.98,1.83,2.99,1.22,988.73,25.5,
45488,0.11,0.09,0.97,1.77,2.99,1.16,988.64,25.51,
45526,0.11,0.1,0.97,1.83,2.87,1.16,988.75,25.52,
45564,0.11,0.09,0.98,1.89,3.11,1.34,988.74,25.51,
45602,0.11,0.09,0.98,2.01,3.05,1.34,988.64,25.52,
45641,0.11,0.09,0.98,1.83,3.05,1.4,988.68,25.52,
45691,0.11,0.09,0.98,1.65,2.99,1.28,988.63,25.5,
45729,0.11,0.09,0.98,2.08,2.99,1.22,988.67,25.51,
45767,0.11,0.09,0.98,1.89,2.99,1.28,988.65,25.5,
45805,0.11,0.09,0.98,1.77,2.99,1.16,988.67,25.52,
45843,0.11,0.09,0.98,2.01,2.75,1.34,988.73,25.52,
45881,0.11,0.09,0.98,1.71,3.11,1.28,988.64,25.52,
45920,0.11,0.09,0.97,1.77,3.11,1.46,988.71,25.52,
45958,0.11,0.09,0.98,2.08,2.99,1.28,988.63,25.53,
45996,0.11,0.09,0.99,1.83,2.99,1.22,988.67,25.52,
46034,0.11,0.09,0.98,1.95,2.81,1.28,988.63,25.52,
46072,0.11,0.09,0.97,1.83,2.87,1.28,988.68,25.52,
46122,0.1,0.09,0.98,1.89,2.81,1.34,988.65,25.52,
46161,0.11,0.09,0.97,1.95,3.11,1.28,988.68,25.52,
46199,0.11,0.09,0.97,1.77,3.17,1.34,988.66,25.53,
46237,0.11,0.09,0.98,1.95,3.17,1.34,988.61,25.52,
46275,0.11,0.09,0.98,2.08,3.05,1.28,988.7,25.52,
46313,0.11,0.09,0.98,1.89,2.99,1.34,988.69,25.54,
46351,0.11,0.09,0.98,1.95,2.93,1.22,988.72,25.53,
46390,0.11,0.09,0.98,1.83,2.99,1.16,988.66,25.52,
46428,0.11,0.09,0.98,1.89,2.99,1.16,988.7,25.53,
46466,0.11,0.09,0.98,1.83,2.99,1.16,988.7,25.54,
46516,0.11,0.09,0.98,1.77,3.17,1.34,988.65,25.51,
46554,0.11,0.1,0.98,1.77,2.87,1.22,988.68,25.53,
46592,0.11,0.09,0.98,1.89,2.87,1.34,988.72,25.54,
46631,0.11,0.09,0.98,1.89,2.93,1.28,988.66,25.53,
46669,0.11,0.09,0.97,1.89,2.87,1.28,988.7,25.54,
46707,0.11,0.09,0.98,2.14,2.87,1.28,988.69,25.53,
46745,0.11,0.09,0.98,1.83,2.93,1.22,988.66,25.54,
46784,0.11,0.09,0.98,1.89,2.93,1.22,988.65,25.53,
46822,0.11,0.09,0.98,1.71,2.93,1.34,988.67,25.54,
46860,0.11,0.09,0.98,1.77,2.93,1.22,988.69,25.53,
46898,0.11,0.09,0.97,1.89,2.93,1.34,988.65,25.52,
46948,0.11,0.09,0.98,1.89,3.05,1.34,988.68,25.52,
46987,0.11,0.09,0.98,1.95,2.99,1.22,988.65,25.52,
47025,0.11,0.09,0.98,2.01,2.99,1.4,988.71,25.54,
47063,0.11,0.1,0.98,1.95,2.93,1.34,988.68,25.54,
47101,0.11,0.1,0.98,1.77,2.99,1.22,988.72,25.53,
47139,0.11,0.1,0.98,1.77,2.81,1.28,988.65,25.52,
47178,0.11,0.09,0.98,1.89,2.99,1.28,988.65,25.51,
47216,0.11,0.09,0.98,1.77,2.93,1.16,988.68,25.52,
47254,0.11,0.09,0.98,1.89,2.93,1.16,988.68,25.52,
47292,0.11,0.09,0.98,1.95,2.93,1.16,988.69,25.51,
47342,0.1,0.09,0.98,1.95,2.87,1.34,988.69,25.53,
47380,0.1,0.09,0.98,1.83,2.93,1.4,988.66,25.53,
47419,0.11,0.09,0.98,1.77,3.05,1.34,988.6,25.52,
47457,0.11,0.09,0.98,1.65,2.99,1.34,988.72,25.52,
47495,0.11,0.09,0.98,1.89,3.05,1.4,988.71,25.52,
47533,0.11,0.09,0.97,1.59,3.05,1.28,988.67,25.52,
47571,0.11,0.09,0.98,1.65,3.05,1.28,988.7,25.53,
47610,0.11,0.09,0.98,1.95,3.05,1.28,988.66,25.53,
47648,0.11,0.09,0.98,1.77,2.81,1.22,988.63,25.52,
47686,0.11,0.09,0.98,1.89,2.93,1.28,988.7,25.54,
47724,0.11,0.09,0.98,1.77,2.81,1.28,988.62,25.53,
47774,0.11,0.09,0.98,1.83,2.81,1.46,988.65,25.52,
47812,0.11,0.09,0.98,2.01,2.75,1.28,988.63,25.52,
47851,0.11,0.09,0.98,1.77,2.93,1.16,988.66,25.53,
47889,0.11,0.09,0.98,2.08,2.93,1.34,988.66,25.54,
47927,0.1,0.09,0.98,1.95,2.87,1.1,988.62,25.52,
47965,0.1,0.09,0.97,1.77,2.93,1.34,988.69,25.52,
48003,0.11,0.09,0.97,1.89,2.93,1.4,988.68,25.53,
48042,0.11,0.09,0.98,1.83,2.99,1.4,988.63,25.53,
48080,0.11,0.09,0.97,1.77,3.05,1.34,988.7,25.52,
48118,0.11,0.09,0.97,2.01,2.75,1.28,988.66,25.53,
48195,0.11,0.09,0.98,1.89,3.3,1.34,988.71,25.51,
48234,0.11,0.09,0.98,1.71,3.11,1.34,988.64,25.5,
48272,0.11,0.09,0.98,1.95,2.87,1.4,988.68,25.52,
48361,0.11,0.1,0.98,1.89,2.75,1.4,988.64,25.49,
48400,0.11,0.09,0.98,1.83,2.81,1.34,988.65,25.49,
48438,0.11,0.09,0.98,1.95,2.93,1.53,988.67,25.51,
48476,0.11,0.09,0.98,1.83,2.81,1.28,988.64,25.49,
48514,0.11,0.09,0.98,1.89,2.87,1.28,988.69,25.51,
48552,0.11,0.09,0.98,2.01,2.69,1.34,988.61,25.51,
48591,0.11,0.09,0.98,1.89,2.81,1.16,988.64,25.5,
48640,0.1,0.09,0.97,1.83,2.87,1.22,988.59,25.5,
48679,0.1,0.09,0.98,1.95,2.81,1.4,988.72,25.51,
48717,0.11,0.09,0.98,1.89,3.05,1.16,988.64,25.52,
48755,0.1,0.09,0.98,1.95,3.17,1.34,988.68,25.52,
48793,0.11,0.09,0.98,1.77,3.05,1.28,988.66,25.51,
48832,0.11,0.09,0.98,1.83,3.05,1.34,988.68,25.52,
48870,0.11,0.09,0.98,2.01,2.93,1.34,988.67,25.52,
48908,0.11,0.09,0.98,1.77,3.11,1.28,988.69,25.52,
48946,0.11,0.09,0.98,1.89,2.87,1.22,988.69,25.53,
48984,0.11,0.09,0.98,2.14,2.81,1.28,988.65,25.53,
49023,0.11,0.09,0.98,1.89,2.87,1.28,988.7,25.52,
49073,0.1,0.09,0.98,1.77,3.17,1.28,988.66,25.51,
49111,0.11,0.09,0.97,1.89,2.87,1.28,988.67,25.51,
49149,0.11,0.09,0.98,1.89,2.75,1.28,988.66,25.52,
49187,0.11,0.09,0.98,1.89,2.75,1.34,988.66,25.51,
49225,0.11,0.09,0.98,1.89,2.87,1.22,988.64,25.53,
49264,0.11,0.09,0.98,1.83,2.87,1.1,988.64,25.53,
49302,0.11,0.09,0.98,1.83,3.05,1.22,988.7,25.52,
49340,0.11,0.09,0.98,1.77,2.99,1.28,988.66,25.53,
49378,0.1,0.09,0.98,2.01,2.99,1.28,988.65,25.53,
49416,0.11,0.09,0.98,1.89,3.11,1.28,988.69,25.53,
49466,0.11,0.09,0.98,1.83,3.17,1.4,988.62,25.52,
49505,0.11,0.09,0.98,1.71,3.11,1.34,988.67,25.52,
49543,0.11,0.1,0.98,1.83,2.99,1.4,988.7,25.53,
49581,0.11,0.1,0.97,1.83,2.87,1.16,988.66,25.52,
49619,0.11,0.1,0.97,1.83,2.81,1.28,988.64,25.53,
49657,0.11,0.1,0.98,1.83,2.75,1.34,988.74,25.54,
49696,0.11,0.09,0.98,1.89,2.69,1.4,988.64,25.54,
49734,0.11,0.09,0.98,1.83,2.75,1.34,988.68,25.53,
49772,0.11,0.09,0.98,1.71,2.87,1.28,988.69,25.54,
49810,0.11,0.09,0.98,1.77,2.75,1.16,988.65,25.53,
49849,0.11,0.09,0.98,1.77,2.81,1.16,988.65,25.53,
49898,0.1,0.09,0.98,2.2,2.69,1.4,988.7,25.53,
49937,0.1,0.1,0.98,1.83,3.23,1.28,988.7,25.53,
49975,0.1,0.11,0.97,1.71,3.3,1.28,988.64,25.52,
50013,0.1,0.1,0.99,1.77,2.93,1.34,988.65,25.53,
50051,0.1,0.09,0.98,2.08,2.75,1.16,988.62,25.53,
50089,0.11,0.09,0.97,1.77,3.23,1.34,988.67,25.54,
50128,0.11,0.09,0.97,1.77,3.42,1.34,988.7,25.54,
50166,0.11,0.09,0.98,1.95,3.3,1.28,988.68,25.55,
50204,0.11,0.09,0.98,1.89,3.05,1.34,988.65,25.54,
50242,0.11,0.1,0.98,1.83,2.93,1.28,988.73,25.54,
50292,0.11,0.09,0.98,1.89,2.81,1.53,988.73,25.53,
50330,0.11,0.09,0.98,1.89,2.87,1.34,988.65,25.54,
50369,0.11,0.09,0.98,2.01,2.69,1.22,988.72,25.53,
50407,0.11,0.09,0.98,1.77,2.87,1.34,988.69,25.53,
50445,0.11,0.09,0.98,1.83,2.93,1.28,988.66,25.53,
50483,0.11,0.09,0.98,1.71,2.75,1.22,988.68,25.54,
50522,0.11,0.09,0.98,1.89,2.69,1.34,988.68,25.54,
50560,0.11,0.09,0.97,1.95,2.81,1.4,988.66,25.53,
50598,0.1,0.1,0.97,1.89,2.93,1.22,988.69,25.53,
50636,0.1,0.09,0.98,1.77,2.93,1.4,988.67,25.53,
50674,0.11,0.09,0.98,1.83,2.93,1.4,988.71,25.53,
50724,0.1,0.07,1.08,1.95,2.87,1.34,988.71,25.53,
50762,0.1,0.1,0.98,1.95,2.99,1.34,988.66,25.51,
50800,0.11,0.09,0.98,2.01,3.05,1.28,988.7,25.51,
50839,0.11,0.09,0.98,1.89,3.23,1.16,988.7,25.54,
50877,0.11,0.09,0.98,1.83,2.99,1.4,988.72,25.53,
50915,0.11,0.1,0.98,2.08,3.05,1.4,988.71,25.53,
50953,0.11,0.09,0.98,1.89,2.87,1.28,988.65,25.54,
50991,0.11,0.09,0.98,1.89,2.93,1.34,988.7,25.54,
51030,0.11,0.09,0.98,1.95,2.93,1.28,988.68,25.53,
51068,0.11,0.09,0.98,1.95,3.05,1.28,988.62,25.54,
51118,0.11,0.1,0.98,1.77,2.93,1.4,988.66,25.52,
51156,0.11,0.09,0.98,1.83,2.81,1.22,988.64,25.54,
51194,0.11,0.09,0.97,1.71,2.99,1.22,988.65,25.53,
51232,0.11,0.09,0.97,2.01,2.87,1.4,988.69,25.53,
51270,0.11,0.09,0.97,1.83,2.87,1.1,988.7,25.53,
51308,0.1,0.09,0.97,1.83,3.17,1.46,988.71,25.54,
51347,0.1,0.09,0.98,1.77,2.99,1.4,988.65,25.54,
51385,0.11,0.09,0.98,1.77,3.05,1.46,988.69,25.55,
51423,0.11,0.09,0.97,1.71,3.11,1.34,988.68,25.54,
51461,0.11,0.1,0.97,1.95,3.17,1.28,988.65,25.55,
51499,0.11,0.09,0.98,1.71,3.17,1.34,988.7,25.54,
51575,0.11,0.09,0.98,1.95,3.23,1.34,988.67,25.5,
51613,0.11,0.09,0.98,1.83,3.17,1.4,988.71,25.53,
51652,0.1,0.09,0.98,1.77,3.11,1.28,988.7,25.53,
51741,0.11,0.09,0.98,2.01,3.05,1.28,988.68,25.49,
51780,0.11,0.09,0.98,1.95,2.69,1.34,988.7,25.51,
51818,0.11,0.09,0.97,2.08,2.81,1.22,988.7,25.52,
51856,0.11,0.09,0.98,1.83,2.87,1.4,988.69,25.52,
51894,0.11,0.09,0.98,1.83,2.81,1.16,988.7,25.53,
51932,0.1,0.09,0.98,2.01,2.75,1.16,988.66,25.52,
51970,0.11,0.09,0.97,2.14,2.56,1.46,988.73,25.53,
52020,0.11,0.09,0.98,2.08,2.75,1.34,988.73,25.51,
52058,0.1,0.1,0.98,2.01,2.44,1.28,988.68,25.52,
52097,0.11,0.09,0.96,2.5,2.56,1.34,988.68,25.52,
52135,0.11,0.09,0.96,2.2,2.99,1.28,988.71,25.52,
52173,0.11,0.09,0.97,1.71,3.11,1.59,988.71,25.53,
52211,0.11,0.1,0.99,2.62,2.38,1.34,988.7,25.53,
52249,0.1,0.09,0.98,2.75,2.14,1.53,988.71,25.54,
52288,0.11,0.07,1.01,2.56,2.75,1.77,988.71,25.53,
52326,0.1,0.08,0.99,3.66,1.65,1.46,988.72,25.53,
52364,0.11,0.09,0.98,1.59,3.36,1.34,988.67,25.52,
52414,0.1,0.09,0.98,1.83,2.93,1.46,988.65,25.51,
52452,0.1,0.09,0.98,0.85,3.72,1.46,988.71,25.54,
52490,0.11,0.09,0.97,1.28,3.6,1.4,988.71,25.53,
52528,0.11,0.09,0.98,1.95,2.87,1.46,988.65,25.54,
52567,0.11,0.09,0.98,1.83,3.11,1.71,988.68,25.53,
52605,0.1,0.09,0.98,1.59,2.87,1.65,988.7,25.54,
52643,0.1,0.09,0.98,1.46,3.11,1.59,988.68,25.53,
52681,0.1,0.09,0.98,1.22,3.3,1.46,988.74,25.55,
52719,0.11,0.09,0.97,1.71,3.11,1.4,988.74,25.55,
52758,0.11,0.09,0.98,1.95,2.99,1.4,988.67,25.54,
52796,0.1,0.09,0.98,1.83,3.23,1.46,988.72,25.54,
52846,0.11,0.09,0.97,1.89,2.93,1.34,988.68,25.53,
52884,0.11,0.09,0.98,2.2,2.62,1.34,988.7,25.53,
52922,0.12,0.09,0.97,3.48,0.79,1.4,988.65,25.54,
52960,0.09,0.11,1.02,2.14,2.32,1.53,988.72,25.53,
52998,0.11,0.09,0.98,2.99,1.95,1.83,988.68,25.54,
53037,0.1,0.09,0.97,1.89,2.87,1.89,988.66,25.55,
53075,0.1,0.09,0.97,2.01,2.93,1.83,988.7,25.54,
53113,0.1,0.09,0.98,2.5,2.56,2.01,988.66,25.54,
53151,0.1,0.08,0.98,1.89,2.87,1.71,988.69,25.54,
53189,0.1,0.08,0.98,1.28,3.3,1.65,988.68,25.55,
53239,0.1,0.08,0.97,1.16,3.54,1.53,988.68,25.54,
53278,0.1,0.09,0.97,1.4,3.17,1.65,988.76,25.55,
53316,0.1,0.09,0.98,2.01,2.75,1.53,988.7,25.54,
53354,0.11,0.08,0.95,7.32,-0.37,1.65,988.72,25.55,
53392,0.1,0.1,0.98,1.89,3.78,1.65,988.74,25.54,
53430,0.1,0.08,0.99,2.08,2.75,1.77,988.75,25.55,
53468,0.1,0.09,0.99,2.26,2.5,1.77,988.67,25.55,
53507,0.1,0.09,0.97,1.59,3.23,1.71,988.72,25.55,
53545,0.1,0.09,0.98,0.73,3.48,1.95,988.67,25.54,
53583,0.1,0.09,0.98,0.67,3.97,1.71,988.67,25.56,
53621,0.1,0.09,0.97,1.28,3.6,1.53,988.71,25.57,
53671,0.1,0.08,0.98,1.95,2.62,1.65,988.65,25.55,
53709,0.1,0.09,0.98,1.95,2.75,1.59,988.75,25.56,
53748,0.11,0.09,0.97,2.08,2.56,1.53,988.69,25.55,
53786,0.1,0.08,0.98,3.11,1.53,1.65,988.76,25.56,
53824,0.1,0.08,0.98,3.3,1.71,1.53,988.74,25.55,
53862,0.1,0.08,0.98,2.44,2.56,1.65,988.71,25.56,
53900,0.1,0.08,0.98,2.75,2.44,1.95,988.67,25.55,
53939,0.1,0.09,0.98,1.59,3.3,1.77,988.67,25.54,
53977,0.1,0.09,0.98,2.56,2.56,1.95,988.73,25.57,
54015,0.1,0.09,0.98,1.77,2.99,1.77,988.71,25.56,
54065,0.1,0.09,0.98,1.89,2.93,2.14,988.71,25.55,
54103,0.1,0.08,0.98,1.53,3.42,1.83,988.66,25.55,
54141,0.1,0.09,0.98,-0.06,4.46,1.83,988.65,25.55,
54179,0.1,0.08,0.98,0.85,3.78,1.83,988.7,25.56,
54218,0.1,0.09,0.97,0.67,3.66,1.65,988.69,25.55,
54256,0.1,0.09,0.98,1.16,3.3,1.46,988.74,25.56,
54294,0.1,0.09,0.98,0.61,3.78,1.83,988.76,25.57,
54332,0.1,0.09,0.98,0.79,3.48,1.65,988.68,25.56,
54370,0.1,0.09,0.98,1.34,3.42,1.71,988.69,25.56,
54409,0.1,0.09,0.98,0.55,3.78,1.22,988.73,25.56,
54447,0.11,0.09,0.98,1.53,3.3,1.16,988.72,25.56,
54497,0.1,0.09,0.97,1.65,3.11,1.34,988.72,25.55,
54535,0.11,0.09,0.97,1.77,3.11,1.28,988.74,25.55,
54573,0.11,0.09,0.97,1.71,3.3,1.22,988.66,25.54,
54611,0.11,0.09,0.97,1.89,3.11,1.4,988.68,25.54,
54649,0.11,0.09,0.98,1.95,3.05,1.34,988.73,25.55,
54687,0.11,0.09,0.98,1.71,3.05,1.22,988.62,25.54,
54726,0.11,0.09,0.97,1.95,3.11,1.46,988.72,25.55,
54764,0.11,0.09,0.98,1.95,2.99,1.28,988.68,25.54,
54802,0.11,0.09,0.98,1.77,3.05,1.28,988.67,25.54,
54840,0.11,0.09,0.98,1.83,2.87,1.22,988.68,25.53,
54916,0.11,0.09,0.97,1.95,2.75,1.34,988.66,25.51,
54954,0.11,0.09,0.98,1.71,2.93,1.34,988.71,25.52,
54992,0.11,0.09,0.98,1.83,2.75,1.28,988.71,25.52,
55082,0.11,0.09,0.98,1.89,2.93,1.28,988.69,25.49,
55120,0.11,0.09,0.98,1.89,2.99,1.34,988.71,25.5,
55158,0.1,0.09,0.98,1.77,3.05,1.4,988.7,25.51,
55197,0.11,0.09,0.98,1.89,3.05,1.34,988.64,25.5,
55235,0.11,0.09,0.98,1.95,3.05,1.28,988.67,25.5,
55273,0.1,0.09,0.98,1.77,3.11,1.34,988.67,25.52,
55311,0.11,0.09,0.98,1.89,2.99,1.28,988.75,25.52,
55349,0.11,0.09,0.97,1.83,3.3,1.34,988.73,25.52,
55399,0.11,0.09,0.97,1.89,3.05,1.22,988.67,25.51,
55437,0.11,0.09,0.97,1.95,3.11,1.4,988.7,25.52,
55476,0.11,0.09,0.98,1.95,3.05,1.34,988.62,25.52,
55514,0.11,0.09,0.98,1.95,2.69,1.4,988.7,25.53,
55552,0.1,0.09,0.98,1.95,2.93,1.4,988.69,25.54,
55590,0.11,0.09,0.98,1.95,3.05,1.34,988.71,25.55,
55628,0.11,0.09,0.97,1.89,2.99,1.28,988.66,25.52,
55667,0.11,0.09,0.98,1.83,2.93,1.4,988.71,25.53,
55705,0.11,0.09,0.98,1.83,2.93,1.28,988.68,25.54,
55743,0.1,0.09,0.98,1.83,3.17,1.28,988.69,25.53,
55793,0.11,0.09,0.98,1.89,3.05,1.4,988.7,25.52,
55831,0.11,0.09,0.98,1.89,3.11,1.16,988.65,25.54,
55869,0.11,0.09,0.98,1.71,3.11,1.22,988.65,25.53,
55907,0.11,0.09,0.98,1.83,3.11,1.34,988.71,25.53,
55946,0.11,0.09,0.98,1.83,3.17,1.28,988.62,25.53,
55984,0.11,0.09,0.97,1.95,3.05,1.22,988.69,25.54,
56022,0.11,0.09,0.98,2.01,3.05,1.22,988.67,25.54,
56060,0.11,0.09,0.98,1.77,2.93,1.22,988.69,25.54,
56099,0.11,0.09,0.97,1.83,3.05,1.28,988.69,25.54,
56137,0.11,0.09,0.98,1.89,3.05,1.34,988.72,25.54,
56187,0.11,0.09,0.97,2.01,2.81,1.22,988.75,25.53,
56225,0.11,0.09,0.98,2.08,2.81,1.28,988.65,25.53,
56263,0.11,0.09,0.98,1.95,2.93,1.16,988.62,25.53,
56301,0.11,0.09,0.98,1.95,2.87,1.34,988.68,25.52,
56339,0.11,0.09,0.98,1.83,2.81,1.28,988.73,25.53,
56378,0.11,0.09,0.98,1.83,3.05,1.22,988.7,25.54,
56416,0.11,0.09,0.98,2.01,2.93,1.34,988.71,25.55,
56454,0.11,0.1,0.98,1.89,3.05,1.28,988.72,25.54,
56492,0.11,0.09,0.97,1.89,3.05,1.22,988.7,25.54,
56530,0.11,0.09,0.98,1.95,2.99,1.4,988.65,25.55,
56569,0.11,0.09,0.98,1.77,2.99,1.4,988.68,25.55,
56619,0.11,0.09,0.98,1.77,2.99,1.4,988.69,25.53,
56657,0.11,0.09,0.98,1.71,3.05,1.22,988.69,25.53,
56695,0.11,0.09,0.97,1.83,2.99,1.28,988.66,25.54,
56733,0.11,0.09,0.98,1.83,2.99,1.34,988.7,25.54,
56771,0.11,0.09,0.98,1.89,3.05,1.28,988.69,25.54,
56809,0.11,0.09,0.98,1.83,2.99,1.34,988.68,25.55,
56848,0.11,0.09,0.98,1.95,2.93,1.46,988.69,25.54,
56886,0.11,0.09,0.98,1.89,2.69,1.22,988.71,25.55,
56924,0.11,0.09,0.98,1.65,2.81,1.16,988.73,25.55,
56962,0.11,0.09,0.98,1.89,2.87,1.34,988.68,25.54,
57012,0.1,0.09,0.98,1.95,2.87,1.34,988.67,25.54,
57050,0.1,0.09,0.98,1.89,2.69,1.16,988.72,25.55,
57088,0.1,0.09,0.98,1.95,2.81,1.16,988.68,25.54,
57127,0.11,0.09,0.98,1.83,2.93,1.28,988.68,25.55,
57165,0.11,0.09,0.97,1.83,3.05,1.22,988.7,25.54,
57203,0.11,0.09,0.98,2.01,3.05,1.28,988.69,25.55,
57241,0.1,0.09,0.98,1.83,3.05,1.4,988.7,25.55,
57279,0.1,0.09,0.98,1.89,2.99,1.22,988.68,25.55,
57318,0.11,0.09,0.98,1.83,2.99,1.4,988.65,25.55,
57356,0.11,0.09,0.98,1.83,2.99,1.22,988.64,25.55,
57394,0.11,0.09,0.98,1.89,2.93,1.28,988.64,25.55,
57444,0.11,0.09,0.98,1.83,2.99,1.34,988.69,25.54,
57482,0.11,0.09,0.98,1.89,3.05,1.22,988.69,25.56,
57520,0.11,0.09,0.98,1.71,2.99,1.34,988.65,25.55,
57559,0.11,0.09,0.98,1.89,2.69,1.46,988.72,25.56,
57597,0.11,0.09,0.98,1.95,2.87,1.22,988.67,25.55,
57635,0.11,0.09,0.98,1.95,2.81,1.34,988.7,25.56,
57673,0.1,0.09,0.98,1.77,2.87,1.28,988.66,25.55,
57711,0.11,0.09,0.98,1.83,2.93,1.4,988.7,25.57,
57750,0.11,0.09,0.98,1.83,2.69,1.34,988.65,25.54,
57788,0.11,0.09,0.98,1.95,2.87,1.46,988.7,25.56,
57838,0.1,0.09,0.98,1.83,2.81,1.34,988.64,25.53,
57876,0.1,0.09,0.98,1.89,2.99,1.34,988.65,25.55,
57914,0.1,0.09,0.98,1.83,3.11,1.22,988.68,25.55,
57952,0.11,0.09,0.98,1.65,3.3,1.34,988.69,25.55,
57991,0.11,0.09,0.98,1.89,2.99,1.28,988.73,25.55,
58029,0.11,0.09,0.98,1.77,3.11,1.22,988.65,25.56,
58067,0.11,0.09,0.98,1.83,3.11,1.34,988.66,25.55,
58105,0.11,0.09,0.98,1.65,2.99,1.22,988.65,25.54,
58143,0.11,0.09,0.98,1.89,2.99,1.28,988.7,25.56,
58181,0.11,0.09,0.98,1.83,2.81,1.4,988.68,25.55,
58220,0.11,0.09,0.98,1.83,2.93,1.34,988.7,25.55,
58348,0.11,0.09,0.98,1.89,2.75,1.16,988.71,25.49,
58386,0.11,0.09,0.98,1.95,2.87,1.22,988.64,25.5,
58424,0.11,0.09,0.97,1.83,2.93,1.22,988.66,25.52,
58514,0.1,0.09,0.98,1.77,2.99,1.34,988.69,25.48,
58552,0.1,0.09,0.98,1.83,3.05,1.34,988.63,25.5,
58590,0.11,0.09,0.98,1.77,3.17,1.46,988.7,25.51,
58628,0.11,0.09,0.98,1.83,3.23,1.34,988.72,25.51,
58666,0.1,0.09,0.98,1.89,3.05,1.22,988.64,25.5,
58704,0.11,0.09,0.97,1.77,2.87,1.28,988.7,25.52,
58743,0.11,0.09,0.97,1.53,3.48,1.34,988.64,25.51,
58793,0.11,0.09,0.97,2.08,3.05,1.4,988.69,25.5,
58831,0.11,0.09,0.98,1.83,2.93,1.46,988.68,25.52,
58869,0.11,0.09,0.98,1.83,2.81,1.4,988.68,25.52,
58907,0.11,0.09,0.98,1.77,2.93,1.22,988.65,25.52,
58945,0.1,0.09,0.98,1.89,3.05,1.22,988.63,25.53,
58984,0.11,0.09,0.97,1.77,2.99,1.28,988.68,25.53,
59022,0.11,0.09,0.98,1.77,3.11,1.22,988.68,25.53,
59060,0.11,0.09,0.98,1.83,3.11,1.28,988.69,25.52,
59098,0.11,0.09,0.98,1.83,2.87,1.22,988.67,25.54,
59136,0.11,0.09,0.98,1.83,2.99,1.28,988.67,25.54,
59175,0.11,0.09,0.97,1.89,3.11,1.22,988.66,25.54,
59224,0.11,0.09,0.97,1.83,3.05,1.28,988.68,25.53,
59263,0.11,0.09,0.97,2.01,3.23,1.28,988.66,25.53,
59301,0.11,0.09,0.98,1.89,3.23,1.34,988.67,25.54,
59339,0.11,0.1,0.98,2.08,2.93,1.1,988.68,25.54,
59377,0.11,0.09,0.98,1.83,2.93,1.16,988.71,25.54,
59416,0.11,0.09,0.98,1.95,2.81,1.28,988.67,25.54,
59454,0.11,0.09,0.98,1.71,2.93,1.28,988.71,25.54,
59492,0.11,0.09,0.98,1.77,3.11,1.46,988.66,25.54,
59530,0.11,0.09,0.98,1.89,3.11,1.4,988.67,25.54,
59569,0.1,0.08,1.0,2.01,2.99,1.4,988.69,25.54,
59619,0.11,0.09,0.98,1.89,3.11,1.28,988.66,25.52,
59657,0.1,0.09,0.98,1.95,2.99,1.22,988.67,25.54,
59695,0.12,0.09,0.98,2.01,2.81,1.34,988.64,25.53,
59733,0.11,0.09,0.98,1.89,2.75,1.22,988.68,25.54,
59771,0.11,0.09,0.98,1.77,2.99,1.34,988.69,25.54,
59810,0.09,0.09,0.98,1.89,2.75,1.46,988.71,25.54,
59848,0.1,0.1,0.98,1.83,3.17,1.34,988.69,25.54,
59886,0.11,0.1,0.98,1.83,3.11,1.34,988.63,25.54,
59924,0.11,0.09,0.98,1.89,3.11,1.34,988.69,25.56,
59962,0.11,0.09,0.98,1.77,3.23,1.46,988.7,25.55,
60001,0.11,0.09,0.98,1.89,2.93,1.28,988.68,25.56,
60051,0.1,0.09,0.98,1.83,3.05,1.28,988.66,25.54,
60089,0.11,0.09,0.98,2.01,2.87,1.22,988.7,25.56,
60127,0.11,0.09,0.98,1.89,2.93,1.34,988.69,25.56,
60165,0.11,0.09,0.98,1.71,2.99,1.22,988.68,25.55,
60203,0.11,0.09,0.98,1.89,2.99,1.22,988.67,25.55,
60242,0.1,0.09,0.98,1.95,2.99,1.34,988.68,25.56,
60280,0.11,0.09,0.98,1.95,2.87,1.4,988.66,25.55,
60318,0.11,0.09,0.98,1.83,2.99,1.16,988.67,25.56,
60356,0.11,0.09,0.98,1.77,2.93,1.16,988.68,25.57,
60394,0.11,0.09,0.98,1.83,2.93,1.34,988.74,25.57,
60444,0.1,0.09,0.98,1.95,2.99,1.4,988.66,25.55,
60482,0.11,0.09,0.98,1.77,3.11,1.16,988.66,25.56,
60520,0.11,0.09,0.98,1.83,2.99,1.16,988.71,25.56,
60559,0.11,0.09,0.98,1.95,3.05,1.22,988.64,25.55,
60597,0.11,0.09,0.98,1.95,3.05,1.4,988.69,25.56,
60635,0.11,0.09,0.98,1.83,2.99,1.34,988.65,25.55,
60673,0.11,0.09,0.98,1.89,2.99,1.34,988.7,25.57,
60711,0.11,0.09,0.98,1.71,3.05,1.28,988.65,25.56,
60750,0.11,0.09,0.98,1.89,2.93,1.34,988.69,25.55,
60788,0.11,0.09,0.98,2.01,3.05,1.28,988.66,25.56,
60838,0.11,0.09,0.98,1.83,2.99,1.28,988.64,25.54,
60876,0.11,0.09,0.98,1.77,2.81,1.34,988.67,25.56,
60914,0.11,0.09,0.98,1.95,3.05,1.34,988.69,25.57,
60952,0.11,0.09,0.98,1.77,2.99,1.34,988.59,25.54,
60991,0.11,0.09,0.98,1.89,3.05,1.22,988.65,25.56,
61029,0.11,0.09,0.98,1.89,2.87,1.34,988.66,25.57,
61067,0.11,0.09,0.98,1.89,2.93,1.34,988.73,25.56,
61105,0.11,0.09,0.98,1.83,3.11,1.28,988.74,25.57,
61143,0.11,0.09,0.98,1.89,3.11,1.4,988.67,25.57,
61181,0.11,0.09,0.98,1.83,3.11,1.34,988.63,25.57,
61220,0.11,0.09,0.98,1.77,3.11,1.34,988.65,25.58,
61270,0.11,0.09,0.98,1.95,2.93,1.4,988.73,25.57,
61308,0.11,0.09,0.98,1.95,3.05,1.16,988.66,25.56,
61346,0.11,0.09,0.98,1.83,2.87,1.28,988.59,25.56,
61384,0.11,0.09,0.98,1.89,2.99,1.46,988.68,25.58,
61422,0.11,0.09,0.98,1.89,2.93,1.28,988.63,25.57,
61460,0.11,0.09,0.98,2.01,2.99,1.28,988.63,25.57,
61499,0.11,0.09,0.98,1.83,2.87,1.16,988.63,25.57,
61537,0.11,0.09,0.98,1.83,2.93,1.4,988.65,25.58,
61575,0.11,0.09,0.98,1.89,2.99,1.28,988.58,25.58,
61613,0.11,0.09,0.98,1.95,2.75,1.22,988.67,25.59,
61689,0.1,0.09,0.98,1.83,2.99,1.28,988.64,25.54,
61727,0.1,0.09,0.98,1.77,3.05,1.28,988.65,25.56,
61765,0.1,0.09,0.98,1.65,3.05,1.22,988.62,25.56,
61855,0.11,0.09,0.98,1.71,3.17,1.28,988.65,25.53,
61893,0.11,0.09,0.98,1.89,3.05,1.46,988.71,25.54,
61931,0.11,0.09,0.98,1.77,3.05,1.28,988.68,25.56,
61970,0.11,0.09,0.98,1.77,2.99,1.22,988.65,25.55,
62008,0.11,0.09,0.98,1.71,2.99,1.4,988.7,25.56,
62046,0.11,0.09,0.98,1.71,3.05,1.34,988.57,25.55,
62084,0.11,0.09,0.98,1.83,2.87,1.16,988.68,25.56,
62122,0.11,0.09,0.98,1.89,2.93,1.16,988.66,25.56,
62172,0.11,0.09,0.98,1.89,2.81,1.28,988.66,25.55,
62210,0.11,0.09,0.98,1.77,2.99,1.16,988.68,25.57,
62248,0.11,0.09,0.98,1.89,2.87,1.46,988.67,25.56,
62287,0.1,0.09,0.98,1.89,2.93,1.28,988.66,25.56,
62325,0.1,0.09,0.98,1.71,3.05,1.28,988.63,25.56,
62363,0.1,0.09,0.98,1.89,3.05,1.34,988.65,25.57,
62401,0.11,0.09,0.98,1.71,3.11,1.34,988.65,25.57,
62439,0.11,0.09,0.98,1.71,2.99,1.46,988.66,25.58,
62478,0.11,0.09,0.98,1.83,3.05,1.22,988.7,25.58,
62516,0.11,0.09,0.98,1.77,2.99,1.28,988.7,25.57,
62566,0.11,0.09,0.98,1.89,2.93,1.22,988.69,25.55,
62604,0.11,0.09,0.98,1.71,2.93,1.22,988.63,25.56,
62642,0.11,0.09,0.98,1.89,3.05,1.34,988.67,25.58,
62680,0.11,0.09,0.98,1.95,3.05,1.22,988.7,25.58,
62718,0.11,0.09,0.98,1.89,2.99,1.34,988.65,25.57,
62756,0.11,0.09,0.98,1.83,2.81,1.34,988.65,25.58,
62795,0.11,0.09,0.98,1.89,2.93,1.34,988.68,25.57,
62833,0.11,0.09,0.98,2.08,2.87,1.28,988.65,25.59,
62871,0.11,0.09,0.98,1.77,2.93,1.28,988.7,25.59,
62909,0.11,0.09,0.98,1.77,2.93,1.22,988.74,25.6,
62947,0.11,0.09,0.98,1.71,2.93,1.4,988.7,25.58,
62997,0.1,0.09,0.98,1.95,2.87,1.28,988.7,25.56,
63035,0.11,0.09,0.98,1.77,3.11,1.34,988.65,25.58,
63074,0.11,0.09,0.98,1.83,3.11,1.28,988.7,25.58,
63112,0.11,0.09,0.98,1.89,2.99,1.28,988.64,25.58,
63150,0.11,0.09,0.98,1.89,2.99,1.34,988.68,25.57,
63188,0.11,0.09,0.98,1.77,3.05,1.22,988.66,25.58,
63226,0.11,0.09,0.98,1.77,3.05,1.28,988.69,25.59,
63265,0.11,0.09,0.98,1.89,2.99,1.34,988.67,25.59,
63303,0.11,0.09,0.98,1.83,3.05,1.4,988.67,25.58,
63341,0.11,0.09,0.98,1.89,2.93,1.4,988.67,25.59,
63391,0.11,0.09,0.98,1.77,2.93,1.34,988.67,25.57,
63429,0.11,0.09,0.98,1.89,2.87,1.28,988.69,25.58,
63467,0.11,0.09,0.98,1.95,2.93,1.34,988.73,25.58,
63506,0.11,0.09,0.98,1.95,2.93,1.4,988.68,25.58,
63544,0.11,0.09,0.98,1.65,2.81,1.34,988.65,25.57,
63582,0.11,0.09,0.98,1.95,2.93,1.46,988.59,25.57,
63620,0.11,0.09,0.98,1.83,2.87,1.22,988.72,25.59,
63658,0.11,0.09,0.98,1.89,2.99,1.34,988.62,25.57,
63697,0.11,0.09,0.98,1.95,3.05,1.46,988.64,25.57,
63735,0.11,0.09,0.98,1.89,2.99,1.22,988.66,25.57,
63773,0.11,0.09,0.98,2.01,3.23,1.22,988.64,25.57,
63823,0.11,0.09,0.98,1.89,2.93,1.28,988.67,25.55,
63861,0.11,0.09,0.98,1.77,2.99,1.28,988.64,25.57,
63899,0.11,0.09,0.98,1.89,3.11,1.16,988.76,25.57,
63938,0.11,0.09,0.98,1.83,3.05,1.34,988.7,25.56,
63976,0.11,0.09,0.98,1.77,2.99,1.28,988.69,25.56,
64014,0.11,0.09,0.98,1.89,3.05,1.04,988.67,25.56,
64052,0.11,0.09,0.98,1.83,3.05,1.22,988.67,25.56,
64090,0.11,0.09,0.98,1.89,2.87,1.28,988.7,25.56,
64128,0.11,0.09,0.98,1.77,2.93,1.28,988.65,25.55,
64167,0.1,0.09,0.98,1.89,2.81,1.28,988.72,25.55,
64217,0.11,0.09,0.98,1.83,2.93,1.22,988.66,25.54,
64255,0.11,0.09,0.98,1.89,2.93,1.28,988.65,25.54,
64293,0.11,0.09,0.98,1.77,2.75,1.28,988.67,25.54,
64331,0.11,0.09,0.98,1.71,2.93,1.22,988.68,25.56,
64369,0.11,0.09,0.98,1.83,2.99,1.34,988.66,25.54,
64407,0.11,0.09,0.98,1.83,2.99,1.28,988.68,25.56,
64446,0.11,0.09,0.98,1.89,3.11,1.34,988.67,25.56,
64484,0.11,0.09,0.98,1.77,2.99,1.28,988.7,25.56,
64522,0.11,0.09,0.98,1.89,2.93,1.34,988.67,25.56,
64560,0.11,0.09,0.98,1.89,3.17,1.1,988.65,25.57,
64610,0.11,0.09,0.98,1.95,3.05,1.53,988.7,25.55,
64648,0.11,0.09,0.98,2.01,2.93,1.34,988.68,25.56,
64687,0.11,0.09,0.98,1.77,2.93,1.28,988.66,25.57,
64725,0.11,0.09,0.98,1.83,2.87,1.34,988.68,25.56,
64763,0.11,0.09,0.98,1.83,2.93,1.4,988.7,25.57,
64801,0.11,0.09,0.98,2.08,2.93,1.4,988.71,25.56,
64839,0.11,0.09,0.98,1.95,2.81,1.22,988.66,25.56,
64877,0.11,0.09,0.98,1.89,3.05,1.4,988.72,25.56,
64915,0.11,0.09,0.98,1.89,2.99,1.28,988.61,25.55,
64954,0.11,0.09,0.98,1.83,3.05,1.46,988.69,25.57,
64992,0.11,0.09,0.98,1.77,3.11,1.34,988.68,25.58,
65068,0.11,0.09,0.98,1.89,3.11,1.4,988.7,25.54,
65106,0.11,0.09,0.98,1.83,2.99,1.28,988.66,25.54,
65144,0.11,0.09,0.98,1.89,3.11,1.28,988.7,25.55,
65234,0.11,0.09,0.98,1.95,3.05,1.16,988.66,25.52,
65272,0.11,0.09,0.98,1.95,3.17,1.46,988.72,25.54,
65310,0.11,0.09,0.98,1.95,2.87,1.46,988.72,25.54,
65348,0.11,0.09,0.98,2.01,2.99,1.22,988.68,25.54,
65387,0.11,0.09,0.98,1.83,2.81,1.34,988.67,25.54,
65425,0.11,0.09,0.98,1.83,2.81,1.34,988.66,25.56,
65463,0.11,0.09,0.98,1.71,2.87,1.28,988.7,25.56,
65513,0.11,0.09,0.98,2.08,2.93,1.28,988.68,25.55,
65551,0.1,0.09,0.98,1.83,2.87,1.22,988.68,25.55,
65589,0.11,0.09,0.98,1.83,2.93,1.28,988.69,25.57,
65627,0.11,0.09,0.98,1.83,3.17,1.34,988.68,25.55,
65665,0.11,0.09,0.98,1.89,2.99,1.4,988.69,25.56,
65704,0.11,0.09,0.98,1.95,2.93,1.28,988.71,25.57,
65742,0.11,0.09,0.98,1.65,2.99,1.22,988.7,25.57,
65780,0.11,0.09,0.98,1.95,2.99,1.34,988.65,25.57,
65818,0.11,0.09,0.98,1.83,2.93,1.22,988.73,25.57,
65856,0.11,0.09,0.98,1.77,3.11,1.28,988.71,25.58,
65895,0.11,0.09,0.98,2.01,3.05,1.4,988.71,25.57,
65944,0.11,0.09,0.98,1.77,2.93,1.22,988.65,25.55,
65982,0.11,0.09,0.97,1.83,2.99,1.28,988.65,25.58,
66021,0.11,0.09,0.98,1.89,2.99,1.28,988.66,25.57,
66059,0.11,0.09,0.98,1.83,2.87,1.16,988.64,25.57,
66097,0.11,0.09,0.98,1.89,3.11,1.4,988.65,25.56,
66135,0.11,0.09,0.98,1.89,3.05,1.4,988.62,25.57,
66173,0.11,0.09,0.98,1.89,2.93,1.34,988.73,25.57,
66211,0.11,0.09,0.98,1.95,3.05,1.22,988.68,25.57,
66250,0.11,0.09,0.98,1.83,2.87,1.16,988.74,25.57,
66288,0.11,0.09,0.98,1.89,2.99,1.28,988.64,25.56,
66337,0.11,0.09,0.98,2.01,3.17,1.22,988.67,25.56,
66376,0.11,0.09,0.98,1.71,3.11,1.34,988.71,25.57,
66414,0.11,0.09,0.98,1.77,3.05,1.46,988.72,25.58,
66452,0.11,0.09,0.98,1.83,3.05,1.16,988.7,25.58,
66490,0.1,0.09,0.98,1.83,2.87,1.4,988.74,25.57,
66528,0.1,0.09,0.98,2.01,2.99,1.28,988.67,25.56,
66567,0.11,0.09,0.98,1.83,2.99,1.16,988.7,25.57,
66605,0.11,0.09,0.98,1.95,2.99,1.16,988.65,25.57,
66643,0.11,0.09,0.98,2.08,2.93,1.28,988.66,25.57,
66681,0.11,0.09,0.98,1.83,2.99,1.28,988.67,25.56,
66719,0.11,0.09,0.98,1.83,2.87,1.28,988.65,25.56,
66769,0.11,0.09,0.98,2.01,2.93,1.34,988.66,25.56,
66807,0.11,0.09,0.98,1.77,3.05,1.34,988.64,25.56,
66845,0.16,0.09,0.95,1.83,2.93,1.28,988.66,25.57,
66884,0.1,0.08,1.0,1.77,2.87,1.4,988.64,25.56,
66922,0.11,0.1,0.97,1.77,3.05,1.34,988.65,25.56,
66960,0.1,0.1,0.98,1.83,2.99,1.34,988.68,25.57,
66998,0.11,0.09,0.98,1.83,2.87,1.4,988.7,25.57,
67036,0.11,0.09,0.98,1.89,2.87,1.22,988.7,25.57,
67074,0.11,0.09,0.97,1.83,3.17,1.28,988.67,25.56,
67112,0.11,0.09,0.98,1.83,3.05,1.46,988.67,25.57,
67162,0.11,0.09,0.98,2.08,2.99,1.28,988.66,25.55,
67200,0.11,0.09,0.98,1.77,3.05,1.28,988.68,25.55,
67239,0.11,0.09,0.98,1.95,3.05,1.34,988.73,25.58,
67277,0.11,0.09,0.97,1.83,2.93,1.22,988.66,25.56,
67315,0.11,0.09,0.98,1.83,3.11,1.4,988.69,25.58,
67353,0.11,0.09,0.98,1.83,2.99,1.4,988.67,25.56,
67391,0.11,0.09,0.98,1.77,2.93,1.34,988.7,25.57,
67429,0.11,0.09,0.98,1.77,2.93,1.4,988.68,25.57,
67468,0.11,0.09,0.98,1.89,2.99,1.28,988.72,25.58,
67506,0.11,0.09,0.98,1.83,2.99,1.22,988.66,25.57,
67544,0.11,0.09,0.98,1.83,2.99,1.34,988.63,25.57,
67594,0.11,0.09,0.98,1.89,3.11,1.28,988.69,25.57,
67632,0.11,0.09,0.98,1.77,2.99,1.16,988.63,25.56,
67670,0.11,0.09,0.98,1.89,3.05,1.28,988.73,25.59,
67708,0.11,0.09,0.98,1.83,2.99,1.22,988.63,25.56,
67747,0.11,0.09,0.98,1.95,2.99,1.16,988.64,25.57,
67785,0.11,0.09,0.98,2.01,2.87,1.16,988.68,25.58,
67823,0.11,0.09,0.98,1.89,2.99,1.28,988.71,25.56,
67861,0.11,0.09,0.98,1.77,2.99,1.16,988.59,25.56,
67900,0.11,0.09,0.98,1.95,2.99,1.22,988.71,25.56,
67938,0.11,0.09,0.98,1.89,2.87,1.22,988.71,25.57,
67988,0.11,0.09,0.98,1.95,2.99,1.34,988.68,25.55,
68026,0.1,0.09,0.97,1.83,3.11,1.4,988.63,25.56,
68064,0.11,0.09,0.98,1.89,2.93,1.4,988.65,25.57,
68102,0.11,0.09,0.98,1.83,2.99,1.28,988.68,25.55,
68140,0.11,0.09,0.97,1.95,2.93,1.28,988.67,25.56,
68178,0.11,0.09,0.98,2.01,3.17,1.53,988.65,25.56,
68217,0.11,0.09,0.98,2.01,2.99,1.34,988.69,25.57,
68255,0.1,0.09,0.98,1.89,2.99,1.28,988.67,25.56,
68293,0.11,0.09,0.98,2.14,3.05,1.28,988.73,25.56,
68331,0.11,0.09,0.98,2.32,2.5,1.16,988.68,25.57,
68408,0.11,0.09,0.97,1.77,3.23,1.4,988.7,25.54,
68447,0.11,0.09,0.97,1.89,2.87,1.46,988.66,25.56,
68485,0.11,0.09,0.98,1.77,2.99,1.4,988.66,25.56,
68575,0.1,0.09,0.98,1.83,2.87,1.4,988.67,25.52,
68613,0.11,0.09,0.97,2.01,2.62,1.28,988.68,25.54,
68651,0.11,0.09,0.97,1.95,2.75,1.28,988.66,25.54,
68689,0.11,0.09,0.98,1.95,3.05,1.22,988.68,25.55,
68728,0.11,0.09,0.98,1.83,3.11,1.28,988.68,25.56,
68766,0.1,0.09,0.98,1.95,2.75,1.46,988.65,25.55,
68804,0.1,0.09,0.98,1.89,2.81,1.53,988.68,25.55,
68842,0.1,0.09,0.98,1.59,3.05,1.34,988.72,25.55,
68892,0.11,0.09,0.98,1.89,3.11,1.34,988.71,25.55,
68930,0.11,0.09,0.97,1.95,2.99,1.53,988.71,25.56,
68969,0.11,0.1,0.98,1.95,2.99,1.34,988.68,25.55,
69007,0.1,0.09,0.98,1.95,2.87,1.4,988.68,25.56,
69045,0.1,0.09,0.98,2.14,2.69,1.28,988.69,25.55,
69083,0.1,0.09,0.97,1.89,2.99,1.28,988.71,25.56,
69121,0.11,0.09,0.97,2.14,3.05,1.28,988.69,25.56,
69160,0.11,0.09,0.98,2.08,2.75,1.46,988.68,25.56,
69198,0.11,0.09,0.98,1.95,2.93,1.4,988.72,25.55,
69236,0.11,0.09,0.97,2.01,2.93,1.46,988.65,25.56,
69286,0.11,0.09,0.98,1.95,3.05,1.4,988.7,25.54,
69324,0.11,0.09,0.97,1.89,3.23,1.53,988.7,25.55,
69362,0.1,0.09,0.98,1.95,2.93,1.59,988.69,25.56,
69400,0.1,0.09,0.98,1.95,2.93,1.4,988.67,25.57,
69438,0.11,0.09,0.97,2.01,2.87,1.28,988.66,25.57,
69477,0.11,0.09,0.97,1.65,3.17,1.4,988.68,25.57,
69515,0.11,0.09,0.98,1.95,3.05,1.53,988.67,25.56,
69553,0.11,0.09,0.98,1.89,3.05,1.34,988.65,25.55,
69591,0.1,0.09,0.98,1.83,3.05,1.34,988.68,25.57,
69629,0.1,0.09,0.98,1.89,3.17,1.34,988.69,25.58,
69668,0.1,0.09,0.98,2.01,2.81,1.22,988.7,25.57,
69717,0.11,0.09,0.98,1.95,3.11,1.34,988.65,25.56,
69756,0.1,0.09,0.98,1.83,3.11,1.46,988.71,25.58,
69794,0.1,0.09,0.98,1.77,3.05,1.28,988.67,25.57,
69832,0.1,0.09,0.98,1.77,3.17,1.46,988.68,25.57,
69870,0.1,0.09,0.98,1.83,3.11,1.4,988.68,25.58,
69908,0.1,0.09,0.98,1.77,3.11,1.59,988.67,25.56,
69947,0.11,0.09,0.98,1.83,2.87,1.53,988.7,25.57,
69985,0.11,0.09,0.98,1.71,2.87,1.46,988.72,25.57,
70023,0.11,0.09,0.97,1.89,2.99,1.4,988.63,25.57,
70061,0.1,0.09,0.98,1.95,2.99,1.34,988.68,25.58,
70111,0.11,0.09,0.98,1.83,3.17,1.34,988.69,25.57,
70149,0.11,0.09,0.98,1.95,2.87,1.4,988.67,25.57,
70187,0.1,0.09,0.98,1.83,2.87,1.34,988.69,25.57,
70226,0.1,0.09,0.98,1.77,3.05,1.34,988.68,25.58,
70264,0.11,0.09,0.98,1.89,2.87,1.28,988.7,25.59,
70302,0.11,0.09,0.98,1.89,2.93,1.46,988.72,25.59,
70340,0.11,0.09,0.98,1.83,2.99,1.34,988.66,25.57,
70378,0.11,0.09,0.98,1.89,3.11,1.4,988.62,25.58,
70416,0.11,0.09,0.98,2.01,3.05,1.4,988.69,25.59,
70455,0.1,0.09,0.98,2.01,3.05,1.28,988.66,25.58,
70493,0.11,0.09,0.98,2.01,2.99,1.46,988.68,25.59,
70543,0.11,0.09,0.98,2.01,2.87,1.46,988.69,25.56,
70581,0.1,0.09,0.98,1.89,2.93,1.46,988.67,25.57,
70619,0.1,0.09,0.98,2.14,2.75,1.34,988.65,25.58,
70657,0.1,0.09,0.98,2.01,2.99,1.34,988.7,25.58,
70695,0.11,0.09,0.98,2.01,3.05,1.4,988.66,25.57,
70734,0.1,0.09,0.98,2.08,2.93,1.34,988.7,25.58,
70772,0.07,0.05,0.99,1.77,3.3,1.22,988.67,25.59,
70810,0.1,0.09,0.98,2.01,2.87,1.28,988.68,25.59,
70848,0.12,0.12,0.95,1.83,2.81,1.53,988.75,25.59,
70886,0.1,0.09,0.97,1.95,2.93,1.53,988.71,25.59,
70936,0.11,0.09,0.98,1.77,2.99,1.46,988.69,25.58,
70974,0.1,0.09,0.98,2.14,3.05,1.4,988.65,25.58,
71012,0.1,0.09,0.98,1.77,3.42,1.22,988.72,25.59,
71051,0.11,0.09,0.98,2.01,2.75,1.46,988.72,25.6,
71089,0.1,0.09,0.97,1.89,3.11,1.46,988.65,25.58,
71127,0.11,0.09,0.98,1.89,2.93,1.46,988.73,25.6,
71165,0.1,0.09,0.98,1.95,2.99,1.53,988.69,25.59,
71203,0.1,0.09,0.98,1.89,3.05,1.34,988.72,25.58,
71241,0.1,0.09,0.97,1.71,3.11,1.46,988.65,25.58,
71280,0.11,0.09,0.97,1.71,2.99,1.46,988.7,25.59,
71318,0.1,0.09,0.98,1.71,2.81,1.65,988.7,25.58,
71367,0.1,0.09,0.98,1.95,2.75,1.46,988.73,25.58,
71406,0.11,0.09,0.98,2.01,2.93,1.46,988.68,25.58,
71444,0.1,0.09,0.98,1.83,3.05,1.4,988.73,25.59,
71482,0.1,0.08,0.97,2.14,2.99,1.28,988.73,25.58,
71520,0.11,0.09,0.97,1.77,3.17,1.46,988.7,25.58,
71558,0.11,0.09,0.98,1.95,2.87,1.34,988.64,25.6,
71596,0.1,0.09,0.98,1.95,2.69,1.34,988.67,25.59,
71635,0.11,0.09,0.97,1.65,2.99,1.34,988.68,25.59,
71673,0.1,0.09,0.98,1.89,2.81,1.46,988.67,25.59,
71711,0.11,0.09,0.98,1.71,2.99,1.34,988.68,25.6,
71787,0.11,0.09,0.98,2.01,3.17,1.4,988.65,25.56,
71825,0.1,0.09,0.97,2.01,3.3,1.34,988.69,25.58,
71863,0.1,0.09,0.98,2.01,3.11,1.34,988.63,25.56,
71953,0.1,0.09,0.98,1.77,3.11,1.46,988.68,25.53,
71991,0.11,0.09,0.98,1.83,2.99,1.4,988.68,25.56,
72029,0.11,0.09,0.98,1.89,2.81,1.4,988.66,25.56,
72067,0.1,0.09,0.98,2.01,2.87,1.22,988.69,25.57,
72106,0.1,0.09,0.98,1.95,2.81,1.4,988.68,25.57,
72144,0.1,0.09,0.98,1.89,2.99,1.53,988.69,25.57,
72182,0.1,0.09,0.98,1.83,3.42,1.16,988.7,25.57,
72220,0.11,0.09,0.98,1.83,3.23,1.46,988.67,25.57,
72270,0.11,0.09,0.98,1.71,3.36,1.46,988.67,25.57,
72308,0.11,0.09,0.97,1.89,3.05,1.46,988.67,25.57,
72347,0.11,0.09,0.98,2.08,2.5,1.28,988.66,25.58,
72385,0.11,0.09,0.98,1.77,3.05,1.4,988.71,25.57,
72423,0.11,0.09,0.97,1.95,2.87,1.46,988.67,25.58,
72461,0.11,0.09,0.98,1.83,2.99,1.4,988.65,25.58,
72499,0.1,0.09,0.98,1.89,2.81,1.46,988.68,25.58,
72537,0.1,0.09,0.98,1.77,3.05,1.34,988.7,25.59,
72576,0.1,0.09,0.98,2.01,3.05,1.34,988.68,25.59,
72614,0.1,0.09,0.98,1.83,2.93,1.4,988.67,25.59,
72664,0.1,0.09,0.98,1.83,2.99,1.53,988.7,25.57,
72702,0.1,0.09,0.98,2.01,3.11,1.4,988.63,25.58,
72740,0.1,0.09,0.98,2.01,2.99,1.4,988.71,25.6,
72778,0.1,0.09,0.98,1.89,2.87,1.28,988.65,25.57,
72816,0.1,0.09,0.98,1.83,2.93,1.34,988.73,25.6,
72854,0.11,0.09,0.98,1.95,2.99,1.34,988.67,25.58,
72893,0.1,0.08,0.98,2.01,2.87,1.53,988.72,25.59,
72931,0.1,0.09,0.98,1.77,3.23,1.4,988.7,25.59,
72969,0.1,0.08,0.98,2.14,3.42,1.16,988.68,25.6,
73007,0.11,0.08,0.98,1.77,3.3,1.46,988.65,25.59,
73057,0.11,0.09,0.97,1.83,3.11,1.46,988.61,25.59,
73095,0.11,0.09,0.97,1.77,3.23,1.4,988.67,25.59,
73133,0.11,0.09,1.0,1.89,3.17,1.4,988.73,25.6,
73171,0.11,0.09,0.98,1.65,3.05,1.53,988.69,25.59,
73210,0.11,0.09,0.98,1.4,3.3,1.53,988.69,25.59,
73248,0.11,0.09,0.97,1.71,3.17,1.34,988.69,25.6,
73286,0.1,0.09,0.98,1.59,3.3,1.4,988.65,25.6,
73324,0.11,0.09,0.98,1.59,3.11,1.46,988.72,25.61,
73362,0.14,0.11,0.89,2.44,2.32,1.22,988.68,25.59,
73401,0.1,0.09,1.0,1.53,3.6,1.59,988.66,25.6,
73439,0.1,0.08,0.97,2.2,2.93,1.22,988.65,25.6,
73489,0.11,0.09,0.98,1.71,3.23,1.46,988.71,25.59,
73527,0.11,0.09,0.98,1.59,3.17,1.53,988.64,25.59,
73565,0.1,0.09,0.98,1.89,3.05,1.34,988.7,25.6,
73603,0.11,0.09,0.97,1.53,3.42,1.4,988.67,25.58,
73641,0.11,0.09,0.97,1.59,3.17,1.16,988.67,25.59,
73680,0.1,0.09,0.98,2.08,2.56,1.04,988.69,25.59,
73718,0.11,0.09,0.97,1.53,3.23,1.46,988.66,25.59,
73756,0.11,0.09,0.98,2.08,2.75,1.28,988.66,25.59,
73794,0.1,0.09,0.98,1.65,3.17,1.28,988.67,25.6,
73832,0.1,0.09,0.98,1.89,2.81,1.16,988.69,25.6,
73882,0.11,0.09,0.98,1.71,3.05,1.4,988.66,25.58,
73920,0.11,0.08,0.96,1.89,2.81,1.34,988.7,25.58,
73959,0.11,0.09,0.98,1.83,2.99,1.34,988.69,25.59,
73997,0.11,0.09,0.98,1.77,3.3,1.4,988.64,25.59,
74035,0.11,0.09,0.97,1.71,2.81,1.34,988.64,25.59,
74073,0.11,0.09,0.98,1.83,3.23,1.34,988.71,25.59,
74111,0.1,0.09,0.97,2.01,2.81,1.4,988.69,25.61,
74150,0.11,0.09,0.98,1.89,3.11,1.22,988.67,25.59,
74188,0.11,0.09,0.98,2.08,2.99,1.22,988.68,25.6,
74226,0.11,0.09,0.98,1.89,3.05,1.4,988.68,25.6,
74264,0.11,0.09,0.98,1.83,3.17,1.4,988.64,25.59,
74314,0.11,0.09,0.98,1.77,3.11,1.34,988.65,25.59,
74352,0.11,0.09,0.98,1.77,3.17,1.28,988.66,25.59,
74390,0.11,0.09,0.97,1.95,3.17,1.4,988.72,25.6,
74429,0.11,0.09,0.98,1.83,3.11,1.28,988.7,25.6,
74467,0.11,0.09,0.98,1.89,3.05,1.4,988.7,25.59,
74505,0.11,0.09,0.98,1.77,3.11,1.28,988.66,25.6,
74543,0.11,0.09,0.98,1.95,2.75,1.28,988.7,25.6,
74581,0.1,0.09,0.98,1.89,2.93,1.4,988.68,25.6,
74619,0.1,0.09,0.98,1.83,2.93,1.22,988.68,25.6,
74658,0.1,0.09,0.97,1.77,3.11,1.34,988.67,25.61,
74708,0.11,0.09,0.98,2.08,3.11,1.4,988.66,25.58,
74746,0.11,0.09,0.97,1.95,3.36,1.22,988.63,25.6,
74784,0.11,0.09,0.98,1.95,3.11,1.46,988.62,25.59,
74822,0.11,0.09,0.98,2.2,2.75,1.34,988.67,25.6,
74860,0.1,0.09,0.98,2.26,2.69,1.22,988.68,25.61,
74898,0.11,0.09,0.98,2.01,2.75,1.65,988.66,25.61,
74937,0.1,0.09,0.97,2.08,2.62,1.53,988.64,25.6,
74975,0.1,0.09,0.98,2.26,2.75,1.46,988.68,25.6,
75013,0.1,0.09,0.98,2.14,2.62,1.59,988.73,25.61,
75051,0.1,0.09,0.98,2.2,2.56,1.34,988.66,25.6,
75089,0.11,0.09,0.98,2.2,2.44,1.46,988.64,25.6,
75165,0.1,0.09,0.98,1.59,3.54,1.46,988.66,25.58,
75204,0.1,0.09,0.98,1.4,4.03,1.16,988.65,25.58,
75242,0.11,0.09,0.97,1.89,2.69,1.53,988.68,25.59,
75332,0.1,0.09,0.97,2.44,2.44,1.28,988.68,25.54,
75370,0.1,0.09,0.98,1.59,2.99,1.46,988.63,25.56,
75408,0.1,0.09,0.98,2.56,2.01,1.46,988.68,25.59,
75446,0.1,0.09,0.98,2.01,3.05,1.53,988.73,25.58,
75484,0.1,0.09,0.98,1.77,3.17,1.53,988.7,25.59,
75522,0.1,0.09,0.97,1.59,3.48,1.46,988.74,25.59,
75561,0.1,0.09,0.98,1.46,3.72,1.46,988.67,25.58,
75611,0.1,0.08,0.98,1.28,3.6,1.46,988.66,25.59,
75649,0.11,0.09,0.98,1.89,2.93,1.46,988.69,25.59,
75687,0.1,0.09,0.98,1.89,3.05,1.22,988.71,25.59,
75725,0.11,0.09,0.98,1.89,2.99,1.46,988.64,25.59,
75763,0.11,0.09,0.98,1.77,3.11,1.46,988.64,25.59,
75801,0.11,0.09,0.98,1.71,3.05,1.34,988.67,25.59,
75840,0.11,0.09,0.98,1.89,2.81,1.34,988.7,25.59,
75878,0.1,0.09,0.98,1.95,2.81,1.34,988.67,25.6,
75916,0.1,0.09,0.98,2.32,2.2,1.22,988.68,25.6,
75954,0.1,0.09,0.98,2.26,2.5,1.4,988.65,25.6,
75992,0.1,0.09,0.98,2.01,2.38,1.4,988.62,25.6,
76042,0.1,0.09,0.98,2.38,2.56,1.46,988.66,25.58,
76080,0.1,0.09,0.98,1.83,2.93,1.46,988.69,25.59,
76119,0.1,0.09,0.98,1.89,2.93,1.34,988.64,25.58,
76157,0.1,0.09,0.98,1.65,3.23,1.53,988.64,25.59,
76195,0.1,0.09,0.98,1.53,3.6,1.34,988.68,25.6,
76233,0.1,0.09,0.98,1.77,3.23,1.46,988.69,25.58,
76272,0.1,0.09,0.98,1.53,3.42,1.28,988.67,25.59,
76310,0.1,0.09,0.98,1.71,3.17,1.46,988.68,25.59,
76348,0.11,0.09,0.97,1.59,3.11,1.34,988.71,25.6,
76386,0.1,0.09,0.98,1.77,3.3,1.4,988.65,25.59,
76436,0.11,0.09,0.98,1.83,3.17,1.28,988.65,25.57,
76474,0.11,0.09,0.98,1.77,3.17,1.34,988.63,25.58,
76512,0.11,0.09,0.98,1.71,3.11,1.53,988.71,25.6,
76550,0.1,0.09,0.98,1.89,2.99,1.28,988.65,25.58,
76589,0.11,0.09,0.98,1.77,3.05,1.28,988.7,25.59,
76627,0.11,0.09,0.98,1.77,3.05,1.28,988.64,25.59,
76665,0.11,0.09,0.98,2.08,3.17,1.34,988.67,25.59,
76703,0.11,0.09,0.98,1.95,3.05,1.4,988.7,25.6,
76741,0.11,0.09,0.98,1.89,3.05,1.22,988.67,25.59,
76780,0.11,0.09,0.98,1.83,2.93,1.4,988.68,25.6,
76829,0.11,0.09,0.98,1.77,3.05,1.22,988.64,25.59,
76868,0.11,0.09,0.98,1.65,3.17,1.28,988.67,25.6,
76906,0.11,0.09,0.98,1.46,3.23,1.34,988.68,25.6,
76944,0.11,0.09,0.98,1.53,2.99,1.1,988.67,25.59,
76982,0.1,0.09,0.98,1.83,2.87,1.34,988.67,25.6,
77020,0.1,0.09,0.98,1.77,2.93,1.34,988.67,25.6,
77059,0.11,0.1,0.98,1.95,2.93,1.4,988.68,25.6,
77097,0.11,0.1,0.98,1.89,2.99,1.4,988.7,25.61,
77135,0.11,0.09,0.98,2.01,2.99,1.34,988.71,25.62,
77173,0.11,0.09,0.98,1.95,3.05,1.46,988.62,25.61,
77211,0.11,0.09,0.98,1.77,3.11,1.4,988.63,25.61,
77261,0.11,0.09,0.98,1.89,3.05,1.16,988.68,25.59,
77300,0.11,0.09,0.98,1.83,3.11,1.28,988.66,25.61,
77338,0.11,0.09,0.98,1.71,3.11,1.28,988.7,25.61,
77376,0.11,0.09,0.98,1.89,2.99,1.34,988.65,25.61,
77414,0.11,0.09,0.98,1.89,3.17,1.34,988.69,25.61,
77452,0.1,0.09,1.02,2.38,2.38,1.22,988.72,25.61,
77491,0.11,0.09,0.97,1.83,3.05,1.46,988.7,25.6,
77529,0.11,0.09,0.98,1.71,3.17,1.22,988.69,25.62,
77567,0.11,0.09,0.98,1.65,3.3,1.1,988.66,25.61,
77605,0.11,0.09,0.98,1.65,3.05,1.34,988.7,25.61,
77655,0.1,0.09,0.98,1.83,2.93,1.1,988.64,25.59,
77693,0.11,0.09,0.98,1.89,2.99,1.16,988.66,25.61,
77731,0.11,0.09,0.98,2.01,2.75,1.28,988.61,25.59,
77769,0.1,0.09,0.98,1.89,2.81,1.22,988.68,25.6,
77808,0.11,0.1,0.98,1.65,3.3,1.22,988.66,25.61,
77846,0.11,0.09,0.98,1.71,3.11,1.28,988.73,25.62,
77884,0.11,0.09,0.98,1.89,3.11,1.16,988.67,25.61,
77922,0.11,0.09,0.98,1.89,2.93,1.22,988.7,25.62,
77960,0.11,0.09,0.98,1.77,2.99,1.22,988.69,25.61,
77999,0.11,0.09,0.97,1.83,3.11,1.16,988.64,25.6,
78037,0.11,0.09,0.98,1.71,2.99,1.1,988.67,25.6,
78087,0.11,0.09,0.98,1.89,3.05,1.16,988.72,25.59,
78125,0.11,0.09,0.98,2.08,2.93,1.28,988.63,25.6,
78163,0.11,0.09,0.98,1.83,3.05,1.22,988.7,25.6,
78201,0.11,0.09,0.98,1.89,2.87,1.28,988.72,25.6,
78239,0.11,0.09,0.98,1.89,2.93,1.34,988.67,25.59,
78278,0.11,0.09,0.97,1.95,3.05,1.28,988.69,25.59,
78316,0.11,0.09,0.98,1.77,3.17,1.22,988.69,25.59,
78354,0.11,0.09,0.98,1.83,2.93,1.34,988.66,25.58,
78392,0.11,0.07,0.92,1.46,3.17,1.28,988.67,25.57,
78431,0.1,0.09,0.99,1.89,2.93,1.34,988.7,25.59,
78506,0.11,0.09,0.98,1.95,2.93,1.28,988.63,25.55,
78545,0.11,0.09,0.98,1.89,2.93,1.34,988.72,25.56,
78583,0.11,0.09,0.98,1.83,3.11,1.1,988.7,25.58,
78672,0.11,0.09,0.98,1.83,2.87,1.34,988.64,25.53,
78711,0.11,0.09,0.98,2.01,2.93,1.22,988.65,25.56,
78749,0.11,0.09,0.98,1.77,3.17,1.28,988.7,25.56,
78787,0.11,0.09,0.98,1.83,2.93,1.16,988.62,25.56,
78825,0.11,0.09,0.98,1.77,2.93,1.16,988.69,25.56,
78863,0.11,0.09,0.97,1.71,3.05,1.22,988.71,25.57,
78901,0.1,0.09,0.98,1.89,3.05,1.16,988.71,25.57,
78940,0.11,0.09,0.98,1.71,3.11,1.16,988.67,25.55,
78990,0.11,0.09,0.98,1.77,3.11,1.28,988.72,25.56,
79028,0.11,0.09,0.98,1.65,2.99,1.22,988.67,25.56,
79066,0.11,0.09,0.98,1.83,3.11,1.34,988.7,25.57,
79104,0.11,0.09,0.98,1.77,2.93,1.28,988.63,25.55,
79142,0.11,0.09,0.98,1.95,3.05,1.16,988.7,25.57,
79180,0.11,0.09,0.98,1.89,2.93,1.1,988.67,25.57,
79218,0.11,0.09,0.98,1.95,3.05,1.46,988.71,25.56,
79257,0.11,0.09,0.98,1.89,3.11,1.34,988.67,25.57,
79295,0.11,0.09,0.98,1.83,2.93,1.28,988.69,25.58,
79333,0.11,0.09,0.98,1.95,2.93,1.16,988.71,25.57,
79383,0.11,0.09,0.98,1.77,2.81,1.28,988.63,25.55,
79421,0.11,0.09,0.98,1.89,2.99,1.22,988.63,25.58,
79459,0.11,0.09,0.98,1.89,3.11,1.22,988.69,25.59,
79497,0.1,0.09,0.98,1.83,2.93,1.28,988.65,25.59,
79536,0.11,0.09,0.98,1.89,3.11,1.28,988.68,25.59,
79574,0.11,0.09,0.98,1.83,2.99,1.34,988.69,25.57,
79612,0.11,0.09,0.98,1.83,2.99,1.16,988.64,25.57,
79650,0.11,0.09,0.98,1.83,3.11,1.28,988.65,25.58,
79688,0.11,0.09,0.98,1.89,3.23,1.04,988.71,25.59,
79727,0.11,0.09,0.98,1.89,3.05,1.22,988.72,25.6,
79765,0.1,0.09,0.97,1.77,2.99,1.22,988.74,25.6,
79815,0.11,0.09,0.98,1.89,3.05,1.4,988.71,25.58,
79853,0.11,0.09,0.98,1.89,2.93,1.28,988.66,25.57,
79891,0.11,0.09,0.98,1.83,2.99,1.22,988.76,25.59,
79929,0.11,0.09,0.97,1.77,2.99,1.28,988.65,25.59,
79967,0.11,0.09,0.98,2.01,2.93,1.4,988.65,25.58,
80005,0.1,0.09,0.98,1.95,3.05,1.22,988.68,25.6,
80043,0.1,0.09,0.98,1.89,3.17,1.16,988.67,25.6,
80082,0.1,0.09,0.98,1.83,2.87,1.28,988.64,25.6,
80120,0.11,0.09,0.98,2.01,2.93,1.4,988.67,25.59,
80158,0.11,0.09,0.98,1.95,3.11,1.4,988.68,25.6,
80208,0.11,0.09,0.98,1.89,3.05,1.34,988.68,25.59,
80246,0.11,0.09,0.97,1.77,3.05,1.28,988.71,25.59,
80284,0.1,0.09,0.98,2.01,3.17,1.22,988.68,25.6,
80322,0.11,0.09,0.98,1.71,3.11,1.22,988.65,25.6,
80360,0.11,0.09,0.98,1.77,3.05,1.28,988.61,25.6,
80399,0.11,0.09,0.98,1.77,2.99,1.16,988.74,25.6,
80437,0.11,0.09,0.98,1.77,2.99,1.22,988.6,25.59,
80475,0.11,0.09,0.98,1.89,2.81,1.16,988.65,25.6,
80513,0.11,0.09,0.98,1.89,2.93,1.28,988.64,25.59,
80551,0.11,0.09,0.98,1.71,2.93,1.28,988.71,25.6,
80589,0.11,0.09,0.98,1.59,2.93,1.22,988.62,25.6,
80639,0.11,0.09,0.98,2.01,2.99,1.34,988.66,25.59,
80678,0.1,0.09,0.98,1.83,2.93,1.16,988.62,25.59,
80716,0.11,0.09,0.98,1.83,2.93,1.22,988.66,25.6,
80754,0.11,0.09,0.98,2.01,2.87,1.22,988.64,25.6,
80792,0.11,0.09,0.98,1.77,3.11,1.1,988.6,25.6,
80830,0.11,0.09,0.98,1.83,2.99,1.22,988.74,25.61,
80869,0.1,0.09,0.98,1.83,3.11,1.16,988.71,25.62,
80907,0.1,0.09,0.98,1.89,3.17,1.1,988.66,25.61,
80945,0.11,0.09,0.98,1.89,3.05,1.16,988.67,25.61,
80983,0.11,0.09,0.98,1.65,3.17,1.34,988.68,25.62,
81033,0.11,0.09,0.98,1.89,3.05,1.22,988.63,25.6,
81071,0.11,0.09,0.98,1.77,2.93,1.28,988.64,25.6,
81109,0.11,0.09,0.98,1.83,3.11,1.22,988.65,25.61,
81147,0.11,0.09,0.98,1.83,2.93,1.22,988.73,25.61,
81186,0.11,0.09,0.98,1.71,3.05,1.28,988.65,25.6,
81224,0.1,0.09,0.97,1.77,3.05,1.1,988.71,25.61,
81262,0.09,0.1,0.98,1.71,2.99,1.28,988.67,25.62,
81300,0.1,0.09,0.98,1.83,2.99,1.16,988.67,25.6,
81339,0.11,0.09,0.98,1.95,2.81,1.28,988.64,25.61,
81377,0.11,0.09,0.98,1.83,2.99,1.34,988.66,25.61,
81427,0.11,0.09,0.97,1.83,2.99,1.22,988.67,25.62,
81465,0.11,0.09,0.98,1.83,2.87,1.28,988.64,25.6,
81503,0.1,0.09,0.98,1.77,2.99,1.28,988.7,25.6,
81541,0.1,0.09,0.98,1.77,2.99,1.1,988.71,25.61,
81579,0.11,0.09,0.98,1.83,2.99,1.28,988.7,25.61,
81618,0.11,0.09,0.98,1.89,3.17,1.16,988.71,25.61,
81656,0.11,0.09,0.98,2.01,3.05,1.28,988.69,25.6,
81694,0.1,0.09,0.98,1.95,2.99,1.22,988.65,25.62,
81732,0.1,0.09,0.98,1.83,2.99,1.16,988.67,25.61,
81771,0.11,0.09,0.98,1.95,2.99,1.28,988.61,25.6,
81809,0.11,0.09,0.98,1.89,2.81,1.1,988.66,25.62,
81885,0.11,0.09,0.98,2.01,3.05,1.28,988.68,25.58,
81923,0.11,0.09,0.98,1.77,2.99,1.16,988.63,25.59,
81961,0.11,0.09,0.98,1.83,2.99,1.16,988.65,25.6,
82051,0.11,0.09,0.98,1.89,2.99,1.16,988.66,25.57,
82089,0.1,0.09,0.98,1.83,3.05,1.22,988.63,25.58,
82127,0.11,0.09,0.98,1.71,2.87,1.16,988.68,25.59,
82165,0.11,0.09,0.98,1.77,2.99,1.28,988.67,25.58,
82204,0.11,0.09,0.98,1.83,2.87,1.1,988.66,25.58,
82242,0.11,0.09,0.98,1.83,2.99,1.28,988.64,25.58,
82280,0.11,0.09,0.98,1.83,2.99,1.16,988.67,25.59,
82330,0.1,0.09,0.98,1.95,2.99,1.22,988.67,25.57,
82368,0.1,0.09,0.98,1.71,2.99,1.22,988.68,25.59,
82406,0.11,0.09,0.98,2.01,2.87,1.22,988.66,25.58,
82445,0.11,0.09,0.98,1.95,3.23,1.28,988.66,25.59,
82483,0.11,0.09,0.98,1.83,2.93,1.22,988.69,25.58,
82521,0.11,0.09,0.98,1.77,2.99,1.04,988.68,25.59,
82559,0.11,0.09,0.98,1.95,3.17,1.34,988.72,25.59,
82597,0.11,0.09,0.98,1.83,3.11,1.16,988.61,25.59,
82636,0.11,0.09,0.98,1.89,2.99,1.22,988.72,25.59,
82674,0.11,0.09,0.98,1.89,3.05,1.4,988.7,25.59,
82712,0.11,0.09,0.98,1.83,2.87,1.1,988.66,25.59,
82762,0.11,0.09,0.98,1.77,2.93,1.28,988.68,25.59,
82800,0.11,0.09,0.98,1.89,2.87,1.28,988.63,25.58,
82838,0.11,0.09,0.98,1.89,3.05,1.22,988.66,25.59,
82876,0.11,0.09,0.98,1.95,2.99,1.22,988.71,25.59,
82915,0.11,0.09,0.98,1.71,2.81,1.16,988.67,25.59,
82953,0.11,0.09,0.98,1.83,3.11,1.22,988.68,25.6,
82991,0.11,0.09,0.98,1.77,2.93,1.1,988.68,25.59,
83029,0.11,0.09,0.98,1.89,2.93,1.16,988.69,25.6,
83067,0.11,0.09,0.98,1.71,3.05,1.22,988.69,25.6,
83106,0.11,0.09,0.98,1.95,2.93,1.28,988.72,25.6,
83156,0.11,0.09,0.98,2.01,2.93,1.28,988.73,25.6,
83194,0.11,0.09,0.98,2.01,3.05,1.28,988.7,25.59,
83232,0.11,0.09,0.98,1.89,2.99,1.28,988.68,25.59,
83270,0.11,0.09,0.98,1.71,2.93,1.34,988.7,25.6,
83308,0.11,0.09,0.98,1.89,2.87,1.1,988.68,25.6,
83346,0.11,0.09,0.98,1.95,2.99,1.28,988.69,25.6,
83385,0.11,0.09,0.98,1.71,2.99,1.16,988.67,25.6,
83423,0.11,0.09,0.98,1.83,2.99,1.16,988.73,25.61,
83461,0.11,0.09,0.98,1.89,3.05,1.28,988.65,25.6,
83499,0.11,0.09,0.98,1.77,3.05,1.1,988.66,25.62,
83537,0.11,0.09,0.98,1.89,3.11,1.28,988.69,25.6,
83587,0.11,0.09,0.98,1.83,3.11,1.16,988.67,25.59,
83626,0.11,0.09,0.98,1.89,2.99,1.34,988.71,25.61,
83664,0.11,0.09,0.98,1.77,2.99,1.28,988.76,25.6,
83702,0.11,0.09,0.98,1.77,2.99,1.22,988.65,25.59,
83740,0.11,0.09,0.98,1.77,2.99,1.16,988.68,25.59,
83778,0.11,0.09,0.98,1.83,2.99,1.16,988.62,25.58,
83816,0.11,0.09,0.98,1.95,2.99,1.34,988.66,25.6,
83855,0.11,0.09,0.98,1.89,2.93,1.22,988.7,25.6,
83893,0.11,0.09,0.98,1.83,2.99,1.16,988.68,25.59,
83931,0.11,0.09,0.98,1.83,3.05,1.28,988.68,25.61,
83981,0.11,0.09,0.98,1.89,2.99,1.22,988.66,25.58,
84019,0.11,0.09,0.98,1.89,2.93,1.34,988.71,25.61,
84057,0.11,0.09,0.98,1.77,3.17,1.28,988.67,25.59,
84096,0.11,0.09,0.98,1.83,2.87,1.28,988.68,25.62,
84134,0.11,0.09,0.98,1.83,3.11,1.28,988.7,25.61,
84172,0.11,0.09,0.98,1.83,3.11,1.28,988.65,25.59,
84210,0.11,0.09,0.98,1.95,2.93,1.22,988.71,25.6,
84248,0.11,0.09,0.98,1.83,2.93,1.22,988.72,25.6,
84287,0.11,0.09,0.98,1.77,2.87,1.34,988.72,25.61,
84325,0.11,0.09,0.98,1.71,3.11,1.28,988.64,25.6,
84363,0.11,0.09,0.98,1.95,3.11,1.22,988.68,25.6,
84413,0.11,0.09,0.98,1.83,2.99,1.16,988.69,25.6,
84451,0.11,0.09,0.98,1.95,2.93,1.1,988.71,25.6,
84489,0.11,0.09,0.98,1.83,2.81,1.16,988.66,25.59,
84528,0.11,0.09,0.98,1.77,2.99,1.22,988.61,25.6,
84566,0.11,0.09,0.98,2.01,2.69,1.28,988.67,25.59,
84604,0.11,0.09,0.98,1.83,2.87,1.22,988.64,25.61,
84642,0.11,0.09,0.98,1.77,2.93,1.22,988.65,25.6,
84680,0.11,0.09,0.98,1.83,3.11,1.28,988.67,25.6,
84718,0.11,0.09,0.98,2.01,3.05,1.28,988.67,25.6,
84757,0.11,0.09,0.98,1.95,2.99,1.28,988.66,25.6,
84806,0.11,0.09,0.98,1.77,2.87,1.16,988.66,25.59,
84845,0.11,0.09,0.98,1.89,2.99,1.28,988.64,25.59,
84883,0.11,0.09,0.98,1.71,3.11,1.22,988.63,25.6,
84921,0.11,0.09,0.98,1.89,3.05,1.28,988.64,25.59,
84959,0.11,0.09,0.98,2.08,3.11,1.28,988.66,25.6,
84997,0.11,0.09,0.98,1.89,2.99,1.28,988.62,25.6,
85036,0.1,0.09,0.98,1.95,2.99,1.22,988.69,25.6,
85074,0.1,0.09,0.98,1.83,2.87,1.28,988.65,25.59,
85112,0.1,0.09,0.98,1.89,2.93,1.28,988.67,25.6,
85150,0.11,0.09,0.98,1.71,2.81,1.28,988.69,25.6,
85226,0.11,0.09,0.98,1.89,2.99,1.34,988.69,25.57,
85264,0.11,0.09,0.97,1.95,3.11,1.28,988.69,25.59,
85303,0.1,0.09,0.98,1.95,3.05,1.34,988.69,25.58,
85392,0.11,0.09,0.98,1.83,2.93,1.46,988.68,25.55,
85431,0.11,0.09,0.98,1.77,2.87,1.16,988.68,25.57,
85469,0.11,0.09,0.97,1.83,2.81,1.28,988.68,25.57,
85507,0.11,0.09,0.97,1.83,3.11,1.34,988.67,25.57,
85545,0.1,0.09,0.98,1.89,3.17,1.28,988.72,25.59,
85583,0.1,0.09,0.98,1.83,2.99,1.16,988.65,25.58,
85621,0.11,0.09,0.98,1.83,2.99,1.16,988.69,25.59,
85660,0.11,0.1,0.98,1.77,2.87,1.28,988.71,25.59,
85709,0.11,0.1,0.99,1.59,3.05,1.46,988.64,25.57,
85748,0.11,0.09,0.98,1.83,2.75,1.16,988.72,25.59,
85786,0.11,0.09,0.97,2.08,2.87,1.22,988.66,25.59,
85824,0.1,0.09,0.97,1.71,3.3,1.1,988.67,25.59,
85862,0.1,0.09,0.99,1.83,2.93,1.22,988.71,25.59,
85900,0.1,0.09,0.98,2.01,2.69,1.28,988.69,25.59,
85939,0.1,0.09,0.98,2.2,2.44,1.22,988.67,25.58,
85977,0.11,0.09,0.97,1.65,3.17,1.28,988.64,25.59,
86015,0.11,0.09,0.98,2.26,2.75,1.34,988.63,25.58,
86053,0.11,0.1,0.97,1.83,3.23,1.34,988.66,25.6,
86103,0.1,0.09,0.98,1.89,3.23,1.34,988.72,25.59,
86141,0.1,0.09,0.98,1.77,3.05,1.34,988.7,25.59,
86179,0.11,0.09,0.99,1.77,3.05,1.22,988.76,25.6,
86218,0.1,0.09,0.98,2.14,2.62,1.1,988.66,25.59,
86256,0.11,0.09,0.98,2.08,2.81,1.22,988.69,25.59,
86294,0.11,0.1,0.98,1.95,2.87,1.34,988.7,25.59,
86332,0.11,0.1,0.97,1.83,3.05,1.46,988.69,25.59,
86370,0.11,0.09,0.98,1.89,2.69,1.4,988.7,25.61,
86409,0.1,0.09,0.98,1.95,2.81,1.4,988.66,25.6,
86447,0.11,0.09,0.98,1.83,2.93,1.16,988.67,25.6,
86485,0.11,0.09,0.98,2.2,2.99,1.1,988.75,25.6,
86535,0.11,0.09,0.98,1.89,3.05,1.4,988.68,25.58,
86573,0.1,0.09,0.98,1.83,2.99,1.59,988.69,25.59,
86611,0.11,0.09,0.98,1.89,3.11,1.46,988.7,25.6,
86649,0.1,0.09,0.97,1.83,3.05,1.46,988.71,25.61,
86688,0.11,0.1,0.98,1.71,3.05,1.4,988.73,25.6,
86726,0.1,0.1,0.98,1.71,2.93,1.28,988.73,25.6,
86764,0.1,0.09,0.98,1.83,2.93,1.53,988.72,25.6,
86802,0.11,0.1,0.98,1.89,3.05,1.46,988.67,25.61,
86840,0.1,0.09,0.98,1.89,2.99,1.28,988.72,25.61,
86878,0.11,0.09,0.98,1.77,3.11,1.4,988.69,25.6,
86928,0.11,0.1,0.98,1.59,3.42,1.28,988.72,25.6,
86966,0.1,0.09,0.97,1.77,2.69,1.71,988.67,25.6,
87004,0.11,0.09,0.98,2.2,2.81,1.34,988.67,25.59,
87043,0.11,0.09,0.98,1.83,3.05,1.46,988.7,25.61,
87081,0.11,0.09,0.98,1.77,3.17,1.59,988.72,25.6,
87119,0.11,0.09,0.98,1.65,3.42,1.46,988.67,25.6,
87157,0.11,0.09,0.98,1.65,3.23,1.65,988.69,25.61,
87195,0.1,0.09,0.98,1.95,3.17,1.53,988.66,25.61,
87233,0.1,0.09,0.98,1.89,2.99,1.53,988.68,25.61,
87272,0.11,0.09,0.98,1.83,2.93,1.46,988.69,25.61,
87310,0.11,0.09,0.98,1.65,3.17,1.53,988.71,25.62,
87360,0.1,0.09,0.98,1.89,3.17,1.28,988.7,25.6,
87398,0.11,0.09,0.98,1.83,3.17,1.46,988.73,25.61,
87436,0.11,0.09,0.98,2.01,2.99,1.4,988.7,25.6,
87474,0.11,0.09,0.98,1.71,2.93,1.53,988.65,25.61,
87512,0.1,0.09,0.98,1.89,3.05,1.28,988.65,25.61,
87551,0.1,0.09,0.98,1.83,3.05,1.53,988.69,25.61,
87589,0.1,0.09,0.98,1.83,3.05,1.46,988.7,25.61,
87627,0.11,0.09,0.98,1.77,2.81,1.53,988.71,25.63,
87665,0.11,0.09,0.98,1.83,2.93,1.28,988.68,25.62,
87703,0.11,0.09,0.98,1.89,3.17,1.34,988.62,25.6,
87753,0.1,0.09,0.98,1.77,2.87,1.53,988.67,25.6,
87791,0.1,0.09,0.98,1.71,2.81,1.4,988.64,25.61,
87830,0.1,0.09,0.98,1.83,2.99,1.34,988.68,25.61,
87868,0.1,0.09,0.98,1.89,2.87,1.4,988.65,25.61,
87906,0.11,0.09,0.98,1.77,2.87,1.34,988.71,25.61,
87944,0.11,0.09,0.98,1.83,2.81,1.4,988.7,25.61,
87983,0.11,0.09,0.98,1.65,3.05,1.28,988.65,25.61,
88021,0.1,0.09,0.98,1.83,2.99,1.34,988.71,25.62,
88059,0.11,0.09,0.98,1.89,3.11,1.46,988.65,25.62,
88097,0.11,0.09,0.98,1.83,3.05,1.53,988.62,25.6,
88135,0.1,0.09,0.98,1.71,2.93,1.28,988.68,25.61,
88185,0.1,0.09,0.98,1.71,2.99,1.34,988.62,25.61,
88223,0.1,0.09,0.98,1.89,2.93,1.28,988.68,25.6,
88262,0.11,0.09,0.98,1.77,2.93,1.4,988.69,25.61,
88300,0.11,0.09,0.98,1.95,2.87,1.46,988.65,25.6,
88338,0.1,0.09,0.98,1.89,3.05,1.4,988.71,25.61,
88376,0.1,0.09,0.98,1.95,3.05,1.34,988.67,25.6,
88414,0.11,0.09,0.97,2.01,2.99,1.59,988.66,25.59,
88453,0.1,0.09,0.98,1.83,2.99,1.34,988.68,25.59,
88491,0.1,0.09,0.98,1.83,3.05,1.46,988.69,25.6,
88529,0.11,0.09,0.98,1.89,3.05,1.22,988.69,25.6,
88605,0.1,0.09,0.97,2.01,3.17,1.53,988.7,25.57,
88643,0.1,0.09,0.98,2.01,2.99,1.4,988.67,25.58,
88681,0.1,0.09,0.97,1.83,3.11,1.46,988.73,25.58,
88772,0.1,0.09,0.98,1.95,3.05,1.4,988.73,25.55,
88811,0.11,0.09,0.98,1.77,3.05,1.46,988.7,25.56,
88849,0.11,0.09,0.98,1.83,3.05,1.46,988.71,25.57,
88887,0.11,0.09,0.98,1.71,3.11,1.46,988.65,25.57,
88925,0.11,0.09,0.98,1.89,2.99,1.34,988.71,25.58,
88963,0.1,0.09,0.98,1.89,3.05,1.4,988.7,25.58,
89001,0.1,0.09,0.98,1.83,2.99,1.34,988.67,25.57,
89051,0.1,0.09,0.98,1.71,2.99,1.34,988.67,25.56,
89090,0.11,0.09,0.98,1.89,3.11,1.46,988.69,25.57,
89128,0.11,0.09,0.98,1.95,3.11,1.34,988.66,25.57,
89166,0.11,0.09,0.98,1.83,3.17,1.28,988.74,25.59,
89204,0.11,0.09,0.98,1.89,3.11,1.46,988.67,25.57,
89242,0.1,0.09,0.98,1.83,3.05,1.4,988.69,25.57,
89280,0.1,0.09,0.98,1.89,3.05,1.34,988.67,25.56,
89318,0.11,0.09,0.98,1.95,2.87,1.4,988.63,25.57,
89357,0.1,0.09,0.98,1.89,2.99,1.4,988.65,25.57,
89395,0.11,0.09,0.98,1.89,3.23,1.4,988.66,25.58,
89433,0.11,0.09,0.97,1.89,3.05,1.53,988.68,25.59,
89483,0.1,0.09,0.98,1.83,3.11,1.53,988.69,25.58,
89521,0.1,0.09,0.97,1.83,2.93,1.4,988.73,25.58,
89559,0.1,0.09,0.98,1.71,2.93,1.4,988.62,25.57,
89598,0.1,0.09,0.98,1.89,2.93,1.46,988.69,25.58,
89636,0.11,0.09,0.98,1.83,2.81,1.34,988.62,25.58,
89674,0.11,0.09,0.98,1.77,2.99,1.53,988.67,25.58,
89712,0.11,0.09,0.98,1.65,2.99,1.4,988.69,25.58,
89750,0.11,0.09,0.97,1.83,3.05,1.46,988.69,25.57,
89788,0.11,0.09,0.97,1.83,2.93,1.46,988.75,25.58,
89827,0.11,0.09,0.98,1.89,2.87,1.53,988.64,25.58,
89876,0.1,0.09,0.98,1.89,3.17,1.4,988.72,25.57,
89915,0.11,0.09,0.97,1.71,2.87,1.4,988.65,25.58,
89953,0.11,0.1,0.98,1.77,2.99,1.34,988.71,25.57,
89991,0.1,0.09,0.98,1.89,3.11,1.59,988.63,25.57,
90029,0.1,0.09,0.98,1.95,2.93,1.34,988.72,25.58,
90067,0.1,0.09,0.98,1.95,2.99,1.28,988.75,25.59,
90106,0.1,0.09,0.98,1.89,3.05,1.28,988.71,25.58,
90144,0.11,0.09,0.98,1.89,3.05,1.34,988.67,25.57,
90182,0.1,0.09,0.98,1.83,3.05,1.16,988.66,25.57,
90220,0.1,0.09,0.98,1.65,2.93,1.34,988.69,25.58,
90258,0.11,0.09,0.98,1.89,3.17,1.28,988.69,25.57,
90308,0.11,0.09,0.98,1.83,2.87,1.4,988.68,25.56,
90346,0.1,0.09,0.98,1.95,2.93,1.53,988.71,25.57,
90384,0.1,0.09,0.98,1.71,2.87,1.28,988.67,25.57,
90422,0.1,0.09,0.98,1.77,2.99,1.34,988.69,25.58,
90461,0.11,0.09,0.98,1.89,2.93,1.34,988.7,25.59,
90499,0.11,0.09,0.98,1.83,2.87,1.4,988.7,25.58,
90537,0.11,0.09,0.98,1.95,2.87,1.34,988.69,25.59,
90575,0.12,0.1,0.98,1.89,2.93,1.46,988.63,25.58,
90613,0.1,0.09,0.98,1.83,2.87,1.53,988.65,25.58,
90651,0.1,0.09,0.98,1.89,2.99,1.4,988.67,25.59,
90701,0.1,0.09,0.98,2.01,2.99,1.53,988.68,25.58,
90739,0.1,0.09,0.98,1.83,2.99,1.46,988.66,25.59,
90777,0.1,0.09,0.98,1.83,2.93,1.34,988.72,25.59,
90816,0.11,0.09,0.98,1.83,3.05,1.4,988.66,25.58,
90854,0.1,0.09,0.98,1.89,3.11,1.46,988.69,25.59,
90892,0.1,0.09,0.98,1.83,3.17,1.34,988.69,25.59,
90930,0.1,0.09,0.97,1.89,2.99,1.4,988.67,25.59,
90968,0.11,0.09,0.98,1.89,3.17,1.28,988.67,25.58,
91007,0.11,0.09,0.98,1.95,3.11,1.59,988.68,25.6,
91045,0.1,0.09,0.98,1.89,2.99,1.4,988.68,25.6,
91083,0.11,0.09,0.98,1.89,2.93,1.4,988.68,25.6,
91133,0.11,0.09,0.98,1.89,3.11,1.4,988.72,25.59,
91171,0.11,0.1,0.98,1.89,2.87,1.4,988.64,25.59,
91209,0.11,0.09,0.96,1.77,3.05,1.53,988.73,25.6,
91247,0.14,0.1,0.91,1.95,2.99,1.53,988.71,25.6,
91285,0.07,0.1,0.98,1.89,2.81,1.22,988.64,25.6,
91323,0.17,0.08,1.0,1.77,3.05,1.34,988.72,25.6,
91362,0.07,0.09,0.93,1.83,3.05,1.4,988.71,25.6,
91400,0.1,0.07,0.98,2.01,2.75,1.4,988.76,25.6,
91438,0.12,0.09,0.98,2.01,3.17,1.4,988.69,25.61,
91476,0.1,0.08,0.98,1.83,3.05,1.4,988.67,25.62,
91526,0.11,0.08,0.97,2.01,3.23,1.4,988.73,25.6,
91564,0.11,0.09,0.97,1.89,2.87,1.59,988.71,25.59,
91602,0.1,0.09,0.98,1.95,2.87,1.59,988.69,25.6,
91641,0.11,0.09,0.98,1.95,2.99,1.53,988.69,25.6,
91679,0.1,0.09,0.97,1.83,3.05,1.46,988.68,25.6,
91717,0.11,0.1,0.98,1.71,3.17,1.34,988.65,25.58,
91755,0.11,0.1,0.97,1.71,2.99,1.34,988.67,25.59,
91793,0.1,0.09,0.98,1.71,2.99,1.34,988.66,25.59,
91831,0.1,0.09,0.98,1.95,2.99,1.28,988.69,25.6,
91869,0.1,0.09,0.98,2.08,3.11,1.22,988.64,25.58,
91908,0.1,0.09,0.98,1.77,3.17,1.4,988.65,25.59,
91983,0.11,0.09,0.98,1.95,3.05,1.46,988.76,25.58,
92021,0.11,0.08,0.98,1.89,3.05,1.46,988.69,25.59,
92060,0.11,0.08,0.98,1.89,2.93,1.46,988.7,25.59,
92149,0.11,0.09,0.98,1.77,3.23,1.34,988.7,25.54,
92188,0.1,0.09,0.97,2.01,3.05,1.53,988.68,25.57,
92226,0.1,0.09,0.98,2.01,3.17,1.46,988.71,25.58,
92264,0.11,0.09,0.98,1.89,3.11,1.4,988.69,25.58,
92302,0.1,0.1,0.97,1.77,2.99,1.46,988.7,25.58,
92340,0.11,0.1,0.97,1.95,3.17,1.34,988.69,25.58,
92379,0.11,0.09,0.98,1.95,2.99,1.34,988.65,25.59,
92428,0.1,0.09,0.97,1.83,2.93,1.59,988.66,25.58,
92467,0.11,0.09,0.98,1.89,2.99,1.4,988.67,25.59,
92505,0.1,0.09,0.98,2.01,2.93,1.59,988.68,25.59,
92543,0.1,0.09,0.98,1.77,2.99,1.4,988.62,25.59,
92581,0.1,0.09,0.98,1.89,2.99,1.4,988.62,25.59,
92619,0.11,0.09,0.98,1.83,2.81,1.46,988.68,25.6,
92657,0.11,0.09,0.98,1.77,2.93,1.4,988.68,25.59,
92696,0.1,0.09,0.97,1.83,2.93,1.34,988.73,25.61,
92734,0.11,0.09,0.98,1.71,2.81,1.4,988.68,25.6,
92772,0.11,0.09,0.98,1.89,2.93,1.22,988.67,25.6,
92810,0.1,0.09,0.98,1.89,2.93,1.34,988.64,25.6,
92860,0.1,0.09,0.98,1.83,2.99,1.4,988.68,25.58,
92898,0.1,0.09,0.98,1.89,2.99,1.53,988.69,25.59,
92936,0.1,0.09,0.98,1.95,3.3,1.4,988.64,25.59,
92974,0.1,0.09,0.98,1.95,3.11,1.46,988.7,25.6,
93013,0.11,0.09,0.98,1.83,3.11,1.46,988.68,25.6,
93051,0.11,0.09,0.98,1.95,3.11,1.46,988.64,25.59,
93089,0.11,0.09,0.98,1.83,3.05,1.46,988.66,25.6,
93127,0.1,0.09,0.98,1.95,3.05,1.46,988.66,25.6,
93165,0.1,0.09,0.98,1.95,2.87,1.53,988.61,25.6,
93204,0.11,0.09,0.98,1.83,2.99,1.34,988.69,25.59,
93254,0.11,0.09,0.98,1.83,2.99,1.4,988.65,25.59,
93292,0.11,0.09,0.98,1.71,2.87,1.28,988.67,25.59,
93330,0.11,0.09,0.98,1.83,2.93,1.34,988.68,25.6,
93368,0.1,0.09,0.97,1.83,2.93,1.4,988.62,25.59,
93406,0.1,0.09,0.98,1.83,2.99,1.34,988.64,25.6,
93444,0.11,0.09,0.98,1.89,3.05,1.28,988.65,25.6,
93482,0.1,0.09,0.98,1.71,2.99,1.46,988.64,25.6,
93521,0.1,0.09,0.98,1.89,2.87,1.28,988.68,25.61,
93559,0.1,0.09,0.97,1.77,3.05,1.59,988.62,25.6,
93597,0.1,0.09,0.98,1.77,3.17,1.46,988.66,25.59,
93647,0.1,0.09,0.98,1.95,3.3,1.4,988.65,25.57,
93685,0.1,0.09,0.98,1.89,3.23,1.53,988.59,25.59,
93723,0.11,0.09,0.98,1.89,2.99,1.4,988.66,25.59,
93761,0.11,0.09,0.98,1.77,3.11,1.4,988.63,25.59,
93799,0.11,0.09,0.98,1.95,2.93,1.34,988.66,25.59,
93837,0.11,0.09,0.98,1.83,2.93,1.4,988.62,25.59,
93875,0.11,0.09,0.98,1.89,2.81,1.4,988.65,25.57,
93914,0.1,0.09,0.98,1.71,2.81,1.22,988.67,25.6,
93952,0.11,0.09,0.98,1.77,2.81,1.46,988.66,25.59,
93990,0.11,0.09,0.98,1.95,2.87,1.46,988.6,25.57,
94028,0.1,0.09,0.98,1.89,2.93,1.46,988.62,25.58,
94078,0.1,0.09,0.98,1.83,2.93,1.34,988.63,25.56,
94116,0.11,0.09,0.98,1.83,2.93,1.34,988.67,25.58,
94154,0.1,0.09,0.98,1.95,2.93,1.4,988.69,25.57,
94192,0.1,0.09,0.98,1.83,3.05,1.65,988.59,25.55,
94230,0.1,0.09,0.97,1.89,3.23,1.4,988.61,25.55,
94269,0.1,0.09,0.98,1.83,2.99,1.46,988.59,25.54,
94307,0.1,0.09,0.98,1.83,3.11,1.4,988.58,25.56,
94345,0.1,0.09,0.97,1.83,2.99,1.53,988.63,25.54,
94383,0.11,0.09,0.98,1.89,3.11,1.53,988.6,25.54,
94421,0.11,0.09,0.98,1.77,3.05,1.53,988.68,25.54,
94471,0.11,0.09,0.97,1.95,3.05,1.4,988.67,25.53,
94510,0.1,0.09,0.98,1.89,2.93,1.34,988.62,25.54,
94548,0.1,0.09,0.98,1.83,2.99,1.4,988.66,25.53,
94586,0.11,0.09,0.98,2.01,2.99,1.28,988.71,25.54,
94624,0.1,0.09,0.98,1.77,2.87,1.28,988.63,25.54,
94662,0.1,0.09,0.97,1.71,2.93,1.4,988.62,25.54,
94700,0.11,0.09,0.98,1.65,2.81,1.34,988.6,25.53,
94739,0.1,0.09,0.98,1.89,2.81,1.53,988.71,25.53,
94777,0.11,0.09,0.98,1.83,2.99,1.34,988.65,25.54,
94815,0.1,0.09,0.98,1.83,2.87,1.4,988.62,25.53,
94853,0.1,0.09,0.97,1.77,3.11,1.53,988.55,25.54,
94903,0.1,0.09,0.98,1.83,3.11,1.59,988.61,25.53,
94941,0.11,0.09,0.97,1.95,3.05,1.4,988.69,25.53,
94979,0.1,0.09,0.98,1.83,2.93,1.34,988.63,25.53,
95017,0.1,0.09,0.98,1.95,2.99,1.53,988.65,25.53,
95056,0.11,0.09,0.97,1.89,3.05,1.53,988.68,25.53,
95094,0.1,0.09,0.98,1.83,2.99,1.34,988.59,25.53,
95132,0.11,0.09,0.98,1.83,2.99,1.53,988.65,25.52,
95170,0.11,0.09,0.97,1.77,3.11,1.4,988.64,25.53,
95208,0.1,0.09,0.97,1.77,3.11,1.4,988.64,25.54,
95246,0.1,0.09,0.97,1.95,3.11,1.4,988.65,25.54,
95322,0.1,0.09,0.98,1.95,2.93,1.34,988.66,25.53,
95360,0.1,0.09,0.97,1.95,2.87,1.59,988.59,25.53,
95398,0.1,0.09,0.97,1.89,2.93,1.34,988.6,25.53,
95488,0.1,0.09,0.98,1.95,3.17,1.34,988.63,25.5,
95526,0.11,0.09,0.98,1.89,3.05,1.46,988.66,25.52,
95564,0.1,0.09,0.98,1.83,3.11,1.4,988.61,25.52,
95602,0.1,0.09,0.98,1.95,3.36,1.53,988.68,25.52,
95640,0.11,0.09,0.97,1.77,3.11,1.4,988.64,25.52,
95679,0.1,0.09,0.98,2.01,3.11,1.4,988.69,25.53,
95717,0.11,0.09,0.98,1.89,3.23,1.4,988.66,25.52,
95755,0.1,0.09,0.98,1.89,3.05,1.46,988.63,25.53,
95805,0.11,0.09,0.98,1.77,2.99,1.46,988.67,25.51,
95843,0.11,0.09,0.98,1.95,2.99,1.53,988.69,25.53,
95881,0.11,0.09,0.97,1.83,3.11,1.46,988.68,25.52,
95919,0.11,0.09,0.98,1.83,3.05,1.4,988.67,25.53,
95957,0.11,0.09,0.98,1.83,2.87,1.46,988.68,25.53,
95996,0.1,0.09,0.98,1.89,2.93,1.53,988.68,25.53,
96034,0.11,0.09,0.98,1.89,3.05,1.53,988.68,25.53,
96072,0.11,0.09,0.98,1.89,3.11,1.34,988.73,25.55,
96110,0.11,0.09,0.98,1.89,2.99,1.34,988.63,25.54,
96148,0.11,0.09,0.97,1.83,2.93,1.53,988.63,25.54,
96198,0.1,0.09,0.98,1.89,3.11,1.34,988.64,25.53,
96236,0.1,0.09,0.98,1.89,3.11,1.4,988.63,25.52,
96274,0.1,0.09,0.98,1.77,3.05,1.46,988.68,25.53,
96312,0.11,0.09,0.98,1.77,3.11,1.53,988.73,25.54,
96350,0.11,0.09,0.97,1.83,3.11,1.59,988.64,25.51,
96389,0.1,0.09,0.98,2.01,3.11,1.46,988.61,25.52,
96427,0.11,0.09,0.98,1.89,3.11,1.4,988.66,25.51,
96465,0.11,0.09,0.98,1.89,2.99,1.46,988.69,25.51,
96503,0.11,0.09,0.97,1.89,2.93,1.22,988.64,25.51,
96541,0.11,0.09,0.98,1.95,3.05,1.4,988.7,25.52,
96580,0.11,0.1,0.98,1.83,2.81,1.4,988.69,25.51,
96629,0.1,0.1,0.97,1.95,2.87,1.59,988.68,25.49,
96667,0.11,0.09,0.97,1.83,2.81,1.22,988.67,25.5,
96706,0.11,0.09,0.97,1.89,2.93,1.34,988.67,25.5,
96744,0.1,0.09,0.97,1.89,3.05,1.4,988.66,25.51,
96782,0.11,0.09,0.97,1.83,2.99,1.34,988.67,25.5,
96820,0.11,0.09,0.98,1.77,2.87,1.34,988.69,25.49,
96858,0.11,0.09,0.98,1.83,3.17,1.22,988.65,25.49,
96896,0.11,0.09,0.98,1.89,3.17,1.22,988.67,25.5,
96935,0.1,0.09,0.97,1.83,3.05,1.34,988.65,25.5,
96973,0.1,0.09,1.0,1.95,2.81,1.4,988.67,25.5,
97023,0.1,0.09,0.98,1.83,2.99,1.53,988.66,25.49,
97061,0.11,0.09,0.97,2.08,3.05,1.53,988.69,25.5,
97099,0.11,0.09,0.97,1.71,2.93,1.46,988.7,25.5,
97137,0.11,0.09,0.98,1.53,2.99,1.59,988.69,25.51,
97175,0.11,0.09,0.98,1.71,2.93,1.28,988.73,25.5,
97214,0.11,0.09,0.97,1.89,2.93,1.34,988.71,25.51,
97252,0.1,0.09,0.98,1.89,2.93,1.22,988.66,25.51,
97290,0.1,0.09,0.98,1.95,3.11,1.28,988.68,25.51,
97328,0.1,0.09,0.98,1.89,2.93,1.4,988.69,25.52,
97366,0.1,0.09,0.98,1.89,3.05,1.34,988.68,25.52,
97416,0.11,0.09,0.97,1.89,2.93,1.4,988.73,25.51,
97454,0.11,0.09,0.98,1.89,2.87,1.28,988.64,25.51,
97492,0.11,0.09,0.98,1.77,2.75,1.4,988.64,25.51,
97531,0.11,0.09,0.98,1.83,2.93,1.34,988.7,25.52,
97569,0.1,0.09,0.98,1.83,2.93,1.22,988.65,25.52,
97607,0.1,0.09,0.98,1.71,2.87,1.4,988.66,25.52,
97645,0.1,0.09,0.98,1.89,3.05,1.34,988.65,25.52,
97683,0.11,0.09,0.98,1.83,2.87,1.4,988.62,25.52,
97722,0.1,0.09,0.98,1.83,2.87,1.4,988.67,25.52,
97760,0.1,0.09,0.98,1.95,3.11,1.34,988.67,25.52,
97798,0.1,0.09,0.98,1.95,3.23,1.53,988.67,25.52,
97848,0.11,0.09,0.98,1.83,3.11,1.34,988.71,25.53,
97886,0.11,0.09,0.98,1.71,3.11,1.34,988.69,25.52,
97924,0.11,0.09,0.98,1.89,2.99,1.4,988.65,25.53,
97962,0.11,0.09,0.98,1.95,3.11,1.4,988.71,25.52,
98000,0.11,0.09,0.98,1.95,2.99,1.4,988.69,25.52,
98039,0.1,0.09,0.98,1.89,3.05,1.46,988.65,25.52,
98077,0.11,0.09,0.98,1.83,2.93,1.34,988.65,25.53,
98115,0.11,0.09,0.98,1.89,2.93,1.28,988.7,25.53,
98153,0.11,0.09,0.97,1.89,2.93,1.4,988.63,25.52,
98191,0.11,0.09,0.98,1.95,2.81,1.28,988.7,25.53,
98241,0.11,0.09,0.98,1.95,2.81,1.53,988.7,25.5,
98279,0.11,0.09,0.98,1.89,2.87,1.4,988.69,25.54,
98317,0.1,0.09,0.98,1.89,3.05,1.4,988.67,25.54,
98355,0.1,0.09,0.98,1.83,2.99,1.4,988.69,25.54,
98394,0.1,0.09,0.98,1.89,3.11,1.28,988.7,25.52,
98432,0.1,0.09,0.98,1.83,3.11,1.4,988.73,25.53,
98470,0.11,0.09,0.98,1.71,3.05,1.4,988.66,25.53,
98508,0.11,0.09,0.98,1.89,3.17,1.46,988.74,25.53,
98546,0.11,0.09,0.98,1.83,3.05,1.46,988.64,25.52,
98584,0.11,0.09,0.98,1.83,3.05,1.4,988.73,25.53,
98623,0.1,0.09,0.98,1.71,2.99,1.28,988.71,25.53,
98699,0.11,0.09,0.98,1.83,3.11,1.59,988.71,25.5,
