timestamp,acc_x,acc_y,acc_z,rot_x,rot_y,rot_z,qfe,temp
579,0.05,-0.0,0.98,-0.31,3.6,2.01,984.25,31.86
617,0.05,0.01,0.96,2.26,3.66,1.4,984.22,31.87
655,0.05,-0.0,0.98,2.75,3.3,1.34,984.23,31.9
694,0.03,-0.01,0.97,1.16,3.11,0.37,984.24,31.92
732,0.04,0.01,0.97,1.34,2.93,1.89,984.2,31.93
770,0.04,0.01,0.97,1.71,3.54,2.14,984.18,31.92
808,0.04,0.02,0.97,0.06,4.46,2.44,984.21,31.94
846,0.03,0.0,0.97,1.16,3.97,1.95,984.19,31.96
884,0.05,0.01,0.97,1.77,3.17,2.2,984.26,31.96
922,0.05,0.0,0.98,1.4,2.69,1.59,984.19,31.96
960,0.05,0.02,0.96,0.73,4.09,1.89,984.24,31.98
1355,0.06,0.01,0.97,0.55,4.39,1.34,984.23,31.91
1393,0.05,0.01,0.99,2.62,2.87,0.49,984.21,31.94
1431,0.05,-0.0,1.0,4.7,5.0,1.4,984.18,31.94
1521,0.04,0.01,0.94,11.11,5.31,0.06,984.17,31.94
1559,0.02,0.02,0.97,-0.55,5.31,2.01,984.21,31.98
1597,0.06,0.01,0.99,1.65,4.03,2.01,984.21,31.98
1635,0.06,0.0,0.98,1.59,3.91,1.89,984.21,31.99
1673,0.05,-0.0,0.98,2.5,3.42,1.77,984.26,32.01
1711,0.05,0.0,0.98,2.08,4.46,1.77,984.29,32.02
1749,0.04,-0.0,0.99,2.38,2.93,1.77,984.22,32.01
1787,0.04,-0.0,0.98,2.26,3.05,1.71,984.19,32.03
1837,0.05,0.0,0.98,1.95,3.23,1.71,984.21,32.01
1875,0.05,0.0,0.97,2.08,3.54,1.83,984.27,32.03
1913,0.05,0.0,0.97,2.14,3.78,1.89,984.25,32.04
1951,0.05,-0.0,0.98,2.08,3.36,1.71,984.15,32.05
1989,0.05,-0.0,0.99,2.14,3.17,1.83,984.22,32.05
2027,0.05,-0.0,0.98,2.01,3.23,1.77,984.2,32.07
2065,0.05,0.0,0.98,1.95,3.78,1.83,984.25,32.07
2103,0.05,0.0,0.98,2.08,3.72,1.83,984.23,32.07
2141,0.05,-0.0,0.98,2.08,3.42,1.77,984.23,32.07
2179,0.05,-0.0,0.98,1.95,3.42,1.89,984.21,32.09
2229,0.05,0.0,0.98,2.08,3.54,1.77,984.28,32.07
2267,0.05,0.0,0.98,1.89,3.36,1.77,984.22,32.08
2305,0.05,0.0,0.98,1.89,3.48,1.89,984.19,32.08
2343,0.05,0.0,0.98,2.08,3.54,1.77,984.25,32.09
2381,0.05,0.0,0.98,2.08,3.48,1.83,984.25,32.11
2419,0.05,0.0,0.98,2.14,3.36,2.01,984.31,32.11
2457,0.05,0.0,0.98,2.08,3.48,1.83,984.28,32.11
2495,0.05,-0.0,0.98,2.01,3.54,1.89,984.24,32.11
2533,0.05,-0.0,0.98,1.95,3.42,1.89,984.26,32.12
2571,0.05,-0.0,0.98,2.01,3.3,1.77,984.25,32.11
2609,0.05,0.0,0.98,2.01,3.42,1.83,984.22,32.12
2658,0.05,0.0,0.98,1.95,3.42,1.83,984.2,32.11
2696,0.04,-0.03,0.94,5.55,2.14,1.89,984.23,32.13
2735,0.04,-0.01,0.98,1.1,3.97,1.95,984.24,32.12
2772,0.05,-0.01,0.98,-0.92,5.86,2.38,984.27,32.14
2811,0.05,-0.0,0.99,1.89,3.85,1.83,984.22,32.14
2848,0.04,-0.01,0.98,0.37,4.76,4.94,984.24,32.14
2887,0.13,0.08,0.98,-0.43,5.13,7.87,984.23,32.16
2925,0.16,-0.11,1.02,1.95,3.17,7.69,984.23,32.14
2963,0.14,0.03,0.93,2.87,2.5,7.69,984.2,32.16
3001,0.26,-0.07,0.93,9.03,2.69,-10.25,984.3,32.16
3050,-0.28,0.07,0.94,5.0,2.62,-5.0,984.21,32.16
3088,0.06,-0.0,0.98,5.98,1.53,4.64,984.2,32.15
3126,0.01,-0.1,0.94,3.3,3.42,0.92,984.17,32.16
3164,0.05,-0.01,0.98,1.53,3.42,1.71,984.23,32.17
3202,0.05,-0.0,0.99,2.14,3.48,1.59,984.27,32.16
3240,0.05,-0.0,0.98,1.95,3.6,1.65,984.2,32.15
3278,0.05,-0.0,0.98,1.77,3.48,1.65,984.18,32.17
3316,0.05,-0.0,0.99,2.08,3.42,1.71,984.24,32.17
3354,0.05,-0.0,0.98,2.01,3.36,1.71,984.25,32.17
3392,0.05,-0.0,0.98,2.2,3.36,1.65,984.21,32.18
3430,0.05,-0.0,0.98,2.14,3.54,1.71,984.22,32.18
3480,0.05,-0.0,0.98,2.14,3.48,1.95,984.23,32.17
3518,0.05,-0.0,0.98,2.14,3.48,1.77,984.21,32.18
3556,0.05,-0.0,0.99,2.01,3.36,1.71,984.19,32.18
3594,0.05,-0.01,0.98,2.08,3.42,1.83,984.25,32.18
3632,0.05,-0.01,0.98,2.01,3.42,1.65,984.23,32.18
3670,0.05,-0.01,0.98,2.14,3.54,1.71,984.16,32.19
3708,0.05,-0.0,0.98,1.95,3.36,1.77,984.19,32.19
3746,0.05,-0.0,0.99,2.08,3.36,1.95,984.22,32.2
3784,0.05,-0.0,0.98,2.01,3.42,1.53,984.23,32.2
3822,0.05,-0.0,0.98,1.95,3.48,1.83,984.23,32.2
3872,0.05,-0.0,0.98,2.08,3.54,1.89,984.28,32.18
3910,0.05,-0.0,0.98,1.95,3.48,1.83,984.22,32.19
3948,0.05,-0.0,0.98,2.2,3.48,1.65,984.25,32.2
3986,0.05,-0.0,0.98,2.01,3.42,1.77,984.22,32.2
4024,0.05,-0.01,0.98,2.2,3.48,1.71,984.21,32.2
4062,0.05,-0.0,0.98,2.08,3.54,1.71,984.27,32.21
4100,0.05,-0.0,0.98,1.95,3.66,1.65,984.24,32.22
4138,0.05,-0.0,0.98,2.01,3.3,1.53,984.3,32.23
4176,0.05,-0.0,0.98,2.01,3.54,1.71,984.23,32.2
4214,0.05,-0.0,0.98,1.89,3.42,1.65,984.23,32.2
4252,0.05,-0.0,0.98,2.08,3.48,1.77,984.23,32.21
4302,0.05,-0.0,0.98,2.01,3.36,1.77,984.26,32.19
4340,0.05,-0.0,0.98,2.08,3.48,1.71,984.25,32.21
4378,0.05,-0.0,0.98,2.08,3.36,1.59,984.23,32.22
4416,0.05,-0.0,0.98,1.83,3.42,1.71,984.24,32.23
4454,0.05,-0.0,0.98,2.01,3.48,1.77,984.18,32.22
4492,0.05,-0.0,0.98,2.14,3.48,1.65,984.29,32.23
4530,0.04,-0.02,1.02,1.53,3.54,1.83,984.22,32.21
4568,0.05,0.0,0.98,2.08,3.23,1.59,984.25,32.23
4606,0.05,-0.0,0.99,1.89,3.72,1.65,984.21,32.23
4644,0.05,-0.0,0.98,2.26,3.36,1.71,984.21,32.23
4721,0.05,-0.0,0.98,2.08,3.48,1.65,984.21,32.19
4759,0.05,-0.01,0.98,2.08,3.66,1.71,984.25,32.23
4797,0.05,-0.0,0.99,2.01,3.72,1.83,984.25,32.23
4886,0.05,-0.02,0.98,2.69,3.23,1.77,984.19,32.2
4924,0.04,0.02,0.98,1.22,3.72,3.3,984.22,32.22
4962,0.06,-0.01,0.97,1.95,3.6,1.71,984.26,32.23
5000,0.05,-0.01,0.99,3.3,2.81,2.08,984.23,32.23
5038,0.06,-0.0,0.99,1.34,3.97,1.83,984.22,32.24
5077,0.05,-0.0,0.99,1.34,3.91,1.83,984.29,32.25
5115,0.05,-0.0,0.98,1.65,3.66,1.71,984.21,32.24
5153,0.05,-0.01,0.98,2.14,3.42,1.71,984.29,32.26
5202,0.05,-0.0,0.98,1.95,3.48,1.77,984.28,32.24
5240,0.06,0.01,0.99,2.01,3.48,1.77,984.22,32.26
5278,0.04,-0.01,0.98,2.14,3.72,1.71,984.3,32.27
5316,-0.07,-0.06,0.98,-1.4,7.14,12.33,984.25,32.26
5354,0.12,-0.0,1.0,2.81,5.37,22.52,984.25,32.26
5392,-0.07,-0.11,0.97,-0.55,6.35,11.47,984.26,32.27
5430,0.06,-0.03,0.98,0.55,3.05,6.71,984.19,32.28
5468,-0.08,-0.05,0.97,4.15,1.95,-6.65,984.18,32.29
5507,0.21,0.08,1.0,5.37,1.53,6.71,984.26,32.29
5545,0.04,-0.05,0.99,2.87,3.97,18.07,984.2,32.3
5594,0.07,0.06,0.97,1.95,6.04,15.69,984.22,32.27
5632,0.05,0.01,0.99,2.99,3.11,15.14,984.24,32.28
5670,0.07,-0.01,1.02,4.46,2.99,14.47,984.2,32.29
5709,0.28,0.34,1.0,3.97,4.27,10.62,984.18,32.29
5747,0.06,-0.01,0.99,3.48,2.69,18.92,984.24,32.3
5785,0.07,0.01,0.99,3.05,2.75,18.92,984.19,32.3
5823,0.08,0.01,0.98,2.62,3.17,9.09,984.24,32.3
5861,0.05,0.0,0.99,1.59,4.15,1.46,984.17,32.31
5899,0.03,0.01,0.99,0.18,5.43,-3.05,984.21,32.31
5937,0.05,-0.0,0.98,-0.85,2.56,-18.55,984.24,32.32
5987,0.03,0.01,0.99,1.95,3.36,-1.59,984.23,32.29
6025,0.11,-0.02,0.99,2.44,4.09,-6.65,984.23,32.31
6063,0.06,0.03,1.0,0.79,4.52,-4.58,984.21,32.31
6101,-0.21,-0.01,0.97,-4.76,1.65,-41.87,984.2,32.31
6139,0.23,-0.18,1.03,6.77,-1.46,-29.11,984.24,32.32
6177,-0.02,-0.01,0.99,0.92,4.03,-9.22,984.24,32.31
6215,0.1,0.01,0.99,2.14,5.0,-7.32,984.18,32.34
6253,0.09,0.06,1.02,3.11,9.58,-6.77,984.18,32.32
6291,0.07,-0.04,0.99,5.0,19.23,-20.94,984.17,32.31
6329,0.08,-0.02,0.97,2.75,4.21,-25.51,984.25,32.34
6367,0.07,-0.0,0.98,1.4,2.99,-26.06,984.22,32.34
6417,0.05,-0.02,0.98,1.28,-13.98,-33.14,984.25,32.33
6455,-0.08,-0.11,0.94,10.01,-3.72,-9.03,984.21,32.33
6493,0.04,-0.03,1.0,3.78,2.26,1.34,984.26,32.34
6531,0.05,-0.01,0.99,1.95,3.3,0.98,984.19,32.33
6569,0.05,0.02,0.99,1.59,3.91,-0.18,984.19,32.33
6607,0.05,-0.01,0.98,1.89,3.42,1.65,984.23,32.34
6645,0.04,-0.0,0.99,2.14,3.72,0.24,984.24,32.35
6683,0.02,0.06,0.99,1.16,3.6,0.73,984.23,32.35
6721,0.05,-0.0,0.99,2.08,3.17,2.26,984.23,32.36
6759,0.06,0.02,0.99,3.36,3.23,4.88,984.22,32.35
6809,0.14,-0.02,0.99,3.05,2.69,13.49,984.27,32.34
6847,-0.0,-0.03,0.97,2.44,3.91,5.62,984.24,32.35
6885,0.16,-0.01,0.99,3.05,3.54,3.48,984.23,32.36
6923,0.1,0.03,0.99,2.2,3.66,16.72,984.28,32.36
6961,0.05,-0.03,0.98,2.26,4.15,2.56,984.2,32.37
6999,0.03,0.01,0.99,2.32,4.03,2.5,984.23,32.37
7037,-0.04,-0.21,0.99,2.08,3.3,0.55,984.19,32.36
7075,-0.15,0.18,0.92,-1.71,5.49,-51.76,984.18,32.37
7113,0.1,-0.11,0.91,-1.04,1.46,-50.54,984.24,32.38
7151,-0.16,0.05,1.02,2.14,3.66,1.89,984.23,32.38
7201,0.04,-0.02,0.98,1.83,3.54,1.71,984.16,32.37
7239,0.04,-0.02,1.01,5.68,3.48,-0.06,984.27,32.38
7277,0.04,-0.02,0.98,2.01,3.48,1.22,984.24,32.39
7315,0.05,-0.02,0.99,1.89,3.6,1.59,984.21,32.39
7353,0.05,-0.01,0.99,-0.37,2.75,1.95,984.22,32.39
7391,0.04,-0.01,0.99,1.95,3.42,1.95,984.22,32.39
7429,0.05,0.0,0.98,1.22,3.23,1.71,984.19,32.38
7467,0.05,-0.02,0.98,1.83,3.66,1.65,984.23,32.41
7505,0.05,-0.01,0.99,2.08,3.6,1.71,984.28,32.4
7543,0.05,-0.01,0.99,2.08,3.42,1.83,984.27,32.41
7581,0.05,-0.01,0.99,2.01,3.42,1.65,984.23,32.41
7631,0.05,-0.01,0.98,2.26,3.3,1.89,984.26,32.39
7669,0.04,-0.0,0.99,2.87,2.99,1.59,984.26,32.39
7707,0.04,-0.02,0.99,2.62,3.48,1.83,984.32,32.41
7745,0.05,-0.02,1.0,5.25,2.26,1.71,984.25,32.42
7783,0.06,-0.01,0.99,4.94,2.14,2.87,984.27,32.41
7821,0.03,-0.02,0.99,3.72,2.62,2.56,984.28,32.42
7859,0.05,-0.02,0.98,3.91,2.26,2.75,984.22,32.42
7897,0.02,-0.03,0.98,2.26,3.6,2.56,984.27,32.43
7935,0.04,-0.02,0.99,1.83,4.03,2.08,984.25,32.43
7973,0.03,-0.02,1.0,2.01,3.97,2.14,984.24,32.43
8049,0.02,-0.05,0.95,4.03,2.93,0.73,984.22,32.39
8087,0.06,0.01,0.99,0.67,3.66,3.05,984.23,32.42
8125,0.04,-0.03,1.0,1.34,4.27,1.83,984.21,32.42
8214,0.03,-0.08,0.95,1.71,4.39,1.53,984.17,32.38
8252,0.03,-0.04,1.0,1.53,4.52,-0.49,984.29,32.41
8290,0.05,-0.01,0.98,1.95,4.15,1.95,984.27,32.41
8328,0.04,-0.01,0.98,2.44,3.42,2.75,984.23,32.42
8366,0.07,-0.02,0.98,3.3,2.93,3.66,984.2,32.42
8404,0.12,-0.02,1.0,2.2,2.75,15.2,984.21,32.43
8442,0.07,0.0,1.0,2.14,3.23,6.41,984.24,32.44
8492,0.03,-0.06,0.97,1.95,4.7,18.55,984.23,32.42
8530,0.33,0.17,1.0,3.3,3.05,6.35,984.18,32.43
8568,-0.01,-0.08,0.95,3.11,5.07,61.1,984.27,32.45
8606,-0.37,-0.18,1.04,-3.91,5.74,13.12,984.21,32.44
8644,0.05,-0.0,0.98,3.05,3.05,2.01,984.23,32.44
8682,0.04,-0.01,1.0,2.26,3.05,17.88,984.23,32.45
8720,0.07,0.02,0.99,0.31,3.85,15.69,984.23,32.45
8758,0.02,-0.11,1.0,1.34,3.78,5.74,984.25,32.45
8796,0.05,-0.01,0.98,-0.43,4.58,1.34,984.21,32.45
8834,0.04,-0.02,0.98,1.4,3.97,1.46,984.17,32.46
8872,0.05,0.01,1.0,3.66,2.75,2.01,984.24,32.47
8922,0.04,-0.02,0.99,2.01,3.54,1.46,984.24,32.44
8960,0.01,-0.08,0.97,0.43,3.6,0.37,984.19,32.46
8998,0.06,0.03,1.0,2.56,3.3,1.83,984.18,32.47
9036,0.04,-0.0,1.0,1.89,3.48,1.83,984.21,32.48
9074,0.05,-0.0,0.98,2.2,3.11,1.65,984.23,32.48
9112,0.04,-0.0,0.97,2.01,3.48,1.59,984.22,32.49
9150,0.01,-0.1,0.98,-4.21,6.77,-7.26,984.23,32.48
9188,0.06,0.05,1.0,2.56,3.17,-7.87,984.23,32.47
9226,0.06,0.01,0.99,2.62,2.62,3.11,984.25,32.49
9264,0.06,0.01,0.97,1.04,4.76,2.14,984.16,32.49
9314,0.05,-0.0,0.98,2.08,3.72,1.95,984.22,32.48
9352,0.05,-0.01,0.98,1.89,3.78,1.71,984.21,32.49
9390,0.05,-0.01,0.99,2.26,3.66,1.83,984.22,32.48
9428,0.05,-0.0,0.99,2.44,2.99,1.89,984.19,32.48
9466,0.05,0.0,0.98,2.08,3.48,1.89,984.28,32.49
9504,0.07,0.0,0.99,-0.79,5.86,2.32,984.25,32.5
9542,0.06,0.0,0.98,2.32,3.3,1.83,984.23,32.49
9580,0.05,-0.01,0.99,3.72,2.44,1.59,984.17,32.5
9618,0.05,-0.01,0.99,2.56,3.23,1.89,984.23,32.49
9656,0.06,0.06,1.0,5.37,1.83,0.12,984.31,32.5
9694,0.06,-0.02,0.98,2.08,3.11,1.71,984.22,32.5
9744,0.05,-0.01,0.99,2.5,3.3,1.95,984.19,32.5
9782,0.05,-0.01,0.98,3.3,2.69,1.59,984.18,32.5
9820,0.04,-0.01,0.99,4.03,2.44,2.01,984.23,32.5
9858,0.04,-0.02,0.98,2.38,3.3,2.14,984.21,32.5
9896,0.05,-0.05,0.92,-0.49,4.39,2.08,984.18,32.51
9934,0.04,0.01,0.99,1.53,4.33,1.22,984.26,32.52
9972,0.05,0.0,0.99,0.85,3.23,1.1,984.21,32.51
10010,0.05,-0.0,0.98,4.46,2.26,1.71,984.2,32.51
10048,0.04,-0.02,0.98,5.31,1.65,2.14,984.2,32.51
10086,0.05,-0.01,1.0,4.82,2.44,2.81,984.23,32.53
10136,0.06,0.03,1.04,-3.42,5.25,2.26,984.24,32.52
10174,0.05,-0.01,0.97,5.55,3.66,2.93,984.19,32.51
10212,0.07,0.02,0.99,-2.38,6.35,2.87,984.24,32.51
10250,0.06,-0.01,0.98,1.53,2.44,1.53,984.18,32.52
10288,0.05,-0.01,0.99,5.0,2.44,1.4,984.21,32.52
10326,0.04,-0.02,0.99,2.14,3.17,2.08,984.15,32.52
10364,0.04,-0.01,0.99,1.89,3.72,1.95,984.21,32.53
10402,0.05,-0.01,0.98,-0.73,3.78,2.32,984.28,32.52
10440,0.04,-0.0,1.0,2.14,3.3,1.89,984.21,32.53
10478,0.04,-0.02,0.98,4.03,3.36,2.01,984.22,32.54
10528,0.04,-0.02,0.99,3.23,2.93,2.14,984.21,32.51
10566,0.05,0.0,1.01,-0.79,3.48,2.08,984.21,32.53
10604,0.06,-0.01,1.0,-0.49,3.3,1.71,984.24,32.53
10642,0.05,-0.01,0.99,1.46,2.87,1.46,984.24,32.55
10680,0.04,-0.01,0.98,-0.24,5.07,1.4,984.18,32.53
10718,0.02,0.02,1.0,0.79,4.21,1.4,984.18,32.54
10756,0.06,-0.01,0.96,0.49,5.62,-0.18,984.24,32.56
10794,0.04,-0.01,0.99,1.95,3.66,1.89,984.25,32.55
10832,0.05,-0.01,0.99,7.57,0.92,0.98,984.24,32.56
10870,0.03,-0.01,0.97,4.88,2.32,1.28,984.21,32.55
10908,0.04,-0.01,0.99,1.89,3.11,1.89,984.22,32.55
10958,0.05,-0.02,0.98,2.93,3.11,1.83,984.21,32.54
10996,0.07,-0.01,1.02,4.27,3.3,1.34,984.21,32.56
11034,0.04,-0.01,0.99,-3.91,4.03,3.17,984.19,32.56
11072,0.04,-0.02,0.99,2.26,3.05,2.93,984.23,32.56
11110,0.05,-0.01,1.0,1.77,3.6,4.64,984.24,32.55
11148,0.02,-0.0,0.99,3.42,4.15,11.72,984.22,32.56
11186,0.06,0.03,1.02,-5.43,4.39,4.64,984.21,32.57
11224,0.05,-0.02,0.96,2.81,2.26,2.38,984.18,32.57
11262,0.02,-0.02,0.99,2.75,3.36,3.54,984.26,32.58
11300,-0.08,-0.02,0.88,17.27,4.58,20.02,984.21,32.57
11376,-0.0,0.07,1.12,-11.11,5.19,3.17,984.28,32.55
11414,-0.15,-0.06,1.05,19.41,4.64,6.29,984.25,32.57
11452,0.03,0.03,0.91,3.23,4.21,57.98,984.19,32.57
11541,0.05,-0.01,0.98,3.54,2.32,2.75,984.24,32.54
11580,0.1,-0.09,0.87,7.14,3.11,10.38,984.18,32.55
11618,-0.03,-0.09,0.87,10.01,3.66,15.69,984.18,32.56
11656,-0.07,-0.11,0.98,1.65,4.82,49.56,984.28,32.57
11694,0.14,0.09,0.93,0.85,2.38,15.14,984.17,32.59
11732,0.05,0.0,1.02,-0.92,3.05,3.54,984.18,32.58
11770,0.03,-0.02,0.96,-1.77,4.09,2.5,984.24,32.59
11820,0.06,-0.01,0.97,1.89,3.97,1.95,984.19,32.57
11858,0.04,-0.0,0.99,2.44,3.42,1.83,984.28,32.58
11896,0.04,0.0,1.0,1.22,3.3,1.16,984.21,32.59
11934,0.04,-0.05,0.98,2.32,3.23,1.04,984.21,32.6
11972,0.04,-0.06,0.98,0.85,4.46,0.31,984.31,32.6
12010,0.05,0.01,0.99,1.77,3.54,2.93,984.25,32.6
12048,0.04,-0.02,0.99,1.83,3.05,0.06,984.22,32.6
12086,0.04,0.01,0.99,2.56,3.72,1.77,984.28,32.61
12124,0.04,-0.01,0.99,2.38,3.66,2.62,984.26,32.6
12162,0.05,0.0,0.98,1.65,5.19,2.69,984.23,32.61
12212,0.06,-0.02,0.97,-0.67,4.52,1.4,984.23,32.6
12250,0.0,0.0,0.99,0.37,4.21,2.14,984.17,32.6
12288,0.05,-0.0,0.99,2.44,3.48,1.53,984.21,32.61
12326,0.01,-0.15,0.98,2.2,4.15,-0.98,984.23,32.61
12364,-0.1,-0.25,1.01,1.1,4.33,-31.74,984.25,32.61
12402,0.59,2.65,1.11,-0.24,3.48,-52.12,984.21,32.61
12441,0.02,-0.0,1.01,1.53,3.42,1.89,984.18,32.62
12479,0.01,-0.03,0.98,2.26,2.62,3.85,984.22,32.62
12517,0.05,0.01,0.99,1.89,3.23,5.0,984.21,32.63
12555,0.06,-0.0,0.98,0.55,4.58,0.92,984.3,32.63
12605,0.07,-0.0,1.0,3.48,3.42,2.01,984.2,32.62
12643,0.01,-0.03,0.95,7.51,3.6,1.34,984.24,32.63
12681,0.05,-0.01,0.97,2.38,3.78,1.71,984.24,32.63
12719,0.03,-0.01,0.99,3.23,2.87,2.38,984.25,32.63
12757,0.05,-0.01,0.98,3.05,3.11,3.54,984.19,32.63
12795,0.05,-0.01,0.98,2.32,3.54,2.5,984.29,32.65
12833,0.05,-0.01,0.99,2.14,3.91,2.32,984.21,32.63
12871,0.04,-0.01,0.99,2.2,3.48,1.89,984.2,32.63
12909,0.05,-0.01,0.98,2.14,3.48,1.95,984.26,32.64
12947,0.05,-0.02,0.98,2.75,3.42,2.26,984.24,32.64
12997,0.05,-0.02,1.0,4.03,2.99,4.09,984.21,32.62
13035,0.05,-0.02,0.99,1.65,3.3,1.95,984.24,32.63
13073,0.04,-0.02,0.99,2.26,3.36,2.2,984.22,32.65
13111,0.05,-0.02,0.98,1.83,3.42,2.08,984.2,32.63
13149,0.05,-0.01,0.99,1.83,3.36,1.83,984.24,32.65
13187,0.05,-0.01,0.99,1.83,3.78,1.83,984.25,32.64
13225,0.04,-0.01,0.99,1.46,3.54,1.83,984.23,32.65
13263,0.05,-0.01,0.99,0.31,3.85,1.65,984.19,32.64
13301,0.04,-0.02,0.98,2.14,2.99,2.01,984.28,32.66
13339,0.04,-0.01,0.99,2.14,3.54,1.95,984.15,32.65
13377,0.05,-0.01,0.99,2.14,3.48,1.4,984.21,32.65
13427,0.04,-0.01,0.98,2.32,3.3,1.95,984.16,32.63
13465,0.05,-0.01,0.98,2.08,3.36,2.08,984.23,32.65
13503,0.04,-0.01,0.99,2.01,3.11,2.08,984.25,32.65
13541,0.05,-0.01,0.98,2.56,3.17,2.38,984.24,32.65
13579,0.04,-0.01,0.99,1.83,3.66,2.14,984.19,32.66
13617,0.05,-0.02,0.99,1.71,3.48,1.89,984.2,32.66
13655,0.04,-0.01,0.99,-0.98,5.62,1.28,984.26,32.66
13694,0.01,-0.01,0.98,1.95,4.76,1.28,984.25,32.65
13732,0.05,-0.01,0.98,1.95,4.09,1.53,984.27,32.65
13770,0.05,-0.0,0.97,1.95,3.6,1.59,984.28,32.67
13819,0.05,-0.0,0.98,2.2,3.3,1.53,984.16,32.64
13857,0.04,-0.0,0.99,2.38,3.23,1.65,984.19,32.65
13896,0.05,-0.0,0.99,2.26,3.23,1.59,984.17,32.65
13934,0.05,-0.01,0.98,1.71,4.09,1.95,984.2,32.66
13972,0.05,-0.01,0.98,1.83,3.85,1.71,984.22,32.66
14010,0.05,-0.01,0.99,1.89,3.42,1.65,984.16,32.67
14048,0.05,-0.01,0.98,2.01,3.54,1.71,984.24,32.65
14086,0.05,-0.01,0.98,1.89,3.66,1.65,984.26,32.68
14124,0.05,-0.01,0.98,1.95,3.66,1.59,984.24,32.67
14162,0.05,-0.01,0.99,2.14,3.36,1.65,984.19,32.67
14212,0.05,-0.01,0.99,2.01,3.6,1.77,984.26,32.67
14250,0.05,-0.01,0.98,2.08,3.54,1.77,984.2,32.66
14288,0.05,-0.01,0.99,2.01,3.54,1.71,984.19,32.66
14326,0.05,-0.01,0.98,1.89,3.72,1.83,984.19,32.65
14364,0.05,-0.01,0.98,1.89,3.48,1.77,984.21,32.66
14402,0.05,-0.01,0.98,2.2,3.66,1.59,984.24,32.68
14440,0.05,-0.01,0.99,1.89,3.72,1.71,984.23,32.67
14478,0.05,-0.01,0.99,2.08,3.54,1.53,984.19,32.65
14516,0.08,-0.02,0.92,2.2,2.81,1.65,984.19,32.67
14554,0.06,-0.0,0.96,2.08,3.78,1.59,984.22,32.67
14630,0.04,-0.01,0.99,2.14,3.6,1.77,984.19,32.63
14668,0.05,-0.01,0.99,2.08,3.36,1.77,984.26,32.65
14706,0.05,-0.01,0.99,2.01,3.23,1.59,984.24,32.65
14795,0.06,-0.01,0.98,1.89,3.97,1.65,984.21,32.62
14833,0.05,-0.01,0.98,2.01,3.85,1.65,984.23,32.64
14871,0.05,-0.01,0.98,2.08,3.54,1.59,984.22,32.64
14909,0.05,-0.01,0.98,2.01,3.3,1.65,984.2,32.64
14948,0.05,-0.01,0.98,1.95,3.78,1.65,984.27,32.64
14986,0.05,-0.01,0.98,2.01,3.85,1.59,984.21,32.64
15024,0.05,-0.01,0.99,2.14,3.6,1.77,984.25,32.64
15062,0.05,-0.01,0.99,2.01,3.42,1.83,984.24,32.66
15112,0.05,-0.01,0.99,2.01,3.3,1.65,984.22,32.63
15150,0.05,-0.01,0.98,2.01,3.6,1.59,984.2,32.65
15188,0.05,-0.0,0.98,1.95,3.6,1.65,984.19,32.66
15226,0.05,-0.01,0.99,2.01,3.54,1.71,984.21,32.66
15264,0.05,-0.01,0.99,2.01,3.6,1.71,984.2,32.66
15302,0.05,-0.01,0.99,1.95,3.42,1.53,984.28,32.67
15340,0.05,-0.01,0.98,2.01,3.54,1.59,984.21,32.66
15378,0.05,-0.01,0.98,1.95,3.42,1.53,984.23,32.68
15416,0.05,-0.01,0.98,1.89,3.54,1.65,984.26,32.68
15454,0.05,-0.01,0.98,2.08,3.6,1.71,984.17,32.68
15504,0.05,-0.01,0.99,2.01,3.66,1.71,984.21,32.67
15542,0.05,-0.01,0.99,1.95,3.48,1.59,984.28,32.7
15580,0.05,-0.01,0.99,1.95,3.54,1.71,984.24,32.68
15618,0.05,-0.01,0.98,2.01,3.54,1.83,984.25,32.69
15656,0.05,-0.01,0.98,2.01,3.48,1.65,984.22,32.68
15694,0.05,-0.0,0.99,2.08,3.42,1.59,984.17,32.68
15732,0.05,-0.0,0.99,1.95,3.54,1.71,984.17,32.7
15770,0.05,-0.0,0.99,2.08,3.66,1.65,984.21,32.7
15808,0.05,-0.01,0.99,1.95,3.6,1.65,984.26,32.7
15846,0.05,-0.01,0.98,1.83,3.54,1.65,984.19,32.71
15896,0.05,-0.01,0.98,2.01,3.66,1.65,984.22,32.68
15934,0.05,-0.01,0.99,2.01,3.78,1.46,984.18,32.69
15972,0.05,-0.01,0.99,2.01,3.66,1.59,984.24,32.7
16010,0.05,-0.01,0.99,2.2,3.36,1.71,984.2,32.71
16048,0.05,-0.01,0.98,2.08,3.48,1.46,984.17,32.71
16086,0.05,-0.01,0.99,2.08,3.6,1.65,984.2,32.7
16125,0.04,-0.01,0.98,2.08,3.6,1.77,984.22,32.69
16163,0.05,-0.01,0.98,2.01,3.6,1.71,984.23,32.7
16201,0.05,-0.01,0.99,1.89,3.48,1.83,984.18,32.7
16239,0.05,-0.01,0.98,2.08,3.66,1.59,984.2,32.72
16288,0.05,-0.01,0.99,2.01,3.66,1.71,984.21,32.7
16326,0.05,-0.01,0.99,2.2,3.48,1.71,984.22,32.7
16365,0.05,-0.01,0.98,1.95,3.6,1.53,984.16,32.71
16403,0.05,-0.01,0.98,1.95,3.6,1.65,984.2,32.73
16441,0.05,-0.01,0.98,2.01,3.6,1.71,984.23,32.72
16479,0.05,-0.01,0.99,2.08,3.54,1.59,984.19,32.72
16517,0.05,-0.0,0.98,2.08,3.54,1.71,984.23,32.72
16555,0.05,-0.01,0.99,2.08,3.54,1.65,984.23,32.72
16593,0.05,-0.01,0.98,2.08,3.48,1.71,984.24,32.72
16631,0.05,-0.01,0.98,1.95,3.42,1.59,984.22,32.72
16669,0.05,-0.01,0.99,2.08,3.54,1.59,984.2,32.73
16719,0.03,0.15,0.89,1.46,3.54,1.71,984.19,32.7
16757,0.04,0.04,1.12,-0.55,7.39,1.28,984.2,32.7
16795,0.08,0.01,0.94,0.85,5.19,1.83,984.24,32.73
16833,0.04,-0.02,1.04,2.62,1.71,1.53,984.24,32.73
16871,0.05,-0.02,0.97,2.14,3.85,1.59,984.25,32.74
16909,0.05,-0.01,1.0,2.2,4.88,1.77,984.25,32.73
16947,0.05,-0.01,1.0,2.14,3.36,1.59,984.2,32.73
16985,0.05,-0.01,0.99,2.08,2.99,1.77,984.21,32.73
17023,0.06,-0.0,0.98,1.95,3.3,1.65,984.2,32.73
17061,0.06,0.0,0.98,2.01,3.97,1.53,984.16,32.74
17111,0.05,-0.0,0.98,2.01,3.66,1.83,984.19,32.72
17149,0.05,-0.01,0.98,2.01,3.78,1.65,984.2,32.73
17187,0.04,-0.01,0.99,2.26,3.36,1.53,984.27,32.74
17225,0.05,-0.01,0.99,2.14,3.23,1.53,984.21,32.73
17263,0.05,-0.01,0.99,2.01,3.48,1.71,984.26,32.75
17301,0.06,-0.01,0.98,2.08,3.66,1.65,984.21,32.73
17339,0.05,-0.01,0.98,2.01,3.66,1.71,984.2,32.75
17377,0.05,-0.01,0.99,2.08,3.17,1.77,984.24,32.75
17415,0.05,-0.01,0.99,2.08,3.36,1.71,984.22,32.73
17453,0.05,-0.01,0.98,2.08,3.54,1.65,984.22,32.74
17503,0.05,-0.01,0.98,1.83,3.42,1.65,984.19,32.73
17541,0.05,-0.01,0.99,2.14,3.48,1.77,984.28,32.75
17579,0.05,-0.01,0.99,2.01,3.48,1.59,984.18,32.75
17617,0.05,-0.0,0.98,2.01,3.48,1.77,984.25,32.74
17655,0.05,0.0,0.98,2.01,3.48,1.83,984.24,32.74
17693,0.05,-0.0,0.99,2.14,3.66,1.71,984.25,32.76
17731,0.05,-0.01,0.99,2.01,3.6,1.65,984.21,32.75
17769,0.05,-0.01,0.99,2.08,3.54,1.77,984.26,32.75
17807,0.05,-0.01,0.99,1.95,3.54,1.59,984.22,32.76
17845,0.05,-0.01,0.98,1.77,3.6,1.59,984.21,32.75
17921,0.05,-0.01,0.98,2.14,3.42,1.59,984.2,32.74
17959,0.05,-0.01,0.98,2.08,3.42,1.53,984.15,32.74
17997,0.05,-0.01,0.99,2.01,3.42,1.71,984.22,32.75
18086,0.05,-0.01,0.98,1.95,3.6,1.77,984.2,32.72
18125,0.05,-0.01,0.98,2.08,3.66,1.59,984.27,32.74
18163,0.05,-0.0,0.98,1.89,3.48,1.65,984.2,32.74
18201,0.05,-0.0,0.97,2.38,3.36,1.65,984.21,32.76
18239,0.05,-0.0,0.98,1.83,3.42,1.59,984.23,32.76
18277,0.05,-0.01,0.98,2.08,3.54,1.59,984.2,32.74
18315,0.05,-0.01,0.99,2.08,3.54,1.77,984.28,32.77
18353,0.05,-0.01,0.99,1.89,3.72,1.53,984.22,32.78
18403,0.05,-0.01,0.98,1.89,3.54,1.71,984.24,32.76
18441,0.05,-0.01,0.98,2.01,3.54,1.65,984.27,32.77
18479,0.05,-0.01,0.97,1.89,3.66,1.77,984.22,32.78
18517,0.05,-0.01,0.99,1.53,3.48,1.71,984.25,32.8
18555,0.05,-0.01,0.99,2.14,3.42,1.59,984.21,32.78
18593,0.05,-0.01,0.99,2.01,3.48,1.71,984.2,32.79
18631,0.05,-0.01,0.99,2.01,3.48,1.71,984.24,32.78
18669,0.05,-0.01,0.99,2.14,3.36,1.59,984.21,32.8
18707,0.05,-0.0,0.98,2.01,3.72,1.53,984.25,32.8
18745,0.05,-0.01,0.99,1.95,3.48,1.65,984.26,32.8
18795,0.05,-0.0,0.99,2.01,3.48,1.59,984.2,32.79
18833,0.05,-0.01,0.99,2.08,3.42,1.65,984.24,32.8
18871,0.04,-0.01,0.99,2.01,3.54,1.65,984.23,32.8
18909,0.05,-0.01,0.99,2.01,3.66,1.59,984.24,32.81
18947,0.05,-0.01,0.99,1.95,3.42,1.71,984.26,32.81
18985,0.05,-0.01,0.99,2.01,3.78,1.65,984.24,32.81
19023,0.05,-0.01,0.98,2.2,3.48,1.65,984.23,32.81
19061,0.05,-0.0,0.98,2.08,3.66,1.59,984.22,32.8
19099,0.05,-0.01,0.99,2.01,3.66,1.71,984.16,32.8
19137,0.05,-0.01,0.99,2.2,3.6,1.83,984.28,32.82
19187,0.05,-0.01,0.98,2.01,3.6,1.59,984.22,32.8
19225,0.05,-0.01,0.99,2.14,3.72,1.77,984.21,32.82
19263,0.05,-0.01,0.99,2.14,3.6,1.71,984.24,32.8
19301,0.05,-0.01,0.99,2.14,3.72,1.59,984.22,32.81
19339,0.05,-0.01,0.99,2.08,3.6,1.71,984.24,32.81
19377,0.05,-0.01,0.99,1.95,3.48,1.77,984.31,32.83
19415,0.05,-0.01,0.99,1.95,3.66,1.71,984.23,32.82
19453,0.05,-0.01,0.99,2.08,3.42,1.71,984.25,32.83
19491,0.05,-0.01,0.98,1.95,3.72,1.77,984.22,32.82
19529,0.05,-0.01,0.99,2.01,3.54,1.65,984.19,32.8
19579,0.05,-0.01,0.98,2.01,3.72,1.71,984.21,32.8
19617,0.05,-0.01,0.99,2.01,3.78,1.65,984.17,32.81
19655,0.05,-0.01,0.99,2.08,3.54,1.65,984.24,32.82
19693,0.05,-0.01,0.99,1.89,3.6,1.53,984.23,32.82
19731,0.05,-0.01,0.98,2.01,3.6,1.65,984.29,32.83
19769,0.05,-0.01,0.99,2.14,3.66,1.65,984.23,32.84
19807,0.05,-0.01,0.99,1.95,3.6,1.77,984.23,32.83
19845,0.05,-0.01,0.99,2.08,3.42,1.71,984.28,32.82
19883,0.05,-0.01,0.98,2.14,3.6,1.65,984.32,32.83
19921,0.05,-0.01,0.98,2.01,3.66,1.65,984.2,32.84
19959,0.05,-0.01,0.99,1.59,3.66,1.83,984.25,32.83
20009,0.05,-0.0,0.98,2.32,3.42,1.65,984.19,32.83
20047,0.05,-0.01,0.99,1.95,3.66,1.77,984.2,32.84
20085,0.05,-0.01,0.99,2.2,3.36,1.65,984.28,32.85
20123,0.05,-0.01,0.98,1.83,3.66,1.83,984.24,32.83
20161,0.05,-0.01,0.98,2.2,3.6,1.59,984.27,32.84
20199,0.05,-0.01,0.99,2.14,3.6,1.65,984.18,32.84
20237,0.05,-0.01,0.99,2.01,3.48,1.65,984.24,32.84
20275,0.05,-0.01,0.99,2.14,3.6,1.83,984.24,32.84
20313,0.05,-0.01,0.98,2.08,3.36,1.83,984.13,32.86
20351,0.05,-0.01,0.99,2.08,3.42,1.77,984.19,32.85
20401,0.05,-0.01,0.99,2.01,3.42,1.71,984.2,32.84
20439,0.05,-0.01,0.99,1.89,3.48,1.71,984.24,32.85
20477,0.05,-0.01,0.99,2.2,3.6,1.71,984.21,32.85
20515,0.05,-0.01,0.99,2.14,3.72,1.65,984.25,32.85
20553,0.05,-0.01,0.99,1.83,3.72,1.77,984.3,32.86
20591,0.05,-0.0,0.99,2.14,3.48,1.71,984.26,32.86
20629,0.05,-0.01,0.99,2.38,3.48,1.77,984.23,32.87
20667,0.05,-0.01,0.99,1.95,3.48,1.71,984.21,32.86
20705,0.05,-0.01,0.99,1.77,3.6,1.71,984.2,32.86
20743,0.05,-0.01,0.99,2.2,3.48,1.65,984.23,32.87
20793,0.05,-0.01,0.99,2.14,3.54,1.77,984.22,32.85
20831,0.05,-0.01,0.99,2.32,3.48,1.77,984.23,32.86
20869,0.05,-0.01,0.98,2.08,3.6,1.77,984.23,32.88
20907,0.05,-0.01,0.99,2.81,3.48,1.77,984.27,32.88
20945,0.05,-0.0,0.98,2.5,3.6,1.65,984.2,32.87
20983,0.05,-0.01,0.98,2.75,3.3,1.65,984.21,32.87
21021,0.05,-0.01,0.99,2.44,3.48,1.95,984.24,32.88
21059,0.05,-0.02,0.98,2.69,3.17,1.65,984.19,32.87
21097,0.06,-0.01,1.0,2.69,3.66,1.22,984.29,32.89
21135,0.05,-0.01,0.98,2.26,3.66,1.71,984.19,32.88
21210,0.05,-0.01,0.99,2.38,3.72,1.77,984.23,32.87
21249,0.05,-0.01,0.91,2.87,3.42,1.71,984.18,32.87
21287,0.05,-0.01,0.97,2.08,3.48,1.77,984.2,32.89
21376,0.04,-0.01,0.98,1.59,3.36,1.71,984.22,32.86
21414,0.05,-0.01,0.99,1.89,3.3,1.89,984.26,32.85
21452,0.05,-0.01,0.99,1.22,3.97,1.71,984.19,32.88
21490,0.05,-0.01,0.98,2.38,3.6,1.59,984.28,32.89
21528,0.05,-0.01,0.98,2.62,3.3,1.77,984.2,32.87
21566,0.04,-0.01,1.0,1.89,3.85,2.08,984.21,32.89
21604,0.04,-0.01,0.98,2.69,3.72,2.01,984.23,32.9
21642,0.05,-0.01,0.99,1.28,3.85,1.95,984.21,32.89
21692,0.05,-0.01,0.99,2.2,3.11,1.95,984.24,32.89
21730,0.06,-0.01,0.98,2.26,3.85,2.01,984.25,32.9
21768,0.04,-0.01,0.99,2.32,4.27,2.01,984.25,32.9
21806,0.04,-0.01,1.0,2.5,4.09,2.01,984.23,32.9
21844,0.05,-0.01,0.98,3.54,2.87,1.95,984.24,32.9
21882,0.04,-0.02,0.98,2.93,2.87,2.14,984.18,32.91
21920,0.05,-0.01,1.0,2.08,4.33,2.62,984.25,32.9
21958,0.05,-0.01,0.97,1.53,3.72,2.26,984.25,32.91
21996,0.04,-0.03,0.95,0.67,4.33,2.5,984.24,32.93
22034,0.02,-0.01,0.92,0.0,4.52,2.2,984.27,32.94
22084,0.04,-0.01,0.99,2.32,3.66,1.65,984.22,32.9
22122,0.05,-0.01,0.99,1.53,3.66,1.77,984.24,32.92
22160,0.05,-0.01,0.99,1.1,3.3,1.77,984.23,32.91
22198,0.06,-0.01,1.02,0.06,3.91,1.83,984.23,32.92
22236,0.05,-0.0,0.98,1.59,3.97,1.71,984.27,32.92
22274,0.05,-0.01,0.98,1.77,3.42,1.65,984.2,32.93
22312,0.05,-0.01,0.99,1.95,3.48,1.53,984.24,32.92
22350,0.05,-0.02,0.98,1.89,3.54,1.46,984.17,32.91
22388,0.05,-0.01,0.98,1.89,3.54,1.53,984.23,32.93
22426,0.05,-0.01,0.98,1.89,3.85,1.59,984.25,32.91
22475,0.05,-0.01,0.99,2.01,3.66,1.65,984.24,32.91
22513,0.05,-0.01,0.99,2.08,3.66,1.65,984.23,32.91
22551,0.06,-0.0,0.98,1.89,3.97,1.65,984.19,32.91
22589,0.05,-0.01,0.98,2.14,3.6,1.65,984.24,32.91
22627,0.05,-0.01,0.99,1.95,3.6,1.65,984.25,32.9
22665,0.05,-0.01,0.99,1.95,3.48,1.71,984.24,32.92
22703,0.05,-0.01,0.98,2.14,3.6,1.65,984.27,32.92
22741,0.05,-0.01,0.98,1.95,3.54,1.59,984.26,32.9
22779,0.05,-0.01,0.99,1.95,3.6,1.46,984.2,32.9
22817,0.05,-0.01,0.99,2.01,3.54,1.46,984.27,32.92
22867,0.05,-0.01,0.99,2.14,3.72,1.53,984.24,32.9
22905,0.05,-0.01,0.99,1.95,3.48,1.65,984.23,32.9
22943,0.05,-0.01,0.99,2.14,3.48,1.65,984.26,32.91
22981,0.05,-0.01,0.99,1.95,3.66,1.4,984.22,32.89
23019,0.05,-0.01,0.99,2.01,3.48,1.71,984.24,32.91
23057,0.05,-0.01,0.99,1.95,3.66,1.65,984.23,32.89
23095,0.05,-0.01,0.99,2.08,3.48,1.4,984.2,32.89
23133,0.05,-0.01,0.98,2.01,3.54,1.53,984.23,32.9
23171,0.05,-0.01,0.98,1.95,3.6,1.65,984.17,32.89
23209,0.05,-0.01,0.99,2.14,3.6,1.53,984.21,32.91
23259,0.05,-0.01,0.99,2.01,3.54,1.53,984.22,32.9
23297,0.05,-0.01,0.99,2.08,3.66,1.53,984.26,32.88
23335,0.05,-0.01,0.99,2.2,3.6,1.59,984.23,32.9
23373,0.05,-0.01,0.98,2.01,3.54,1.65,984.18,32.9
23411,0.05,-0.01,0.98,1.95,3.6,1.59,984.23,32.9
23449,0.05,-0.01,0.99,2.01,3.72,1.59,984.28,32.9
23487,0.05,-0.01,0.99,1.95,3.48,1.59,984.26,32.91
23525,0.05,-0.01,0.99,2.14,3.66,1.71,984.22,32.91
23563,0.05,-0.01,0.98,1.95,3.48,1.59,984.21,32.92
23601,0.05,-0.01,0.99,1.89,3.72,1.59,984.2,32.91
23639,0.05,-0.01,0.99,2.08,3.48,1.71,984.21,32.91
23689,0.05,-0.01,0.99,2.01,3.72,1.65,984.2,32.9
23727,0.05,-0.01,0.98,2.08,3.42,1.71,984.17,32.91
23765,0.05,-0.01,0.98,2.08,3.66,1.53,984.27,32.9
23803,0.05,-0.01,0.99,2.14,3.72,1.59,984.23,32.91
23841,0.05,-0.01,0.99,2.2,3.6,1.53,984.2,32.9
23879,0.05,-0.01,0.98,2.14,3.48,1.59,984.19,32.9
23917,0.05,-0.01,0.99,2.2,3.66,1.77,984.2,32.91
23955,0.05,-0.01,0.99,2.01,3.6,1.65,984.26,32.92
23993,0.05,-0.01,0.98,2.01,3.66,1.59,984.21,32.92
24031,0.05,-0.01,0.99,1.95,3.66,1.4,984.24,32.91
24081,0.05,-0.01,0.98,1.95,3.3,1.77,984.23,32.89
24119,0.05,-0.01,0.98,1.83,3.54,1.53,984.2,32.91
24157,0.05,-0.01,0.99,2.14,3.6,1.71,984.24,32.92
24195,0.05,-0.01,0.99,1.95,3.6,1.53,984.27,32.92
24233,0.05,-0.01,0.99,2.08,3.54,1.71,984.2,32.91
24271,0.05,-0.01,0.98,2.14,3.54,1.59,984.19,32.92
24309,0.05,-0.01,0.99,1.95,3.66,1.77,984.19,32.92
24347,0.05,-0.01,0.99,2.14,3.6,1.53,984.22,32.91
24385,0.05,-0.01,0.99,2.08,3.42,1.65,984.26,32.93
24423,0.05,-0.01,0.99,2.01,3.54,1.71,984.23,32.93
24498,0.05,-0.01,0.99,2.01,3.6,1.59,984.24,32.9
24536,0.05,-0.01,0.98,2.01,3.72,1.53,984.22,32.92
24574,0.05,-0.01,0.98,2.08,3.6,1.65,984.21,32.92
24664,0.05,-0.01,0.99,2.14,3.6,1.59,984.23,32.89
24702,0.05,-0.01,0.99,2.01,3.42,1.65,984.18,32.9
24740,0.05,-0.01,0.98,2.14,3.54,1.59,984.21,32.92
24778,0.05,-0.01,0.99,2.14,3.48,1.71,984.25,32.92
24816,0.05,-0.01,0.98,2.01,3.48,1.65,984.17,32.9
24854,0.05,-0.01,0.99,2.08,3.72,1.71,984.22,32.9
24892,0.05,-0.01,0.99,2.08,3.54,1.71,984.22,32.92
24942,0.05,-0.01,0.99,2.08,3.48,1.71,984.2,32.9
24980,0.05,-0.01,0.99,2.08,3.6,1.59,984.23,32.92
25018,0.05,-0.01,0.99,2.14,3.42,1.71,984.23,32.92
25056,0.05,-0.01,0.98,2.14,3.6,1.71,984.2,32.91
25094,0.05,-0.01,0.99,2.08,3.78,1.53,984.16,32.91
25132,0.05,-0.01,0.98,2.01,3.66,1.71,984.21,32.93
25170,0.05,-0.01,0.98,2.01,3.48,1.65,984.21,32.94
25208,0.05,-0.01,0.99,2.14,3.6,1.59,984.19,32.93
25246,0.05,-0.01,0.98,2.01,3.66,1.46,984.25,32.94
25284,0.05,-0.01,0.99,1.95,3.54,1.53,984.19,32.93
25322,0.05,-0.01,0.99,2.01,3.66,1.46,984.2,32.93
25372,0.05,-0.01,0.98,2.2,3.72,1.65,984.19,32.92
25410,0.05,-0.01,0.99,2.01,3.48,1.59,984.22,32.92
25448,0.05,-0.01,0.99,2.14,3.54,1.71,984.26,32.93
25486,0.05,-0.01,0.99,1.89,3.72,1.65,984.25,32.93
25524,0.05,-0.01,0.98,1.95,3.48,1.65,984.19,32.93
25562,0.05,-0.01,0.98,2.01,3.54,1.53,984.19,32.92
25600,0.05,-0.01,0.99,2.08,3.6,1.65,984.18,32.92
25638,0.05,-0.01,0.98,2.08,3.54,1.71,984.14,32.94
25676,0.05,-0.01,0.99,2.08,3.6,1.71,984.21,32.94
25714,0.05,-0.01,0.98,1.89,3.48,1.59,984.22,32.94
25764,0.05,-0.01,0.98,2.08,3.66,1.65,984.22,32.93
25802,0.05,-0.01,0.99,2.01,3.48,1.65,984.23,32.93
25840,0.05,-0.01,0.99,2.01,3.66,1.65,984.19,32.93
25878,0.05,-0.01,0.99,2.01,3.6,1.65,984.25,32.94
25916,0.05,-0.01,0.99,2.08,3.42,1.71,984.25,32.94
25954,0.05,-0.01,0.99,2.14,3.54,1.59,984.24,32.94
25992,0.05,-0.01,0.99,2.14,3.42,1.59,984.28,32.96
26030,0.05,-0.01,0.99,2.08,3.66,1.59,984.22,32.94
26068,0.05,-0.01,0.99,2.08,3.54,1.65,984.12,32.93
26106,0.05,-0.01,0.98,2.08,3.48,1.59,984.19,32.95
26156,0.05,-0.01,0.99,2.01,3.6,1.65,984.17,32.93
26194,0.05,-0.01,0.98,1.95,3.6,1.53,984.23,32.94
26232,0.05,-0.01,0.99,2.08,3.6,1.65,984.22,32.94
26270,0.05,-0.01,0.99,2.01,3.6,1.65,984.23,32.93
26308,0.05,-0.01,0.99,2.14,3.66,1.53,984.21,32.96
26346,0.05,-0.01,0.99,2.01,3.66,1.77,984.23,32.95
26384,0.05,-0.01,0.98,2.14,3.6,1.65,984.24,32.96
26422,0.05,-0.01,0.99,1.83,3.66,1.59,984.16,32.95
26460,0.05,-0.01,0.99,2.14,3.54,1.59,984.23,32.97
26498,0.05,-0.01,0.98,2.01,3.54,1.4,984.24,32.96
26548,0.05,-0.01,0.99,2.14,3.54,1.59,984.17,32.94
26586,0.05,-0.01,0.99,1.95,3.66,1.53,984.22,32.96
26624,0.05,-0.01,0.98,2.08,3.48,1.46,984.22,32.95
26662,0.05,-0.01,0.98,1.95,3.54,1.4,984.23,32.94
26700,0.05,-0.01,0.99,1.95,3.66,1.53,984.26,32.96
26738,0.05,-0.01,0.98,2.01,3.6,1.53,984.2,32.96
26776,0.05,-0.01,0.99,2.14,3.72,1.59,984.16,32.94
26814,0.05,-0.01,0.99,2.01,3.6,1.71,984.22,32.94
26852,0.05,-0.01,0.99,2.01,3.66,1.59,984.19,32.96
26890,0.05,-0.01,0.98,2.08,3.54,1.46,984.22,32.96
26928,0.05,-0.01,0.99,2.08,3.48,1.65,984.21,32.95
26978,0.05,-0.01,0.99,1.89,3.66,1.65,984.19,32.96
27016,0.05,-0.01,0.98,2.08,3.48,1.71,984.23,32.95
27054,0.05,-0.01,0.99,2.14,3.6,1.59,984.26,32.95
27092,0.05,-0.01,0.98,2.01,3.6,1.65,984.21,32.96
27130,0.05,-0.01,0.99,2.14,3.6,1.53,984.17,32.95
27168,0.05,-0.01,0.99,2.01,3.48,1.71,984.25,32.96
27206,0.05,-0.01,0.99,2.01,3.6,1.53,984.22,32.94
27244,0.05,-0.01,0.99,2.08,3.6,1.59,984.17,32.96
27282,0.05,-0.01,0.99,2.08,3.72,1.77,984.17,32.94
27320,0.05,-0.01,0.99,1.95,3.54,1.65,984.2,32.96
27370,0.05,-0.01,0.98,2.08,3.54,1.59,984.19,32.95
27408,0.05,-0.01,0.99,2.01,3.54,1.46,984.24,32.95
27446,0.05,-0.01,0.98,2.08,3.72,1.46,984.21,32.96
27484,0.05,-0.01,0.99,1.95,3.66,1.65,984.22,32.96
27522,0.05,-0.01,0.99,2.2,3.54,1.65,984.22,32.96
27560,0.05,-0.01,0.98,1.89,3.54,1.71,984.2,32.97
27598,0.05,-0.01,0.99,1.95,3.66,1.65,984.2,32.97
27636,0.05,-0.01,0.99,2.08,3.6,1.65,984.24,32.98
27674,0.05,-0.01,0.99,2.08,3.6,1.83,984.15,32.97
27712,0.05,-0.01,0.99,2.14,3.42,1.59,984.23,32.97
27789,0.05,-0.01,0.99,2.01,3.72,1.59,984.2,32.95
27827,0.05,-0.01,0.99,1.89,3.6,1.46,984.19,32.94
27865,0.05,-0.01,0.99,1.95,3.54,1.65,984.23,32.96
27954,0.05,-0.01,0.99,2.14,3.6,1.59,984.2,32.92
27992,0.05,-0.01,0.99,2.08,3.6,1.77,984.25,32.95
28030,0.05,-0.01,0.99,1.95,3.6,1.83,984.25,32.96
28069,0.05,-0.01,0.98,2.01,3.48,1.65,984.18,32.96
28107,0.05,-0.01,0.99,2.01,3.66,1.59,984.22,32.96
28145,0.05,-0.01,0.99,2.14,3.54,1.59,984.21,32.95
28183,0.05,-0.01,0.99,2.14,3.66,1.65,984.21,32.96
28232,0.05,-0.01,0.99,1.89,3.72,1.53,984.19,32.95
28270,0.05,-0.01,0.99,1.95,3.54,1.53,984.24,32.97
28309,0.05,-0.01,0.98,2.01,3.6,1.71,984.21,32.96
28347,0.05,-0.01,0.98,2.01,3.54,1.77,984.26,32.97
28385,0.05,-0.01,0.98,2.08,3.48,1.53,984.21,32.96
28423,0.05,-0.01,0.99,2.08,3.42,1.71,984.2,32.98
28461,0.05,-0.01,0.99,2.14,3.54,1.71,984.24,32.98
28499,0.05,-0.01,0.99,2.14,3.54,1.53,984.16,32.97
28537,0.05,-0.01,0.99,2.14,3.54,1.59,984.23,32.98
28575,0.05,-0.01,0.99,2.01,3.54,1.46,984.18,32.98
28613,0.05,-0.01,0.99,1.95,3.6,1.59,984.22,32.98
28663,0.05,-0.01,0.98,2.14,3.6,1.59,984.23,32.97
28701,0.05,-0.01,0.99,2.14,3.42,1.53,984.18,32.97
28739,0.05,-0.01,0.99,2.14,3.78,1.53,984.19,32.99
28777,0.05,-0.01,0.99,2.08,3.54,1.65,984.19,33.0
28815,0.05,-0.01,0.99,2.01,3.6,1.53,984.25,32.99
28853,0.05,-0.01,0.99,1.95,3.54,1.71,984.21,32.99
28891,0.05,-0.01,0.99,2.2,3.48,1.65,984.23,32.99
28929,0.05,-0.01,0.99,1.95,3.6,1.65,984.2,32.99
28967,0.05,-0.01,0.99,2.14,3.54,1.59,984.2,33.0
29005,0.05,-0.01,0.99,2.01,3.6,1.59,984.23,33.0
29054,0.05,-0.01,0.99,2.08,3.91,1.65,984.15,32.98
29092,0.05,-0.01,0.99,2.01,3.78,1.53,984.19,32.99
29130,0.05,-0.01,0.99,2.01,3.48,1.59,984.21,32.99
29168,0.05,-0.01,0.99,2.14,3.66,1.65,984.24,33.0
29206,0.05,-0.01,0.98,1.89,3.66,1.65,984.21,32.99
29245,0.05,-0.01,0.99,2.08,3.72,1.65,984.25,33.0
29283,0.05,-0.01,0.99,2.14,3.66,1.59,984.2,33.0
29321,0.05,-0.01,0.99,1.95,3.66,1.59,984.19,33.0
29359,0.05,-0.01,0.98,2.08,3.66,1.71,984.22,33.0
29397,0.05,-0.01,0.99,2.14,3.6,1.65,984.18,33.02
29446,0.05,-0.01,0.99,1.95,3.66,1.65,984.22,33.0
29484,0.05,-0.01,0.99,2.08,3.66,1.65,984.23,33.0
29522,0.05,-0.01,0.99,2.14,3.66,1.77,984.18,33.01
29560,0.05,-0.01,0.99,2.26,3.6,1.65,984.21,33.0
29598,0.05,-0.01,0.99,2.08,3.6,1.53,984.24,33.01
29636,0.05,-0.01,0.99,2.14,3.54,1.65,984.19,33.02
29675,0.05,-0.01,0.99,2.01,3.66,1.46,984.26,33.02
29713,0.05,-0.01,0.98,2.08,3.6,1.65,984.18,33.03
29750,0.05,-0.01,0.99,2.01,3.66,1.59,984.23,33.02
29789,0.05,-0.01,0.99,2.2,3.66,1.53,984.18,33.03
29838,0.05,-0.01,0.99,2.08,3.48,1.65,984.25,33.03
29876,0.05,-0.01,0.98,1.89,3.54,1.65,984.21,33.02
29914,0.05,-0.01,0.99,2.01,3.66,1.59,984.17,33.01
29952,0.05,-0.01,0.99,2.14,3.72,1.71,984.21,33.03
29990,0.05,-0.01,0.99,2.14,3.66,1.71,984.22,33.02
30028,0.05,-0.01,0.99,2.08,3.54,1.59,984.21,33.03
30066,0.05,-0.01,0.99,2.2,3.6,1.71,984.24,33.02
30104,0.05,-0.01,0.99,2.01,3.54,1.65,984.22,33.03
30142,0.05,-0.01,0.99,2.2,3.54,1.65,984.22,33.02
30180,0.05,-0.01,0.99,2.01,3.6,1.65,984.25,33.03
30218,0.05,-0.01,0.99,2.08,3.6,1.65,984.23,33.04
30268,0.05,-0.01,0.98,2.08,3.6,1.71,984.22,33.03
30306,0.05,-0.01,0.99,2.08,3.66,1.65,984.19,33.03
30344,0.05,-0.01,0.99,2.14,3.48,1.65,984.21,33.04
30382,0.05,-0.01,0.99,2.01,3.6,1.77,984.26,33.04
30420,0.05,-0.01,0.99,2.08,3.6,1.59,984.24,33.04
30458,0.05,-0.01,0.99,2.14,3.78,1.71,984.26,33.04
30496,0.05,-0.01,0.99,1.95,3.54,1.59,984.2,33.04
30534,0.05,-0.01,0.98,1.95,3.6,1.59,984.21,33.04
30572,0.05,-0.01,0.99,1.95,3.72,1.71,984.23,33.04
30610,0.05,-0.01,0.99,2.14,3.36,1.53,984.19,33.04
30660,0.05,-0.01,0.99,2.01,3.54,1.71,984.22,33.03
30698,0.05,-0.01,0.99,2.08,3.48,1.53,984.18,33.04
30736,0.05,-0.01,0.99,1.95,3.6,1.46,984.19,33.05
30774,0.05,-0.0,0.99,2.01,3.54,1.71,984.24,33.05
30812,0.05,-0.01,0.99,2.14,3.66,1.53,984.23,33.04
30850,0.05,-0.01,0.99,2.2,3.48,1.77,984.23,33.05
30888,0.05,-0.01,0.99,2.08,3.6,1.65,984.25,33.04
30926,0.05,-0.01,0.99,2.14,3.66,1.53,984.21,33.06
30964,0.05,-0.01,0.99,2.14,3.66,1.71,984.23,33.05
31002,0.05,-0.01,0.99,2.26,3.42,1.53,984.21,33.05
31078,0.05,-0.01,0.99,2.01,3.6,1.59,984.2,33.02
31116,0.05,-0.01,0.99,2.01,3.72,1.77,984.19,33.04
31154,0.06,-0.0,0.98,2.5,2.81,1.65,984.22,33.04
31243,0.05,-0.01,0.99,2.26,2.87,1.65,984.2,33.03
31281,0.05,-0.0,0.99,2.08,3.05,1.53,984.21,33.03
31319,0.06,-0.01,0.98,2.01,3.72,1.59,984.23,33.04
31357,0.05,-0.01,0.98,2.08,3.78,1.59,984.24,33.05
31395,0.05,-0.01,0.98,2.01,3.72,1.65,984.24,33.03
31433,0.05,-0.0,0.98,1.89,3.54,1.65,984.2,33.03
31471,0.05,-0.01,0.98,2.01,3.72,1.65,984.22,33.05
31521,0.05,-0.01,0.98,2.08,3.72,1.4,984.26,33.04
31559,0.05,-0.01,0.98,1.95,3.72,1.53,984.23,33.06
31597,0.05,-0.01,0.99,1.95,3.6,1.65,984.16,33.06
31635,0.05,-0.01,0.99,2.08,3.36,1.65,984.3,33.06
31673,0.05,-0.01,0.99,2.01,3.6,1.59,984.24,33.04
31711,0.05,-0.01,0.98,2.14,3.66,1.46,984.24,33.06
31749,0.05,-0.01,0.98,2.08,3.66,1.71,984.25,33.07
31787,0.05,-0.0,0.99,1.83,3.6,1.83,984.25,33.07
31825,0.05,-0.01,0.98,2.14,3.42,1.46,984.25,33.08
31863,0.05,-0.01,0.99,1.89,3.36,1.53,984.25,33.07
31901,0.05,-0.01,0.99,2.08,3.36,2.14,984.23,33.06
31951,0.05,-0.01,0.98,1.89,3.05,2.62,984.19,33.05
31989,0.05,-0.01,0.99,1.71,3.85,2.14,984.24,33.08
32027,0.05,0.0,0.99,1.77,3.36,2.81,984.21,33.07
32065,0.05,0.0,1.0,1.4,2.38,1.71,984.28,33.08
32103,0.05,-0.01,0.97,1.04,2.01,2.44,984.19,33.08
32141,0.08,-0.0,0.97,1.46,3.23,1.46,984.19,33.08
32179,0.07,-0.0,0.99,2.32,4.46,0.79,984.2,33.08
32217,0.2,-0.12,1.07,0.49,2.08,0.85,984.21,33.09
32255,0.05,0.01,1.0,2.99,3.78,0.31,984.21,33.07
32293,0.05,-0.0,0.98,2.69,4.94,0.67,984.17,33.07
32342,0.04,0.02,0.97,2.08,6.59,1.83,984.21,33.07
32380,0.05,-0.01,0.99,1.89,4.15,1.59,984.23,33.08
32418,0.05,-0.01,0.99,2.01,3.36,1.53,984.25,33.09
32457,0.05,-0.01,0.98,2.08,3.72,1.59,984.22,33.09
32495,0.05,-0.01,0.98,1.95,4.03,1.65,984.26,33.1
32533,0.05,-0.0,0.99,2.01,4.09,1.71,984.19,33.09
32570,0.05,-0.0,0.99,2.32,3.17,1.53,984.18,33.08
32608,0.05,-0.0,0.99,2.08,3.23,1.65,984.26,33.11
32646,0.05,-0.0,0.98,2.14,3.54,1.34,984.23,33.1
32684,0.05,-0.01,0.99,2.14,3.6,1.46,984.15,33.1
32734,0.0,-0.02,0.96,2.08,3.72,1.53,984.18,33.07
32772,0.07,-0.01,1.0,2.2,1.83,2.38,984.23,33.1
32810,0.05,-0.01,0.99,2.75,2.26,1.59,984.28,33.11
32848,0.05,-0.01,0.98,1.95,3.48,1.59,984.16,33.09
32886,0.05,-0.01,0.99,1.95,4.09,1.53,984.22,33.09
32924,0.03,-0.0,0.99,1.89,4.76,2.14,984.24,33.11
32962,0.05,-0.01,0.99,1.65,4.39,1.77,984.17,33.11
33000,0.04,-0.02,0.97,2.44,4.7,0.98,984.21,33.09
33038,0.05,-0.01,0.98,2.26,3.85,1.28,984.17,33.11
33076,0.05,-0.01,0.99,2.14,3.66,1.65,984.23,33.11
33126,0.06,-0.01,1.03,-5.07,4.82,5.25,984.25,33.09
33164,0.08,-0.02,1.0,6.53,5.31,-0.12,984.23,33.09
33202,0.02,-0.03,1.03,2.99,1.04,1.59,984.23,33.1
33240,0.04,0.0,1.0,1.16,2.38,1.83,984.22,33.11
33278,0.07,0.01,0.94,-0.67,3.97,1.83,984.2,33.11
33316,0.06,0.0,0.98,1.95,4.39,0.92,984.22,33.11
33354,0.05,-0.0,1.0,3.3,4.21,0.61,984.19,33.11
33392,0.04,-0.0,0.99,4.82,3.42,-0.31,984.2,33.13
33430,0.06,0.0,0.98,2.93,3.6,0.31,984.25,33.1
33468,0.04,-0.02,0.97,3.72,1.95,-0.49,984.23,33.11
33506,0.05,-0.02,0.99,2.56,3.66,1.46,984.23,33.11
33556,0.04,-0.01,0.99,1.65,4.39,1.89,984.18,33.1
33594,0.04,-0.01,1.0,3.05,3.48,0.06,984.25,33.1
33632,0.06,0.0,0.98,2.5,3.42,-0.43,984.25,33.13
33670,0.01,-0.06,0.96,5.62,0.31,-0.73,984.22,33.13
33708,0.05,-0.0,0.98,0.55,3.6,4.03,984.19,33.12
33746,0.06,-0.0,0.98,1.34,3.91,3.91,984.17,33.12
33784,0.05,-0.0,0.99,2.26,3.85,1.53,984.2,33.11
33822,0.05,-0.01,0.99,1.95,3.6,1.34,984.18,33.11
33860,0.04,-0.01,1.0,1.83,3.54,1.89,984.21,33.12
33898,0.05,0.0,0.98,1.89,5.37,1.59,984.21,33.11
33948,0.03,0.0,0.96,1.22,3.97,1.22,984.19,33.11
33986,0.05,-0.01,1.01,2.62,0.79,1.65,984.13,33.11
34024,0.05,-0.01,1.0,1.83,3.97,2.14,984.25,33.1
34062,0.05,-0.01,0.99,2.26,5.55,1.4,984.23,33.13
34100,0.04,0.01,0.99,2.14,4.15,1.34,984.24,33.13
34138,0.05,-0.01,0.98,2.01,3.17,1.65,984.23,33.11
34176,0.05,-0.01,0.98,2.01,3.91,1.53,984.19,33.11
34214,0.05,-0.01,0.99,1.89,3.85,1.53,984.22,33.12
34252,0.05,-0.0,0.99,1.95,3.6,1.59,984.22,33.12
34290,0.05,0.0,0.99,2.08,3.3,1.65,984.21,33.13
34365,0.05,-0.0,0.99,2.14,3.78,1.53,984.19,33.1
34404,0.05,-0.0,0.99,1.95,3.97,1.65,984.2,33.11
34442,0.05,-0.01,0.99,2.14,3.6,1.53,984.21,33.12
34531,0.05,-0.01,0.99,2.08,3.48,1.59,984.17,33.09
34569,0.05,-0.01,0.99,2.14,3.66,1.46,984.19,33.11
34607,0.05,-0.01,0.98,2.08,3.6,1.59,984.15,33.1
34645,0.05,-0.01,0.99,2.08,3.66,1.83,984.24,33.12
34683,0.05,-0.01,0.99,1.95,3.72,1.59,984.2,33.11
34721,0.05,-0.01,0.99,2.14,3.66,1.65,984.21,33.11
34759,0.05,-0.01,0.98,2.01,3.72,1.71,984.19,33.12
34809,0.05,-0.01,0.99,2.14,3.42,1.53,984.23,33.11
34847,0.05,-0.01,0.99,2.26,3.54,1.71,984.16,33.11
34885,0.05,-0.01,0.99,2.01,3.66,1.53,984.27,33.12
34923,0.05,-0.0,0.99,2.26,3.66,1.65,984.23,33.12
34961,0.05,-0.0,0.99,2.01,3.6,1.59,984.22,33.13
34999,0.05,-0.0,0.99,2.01,3.48,1.59,984.2,33.12
35037,0.05,-0.01,0.98,2.08,3.6,1.53,984.21,33.14
35075,0.05,-0.0,0.99,2.08,3.66,1.59,984.27,33.14
35113,0.05,-0.0,0.99,2.08,3.6,1.71,984.21,33.14
35151,0.05,-0.01,0.99,2.26,3.72,1.53,984.24,33.15
35189,0.05,-0.01,0.99,1.95,3.6,1.59,984.19,33.13
35239,0.05,-0.01,0.99,1.95,3.66,1.53,984.25,33.12
35277,0.05,-0.01,0.99,2.14,3.72,1.65,984.24,33.15
35315,0.05,-0.01,0.99,2.01,3.54,1.53,984.18,33.13
35353,0.05,-0.01,0.99,2.08,3.54,1.59,984.22,33.13
35391,0.05,-0.0,0.99,2.14,3.78,1.53,984.27,33.15
35429,0.05,-0.01,0.99,2.08,3.66,1.71,984.24,33.16
35467,0.05,-0.01,0.99,2.2,3.48,1.53,984.24,33.14
35505,0.05,-0.01,0.99,2.01,3.48,1.59,984.21,33.14
35543,0.05,-0.01,0.99,2.08,3.6,1.59,984.26,33.13
35581,0.05,-0.01,0.99,2.2,3.6,1.53,984.19,33.14
35631,0.05,-0.01,0.99,2.08,3.72,1.65,984.23,33.13
35669,0.05,-0.01,0.99,2.14,3.54,1.59,984.19,33.13
35707,0.05,-0.01,0.99,2.01,3.6,1.59,984.15,33.14
35745,0.05,-0.01,0.99,2.08,3.72,1.46,984.18,33.13
35783,0.05,-0.01,0.99,2.08,3.72,1.59,984.26,33.14
35821,0.05,-0.01,0.99,2.08,3.66,1.59,984.21,33.15
35859,0.05,-0.01,0.98,2.08,3.54,1.71,984.19,33.15
35897,0.05,-0.01,0.99,2.14,3.6,1.71,984.19,33.14
35935,0.05,-0.01,0.99,1.95,3.54,1.71,984.2,33.15
35973,0.05,-0.01,0.99,1.95,3.78,1.83,984.23,33.16
36023,0.05,-0.0,0.99,2.2,3.54,1.59,984.2,33.13
36061,0.05,-0.0,0.99,2.14,3.6,1.65,984.23,33.15
36099,0.05,-0.0,0.99,2.14,3.54,1.65,984.25,33.15
36137,0.05,-0.01,0.99,2.01,3.72,1.53,984.23,33.16
36175,0.05,-0.01,0.99,2.08,3.66,1.65,984.23,33.15
36213,0.05,-0.01,0.99,1.95,3.66,1.59,984.22,33.15
36251,0.05,-0.01,0.99,1.95,3.85,1.53,984.19,33.15
36289,0.05,-0.01,0.99,1.89,3.78,1.65,984.27,33.16
36327,0.05,-0.01,0.99,1.95,3.78,1.53,984.26,33.17
36365,0.05,-0.0,0.99,2.14,3.54,1.65,984.21,33.15
36415,0.05,-0.01,0.99,2.08,3.78,1.65,984.21,33.14
36453,0.05,-0.01,0.99,1.95,3.66,1.65,984.17,33.15
36491,0.05,-0.01,0.99,2.01,3.66,1.59,984.21,33.16
36529,0.05,-0.0,0.99,2.14,3.6,1.59,984.19,33.17
36567,0.05,-0.01,0.99,2.2,3.48,1.53,984.2,33.16
36605,0.05,-0.01,0.99,2.01,3.66,1.71,984.21,33.17
36643,0.05,-0.01,0.99,2.01,3.66,1.53,984.25,33.18
36681,0.05,-0.01,0.99,2.01,3.54,1.53,984.24,33.18
36719,0.05,-0.0,0.99,2.08,3.54,1.59,984.26,33.18
36757,0.05,-0.0,0.99,2.14,3.6,1.59,984.23,33.18
36795,0.05,-0.0,0.99,2.14,3.6,1.46,984.2,33.18
36845,0.05,-0.01,0.99,2.01,3.72,1.59,984.22,33.16
36883,0.05,-0.01,0.99,2.2,3.6,1.65,984.21,33.18
36921,0.05,-0.01,0.99,2.08,3.6,1.71,984.25,33.17
36959,0.05,-0.01,0.99,2.01,3.72,1.46,984.2,33.17
36997,0.05,-0.01,0.99,2.08,3.6,1.71,984.19,33.17
37035,0.05,-0.0,0.99,2.01,3.66,1.53,984.27,33.18
37073,0.05,-0.01,0.99,2.08,3.78,1.65,984.22,33.17
37111,0.05,-0.01,0.99,2.01,3.72,1.59,984.21,33.19
37149,0.05,-0.01,0.99,2.01,3.6,1.71,984.22,33.18
37187,0.05,-0.01,0.99,2.01,3.6,1.77,984.2,33.18
37237,0.05,-0.01,0.99,2.14,3.72,1.71,984.25,33.16
37275,0.05,-0.01,0.99,2.01,3.72,1.65,984.24,33.19
37313,0.05,-0.01,0.99,2.01,3.66,1.71,984.22,33.19
37351,0.05,-0.01,0.99,2.2,3.54,1.59,984.23,33.18
37389,0.05,-0.0,0.99,2.08,3.6,1.53,984.19,33.17
37427,0.05,-0.01,0.99,2.01,3.42,1.46,984.19,33.17
37465,0.05,-0.01,0.99,2.26,3.6,1.65,984.29,33.18
37503,0.05,-0.01,0.99,2.01,3.66,1.65,984.2,33.18
37541,0.05,-0.01,0.99,2.14,3.72,1.59,984.24,33.2
37579,0.05,-0.01,0.99,2.01,3.54,1.59,984.2,33.19
37654,0.05,-0.01,0.99,1.89,3.66,1.65,984.18,33.15
37692,0.05,-0.01,0.98,2.08,3.6,1.59,984.17,33.17
37730,0.05,-0.01,0.99,2.01,3.54,1.65,984.23,33.18
37820,0.05,-0.01,0.99,2.14,3.6,1.46,984.23,33.15
37858,0.05,-0.01,0.99,2.08,3.72,1.77,984.26,33.16
37896,0.05,-0.01,0.99,2.14,3.66,1.65,984.24,33.18
37934,0.05,-0.01,0.98,2.01,3.42,1.59,984.22,33.17
37972,0.05,-0.01,0.99,2.14,3.66,1.77,984.19,33.18
38010,0.05,-0.01,0.99,2.2,3.66,1.59,984.16,33.18
38048,0.05,-0.01,0.99,2.01,3.72,1.59,984.24,33.18
38098,0.05,-0.0,0.99,1.95,3.66,1.53,984.23,33.17
38136,0.05,-0.01,0.99,2.08,3.42,1.59,984.2,33.17
38174,0.05,-0.01,0.99,2.2,3.54,1.59,984.24,33.19
38212,0.05,-0.01,0.99,2.2,3.66,1.59,984.28,33.18
38250,0.05,-0.01,0.99,2.01,3.66,1.65,984.27,33.19
38288,0.05,-0.01,0.99,2.2,3.72,1.59,984.23,33.18
38326,0.05,-0.01,0.99,1.89,3.54,1.53,984.26,33.19
38364,0.05,-0.01,0.99,2.01,3.48,1.65,984.22,33.19
38402,0.05,-0.01,0.99,2.01,3.54,1.59,984.23,33.19
38440,0.05,-0.01,0.98,1.95,3.78,1.71,984.17,33.2
38490,0.05,-0.0,0.99,2.08,3.66,1.53,984.23,33.19
38528,0.05,-0.01,0.99,2.08,3.66,1.59,984.21,33.2
38566,0.05,-0.01,0.99,2.01,3.6,1.65,984.23,33.19
38604,0.05,-0.01,0.99,1.95,3.6,1.53,984.24,33.2
38642,0.05,-0.01,0.99,1.95,3.6,1.59,984.2,33.19
38680,0.05,-0.01,0.99,2.08,3.6,1.59,984.26,33.21
38718,0.05,-0.01,0.99,2.14,3.54,1.77,984.24,33.2
38756,0.05,-0.01,0.99,1.89,3.66,1.77,984.2,33.2
38794,0.05,-0.0,0.99,1.95,3.54,1.77,984.25,33.21
38832,0.05,-0.0,0.99,1.89,3.6,1.53,984.25,33.22
38870,0.05,-0.0,0.99,2.01,3.66,1.77,984.23,33.22
38920,0.05,-0.01,0.99,2.01,3.66,1.71,984.18,33.2
38958,0.05,-0.01,0.99,2.14,3.66,1.77,984.21,33.2
38996,0.05,-0.01,0.99,2.14,3.66,1.59,984.19,33.2
39034,0.05,-0.01,0.99,2.01,3.6,1.59,984.25,33.21
39072,0.05,-0.01,0.99,1.95,3.78,1.71,984.22,33.21
39110,0.05,-0.01,0.99,2.01,3.54,1.59,984.18,33.22
39148,0.05,-0.01,0.99,2.08,3.6,1.71,984.24,33.22
39186,0.05,-0.0,0.99,1.95,3.72,1.59,984.2,33.21
39224,0.05,-0.01,0.99,1.95,3.72,1.59,984.19,33.21
39262,0.05,-0.01,0.99,2.01,3.48,1.59,984.14,33.21
39312,0.05,-0.01,0.99,2.14,3.54,1.59,984.23,33.2
39350,0.05,-0.01,0.99,2.14,3.54,1.53,984.23,33.21
39388,0.05,-0.01,0.99,2.08,3.66,1.53,984.21,33.22
39426,0.05,-0.0,0.99,2.08,3.48,1.59,984.22,33.22
39464,0.05,-0.0,0.99,2.14,3.6,1.53,984.18,33.22
39502,0.05,-0.0,0.99,1.89,3.48,1.59,984.21,33.22
39540,0.05,-0.0,0.99,2.01,3.6,1.53,984.14,33.22
39578,0.05,-0.01,0.99,2.14,3.42,1.65,984.18,33.22
39616,0.05,-0.01,0.99,2.14,3.54,1.65,984.17,33.21
39654,0.05,-0.01,0.99,2.08,3.6,1.71,984.27,33.23
39704,0.05,-0.01,0.99,2.08,3.6,1.71,984.24,33.21
39742,0.05,-0.01,0.99,2.01,3.36,1.59,984.21,33.22
39780,0.05,-0.01,0.99,1.95,3.54,1.53,984.19,33.22
39818,0.05,-0.01,0.99,2.08,3.54,1.65,984.2,33.22
39856,0.05,-0.01,0.99,2.08,3.66,1.71,984.18,33.23
39894,0.05,-0.01,0.99,1.89,3.54,1.65,984.26,33.23
39932,0.05,-0.01,0.99,2.08,3.54,1.65,984.21,33.24
39970,0.05,-0.01,0.99,1.95,3.48,1.65,984.2,33.22
40008,0.05,-0.01,0.99,2.14,3.48,1.65,984.23,33.23
40046,0.05,-0.01,0.98,2.08,3.66,1.59,984.26,33.24
40096,0.05,-0.01,0.99,2.01,3.54,1.77,984.23,33.22
40134,0.06,-0.0,1.01,2.56,3.23,1.4,984.2,33.23
40172,0.05,-0.0,0.99,1.65,3.72,1.71,984.25,33.22
40210,0.04,-0.0,0.99,1.89,3.54,1.59,984.2,33.24
40248,0.05,-0.01,1.0,1.83,3.66,1.71,984.17,33.24
40286,0.05,-0.01,0.98,2.14,3.54,1.65,984.26,33.25
40324,0.06,-0.01,0.99,2.2,3.78,1.71,984.21,33.24
40362,0.05,-0.01,0.99,1.83,3.72,1.71,984.16,33.23
40400,0.05,-0.0,0.99,2.14,3.72,1.77,984.25,33.24
40438,0.05,-0.01,0.99,2.5,3.36,1.59,984.23,33.25
40476,0.05,-0.01,0.99,1.83,3.66,1.71,984.23,33.24
40526,0.05,-0.01,0.99,2.14,3.42,1.65,984.19,33.23
40564,0.05,-0.01,0.99,2.2,3.6,1.71,984.19,33.24
40602,0.05,-0.0,0.98,2.32,3.3,1.71,984.21,33.24
40640,0.04,-0.01,0.97,1.59,3.91,1.77,984.19,33.25
40678,0.05,-0.01,0.98,2.01,3.05,1.59,984.2,33.25
40716,0.05,-0.01,0.98,1.77,3.78,1.71,984.22,33.25
40754,0.05,-0.01,0.98,2.01,4.03,1.77,984.15,33.24
40792,0.05,-0.0,0.99,2.08,3.36,1.59,984.2,33.25
40830,0.05,-0.01,0.99,2.44,2.93,1.65,984.21,33.24
40868,0.06,-0.0,0.98,1.53,4.27,1.59,984.21,33.25
40944,0.05,-0.01,0.99,1.83,3.97,1.71,984.19,33.22
40981,0.05,-0.01,0.99,2.08,3.48,1.83,984.22,33.24
41020,0.05,-0.01,0.98,1.83,3.78,1.71,984.23,33.24
41109,0.05,-0.0,0.98,2.01,3.91,1.65,984.23,33.22
41147,0.05,-0.0,0.99,2.14,3.66,1.65,984.24,33.22
41185,0.05,-0.0,0.98,1.83,3.91,1.71,984.21,33.22
41223,0.05,-0.0,0.98,2.08,3.48,1.53,984.23,33.24
41261,0.05,-0.0,1.0,1.83,3.66,1.77,984.2,33.24
41299,0.05,-0.01,0.99,2.38,3.42,1.71,984.23,33.24
41337,0.05,-0.01,0.97,2.32,3.3,1.71,984.23,33.24
41387,0.05,-0.01,0.98,3.66,2.5,2.08,984.26,33.25
41425,0.05,-0.01,0.99,4.39,2.62,2.01,984.17,33.24
41463,0.05,-0.01,0.99,2.38,3.3,2.5,984.22,33.26
41501,0.04,-0.01,0.99,0.18,4.88,2.5,984.16,33.25
41539,0.06,0.0,0.94,-2.26,6.53,1.53,984.21,33.25
41577,0.05,-0.01,0.98,1.89,3.66,1.77,984.27,33.26
41615,0.05,-0.01,0.99,1.95,3.54,1.71,984.19,33.26
41653,0.05,-0.01,0.99,2.01,3.6,1.65,984.21,33.26
41691,0.07,-0.03,1.07,3.42,2.5,0.79,984.25,33.25
41729,0.06,-0.0,0.97,2.38,3.17,1.53,984.23,33.27
41779,0.06,-0.0,0.98,2.26,3.48,1.71,984.18,33.25
41817,0.05,-0.01,0.99,1.65,4.52,1.71,984.2,33.26
41855,0.04,-0.01,0.99,2.26,3.36,1.53,984.2,33.24
41893,0.16,0.15,0.95,5.07,1.95,2.08,984.26,33.26
41931,0.05,-0.01,0.98,1.04,4.52,1.83,984.19,33.27
41969,0.05,-0.01,0.99,1.77,3.91,1.59,984.25,33.28
42007,0.05,-0.01,0.99,1.53,3.6,1.71,984.19,33.27
42045,0.04,-0.02,0.98,2.56,3.36,1.71,984.17,33.27
42083,0.05,-0.01,0.98,1.46,3.91,1.46,984.27,33.29
42121,0.05,-0.01,0.99,1.89,3.78,1.46,984.26,33.28
42159,0.05,-0.01,0.99,2.08,3.72,1.46,984.17,33.27
42209,0.05,-0.0,0.99,2.08,3.6,1.65,984.15,33.27
42247,0.05,-0.0,0.99,2.08,3.54,1.77,984.23,33.28
42285,0.05,-0.0,0.99,2.01,3.54,1.46,984.19,33.28
42323,0.05,-0.0,0.98,1.83,3.72,1.59,984.22,33.29
42361,0.05,-0.01,0.98,2.08,3.78,1.59,984.21,33.28
42399,0.05,-0.01,0.99,2.01,3.54,1.59,984.23,33.29
42437,0.05,-0.01,0.99,2.01,3.54,1.46,984.16,33.27
42475,0.05,-0.0,0.98,2.08,3.54,1.65,984.19,33.28
42513,0.05,-0.01,0.98,2.01,3.66,1.59,984.2,33.29
42551,0.05,-0.01,0.99,2.08,3.78,1.65,984.24,33.29
42601,0.05,-0.01,0.99,2.01,3.66,1.71,984.19,33.28
42639,0.05,-0.01,0.99,2.01,3.72,1.46,984.21,33.28
42677,0.05,-0.01,0.99,2.08,3.48,1.53,984.16,33.28
42715,0.05,-0.01,0.99,1.89,3.66,1.46,984.26,33.3
42753,0.05,-0.01,0.99,2.01,3.72,1.65,984.16,33.28
42791,0.05,-0.01,0.99,2.01,3.6,1.53,984.2,33.29
42829,0.05,-0.01,0.99,2.01,3.54,1.59,984.24,33.28
42867,0.05,-0.01,0.98,2.08,3.6,1.77,984.2,33.28
42905,0.05,-0.0,0.99,2.08,3.66,1.65,984.19,33.28
42943,0.05,-0.01,0.99,2.08,3.54,1.65,984.19,33.29
42993,0.05,-0.01,0.99,2.01,3.66,1.59,984.15,33.28
43031,0.05,-0.01,0.98,2.01,3.66,1.65,984.23,33.29
43069,0.05,-0.01,0.99,2.08,3.54,1.59,984.21,33.29
43107,0.05,-0.0,0.99,2.2,3.78,1.59,984.26,33.3
43145,0.05,-0.01,0.99,1.95,3.66,1.65,984.22,33.3
43183,0.05,-0.01,0.99,2.08,3.54,1.59,984.22,33.29
43221,0.05,-0.01,0.99,2.01,3.54,1.71,984.17,33.29
43259,0.05,-0.01,0.99,2.14,3.6,1.65,984.21,33.29
43297,0.05,-0.01,0.99,2.01,3.48,1.59,984.18,33.29
43335,0.05,-0.01,0.99,2.01,3.66,1.65,984.19,33.29
43385,0.05,-0.01,0.99,2.14,3.54,1.59,984.15,33.27
43423,0.05,-0.01,0.99,2.01,3.48,1.71,984.24,33.29
43461,0.05,-0.01,0.99,2.01,3.48,1.65,984.24,33.28
43499,0.05,-0.01,0.99,2.08,3.42,1.71,984.21,33.29
43537,0.05,-0.01,0.99,1.95,3.54,1.59,984.26,33.29
43575,0.05,-0.01,0.99,2.14,3.54,1.65,984.18,33.28
43613,0.05,-0.01,0.98,2.08,3.72,1.59,984.18,33.29
43651,0.05,-0.01,0.99,2.01,3.6,1.46,984.21,33.29
43689,0.05,-0.01,0.99,2.01,3.6,1.59,984.22,33.3
43727,0.05,-0.01,0.99,2.14,3.6,1.4,984.24,33.29
43765,0.05,-0.01,0.99,2.01,3.42,1.59,984.2,33.28
43815,0.05,-0.01,0.99,2.2,3.72,1.59,984.24,33.29
43853,0.05,-0.01,0.99,2.08,3.48,1.53,984.24,33.29
43891,0.05,-0.01,0.99,2.14,3.6,1.4,984.25,33.29
43929,0.05,-0.01,0.99,2.08,3.66,1.53,984.21,33.28
43967,0.05,-0.01,0.99,2.01,3.6,1.71,984.17,33.29
44005,0.05,-0.01,0.99,1.89,3.6,1.53,984.21,33.29
44043,0.05,-0.01,0.98,2.14,3.66,1.59,984.21,33.29
44081,0.05,-0.0,0.99,1.95,3.6,1.71,984.23,33.29
44119,0.05,-0.01,0.99,2.08,3.72,1.59,984.2,33.29
44157,0.05,-0.01,0.99,2.2,3.54,1.53,984.2,33.3
44233,0.05,-0.01,0.99,1.95,3.6,1.71,984.19,33.27
44271,0.05,-0.01,0.99,2.01,3.66,1.4,984.25,33.29
44309,0.05,-0.01,0.98,2.14,3.6,1.53,984.23,33.28
44398,0.05,-0.01,0.99,1.89,3.72,1.59,984.2,33.25
44436,0.05,-0.01,0.99,2.14,3.72,1.65,984.21,33.27
44474,0.05,-0.01,0.99,2.01,3.54,1.65,984.26,33.27
44512,0.05,-0.01,0.99,1.89,3.66,1.59,984.21,33.26
44550,0.05,-0.01,0.99,1.95,3.66,1.65,984.23,33.28
44588,0.05,-0.01,0.99,2.14,3.54,1.59,984.23,33.29
44626,0.05,-0.01,0.99,2.08,3.54,1.59,984.24,33.28
44676,0.05,-0.0,0.99,2.01,3.48,1.46,984.2,33.27
44714,0.05,-0.01,0.99,2.08,3.72,1.53,984.21,33.27
44752,0.05,-0.01,0.99,2.01,3.42,1.59,984.17,33.28
44790,0.05,-0.01,0.99,2.08,3.54,1.65,984.2,33.28
44828,0.05,-0.01,0.99,2.08,3.66,1.65,984.19,33.29
44866,0.05,-0.01,0.99,2.08,3.48,1.59,984.21,33.29
44904,0.05,-0.01,0.99,2.08,3.78,1.59,984.2,33.29
44942,0.05,-0.01,0.99,2.01,3.6,1.59,984.23,33.3
44980,0.05,-0.01,0.99,2.08,3.72,1.59,984.24,33.3
45018,0.05,-0.01,0.98,1.95,3.6,1.65,984.22,33.29
45068,0.05,-0.01,0.99,2.08,3.6,1.4,984.23,33.29
45106,0.05,-0.01,0.99,2.01,3.54,1.53,984.2,33.29
45144,0.05,-0.01,0.99,2.01,3.54,1.71,984.24,33.29
45182,0.05,-0.01,0.99,2.14,3.6,1.77,984.25,33.31
45220,0.05,-0.01,0.99,2.01,3.48,1.59,984.2,33.29
45258,0.05,-0.01,0.98,2.14,3.72,1.46,984.23,33.29
45296,0.05,-0.01,0.98,2.08,3.54,1.65,984.2,33.31
45334,0.05,-0.01,0.99,2.01,3.54,1.53,984.18,33.3
45372,0.05,-0.01,0.99,2.01,3.48,1.53,984.15,33.3
45410,0.05,-0.01,0.99,2.08,3.72,1.46,984.19,33.3
45448,0.05,-0.01,0.99,2.14,3.54,1.59,984.25,33.31
45498,0.05,-0.01,0.99,2.2,3.72,1.71,984.21,33.31
45536,0.05,-0.0,0.99,2.01,3.72,1.59,984.18,33.3
45574,0.05,-0.01,0.99,1.89,3.66,1.53,984.16,33.3
45612,0.05,-0.01,0.99,2.14,3.6,1.59,984.22,33.31
45650,0.05,-0.01,0.99,2.2,3.54,1.65,984.24,33.3
45688,0.05,-0.01,0.99,2.08,3.66,1.65,984.21,33.3
45726,0.05,-0.01,0.98,2.01,3.48,1.59,984.21,33.31
45764,0.05,-0.01,0.99,2.14,3.66,1.65,984.26,33.31
45802,0.05,-0.01,0.99,2.14,3.6,1.71,984.3,33.32
45840,0.05,-0.01,0.99,2.01,3.66,1.71,984.24,33.32
45890,0.05,-0.01,0.99,2.01,3.72,1.53,984.24,33.29
45928,0.05,-0.01,0.99,2.01,3.91,1.53,984.22,33.31
45966,0.05,-0.01,0.99,2.01,3.72,1.59,984.16,33.3
46004,0.05,-0.01,0.99,2.14,3.54,1.65,984.21,33.31
46042,0.05,-0.01,0.99,2.01,3.72,1.53,984.17,33.32
46080,0.05,-0.01,0.99,2.01,3.6,1.59,984.22,33.32
46118,0.05,-0.01,0.99,2.14,3.54,1.71,984.17,33.31
46156,0.05,-0.01,0.99,1.89,3.85,1.59,984.2,33.32
46194,0.05,-0.01,0.98,2.14,3.48,1.59,984.23,33.33
46232,0.05,-0.01,0.99,2.2,3.72,1.71,984.27,33.33
46282,0.05,-0.01,0.99,2.08,3.66,1.59,984.17,33.3
46320,0.05,-0.01,0.99,1.89,3.66,1.59,984.21,33.31
46358,0.05,-0.01,0.98,2.08,3.72,1.59,984.21,33.31
46396,0.06,-0.01,0.98,1.95,3.54,1.65,984.21,33.31
46434,0.06,-0.0,0.98,2.14,3.66,1.77,984.19,33.31
46472,0.05,-0.0,0.99,2.08,3.54,1.71,984.21,33.32
46510,0.05,-0.01,0.98,2.01,3.66,1.65,984.22,33.32
46548,0.04,-0.01,0.99,2.08,3.6,1.59,984.23,33.33
46586,0.03,-0.06,0.95,1.89,3.6,1.59,984.2,33.33
46624,0.05,-0.05,1.0,2.44,4.03,1.59,984.2,33.33
46674,0.05,-0.01,1.0,1.95,3.6,1.53,984.21,33.31
46712,0.05,-0.01,0.98,2.2,3.66,1.46,984.16,33.32
46750,0.05,-0.01,0.99,2.08,3.66,1.65,984.22,33.31
46788,0.05,-0.01,0.99,2.14,3.6,1.71,984.23,33.32
46826,0.04,-0.01,0.99,2.08,3.48,1.46,984.18,33.32
46864,0.05,-0.01,0.99,2.01,3.6,1.65,984.21,33.32
46902,0.05,-0.0,0.98,2.14,3.54,1.71,984.24,33.33
46940,0.05,-0.0,0.98,1.83,3.72,1.65,984.24,33.32
46978,0.05,-0.0,0.98,1.4,4.46,1.71,984.18,33.33
47016,0.05,-0.01,0.99,2.08,3.17,1.65,984.25,33.33
47054,0.05,-0.01,0.99,2.26,3.36,1.53,984.23,33.33
47104,0.05,-0.01,0.99,2.14,3.6,1.77,984.16,33.34
47142,0.05,-0.01,0.98,2.08,3.72,1.46,984.17,33.33
47180,0.04,-0.01,0.99,2.08,3.78,1.46,984.21,33.33
47218,0.05,-0.01,0.99,2.26,3.6,1.71,984.17,33.32
47256,0.05,-0.01,0.99,2.2,3.23,1.71,984.25,33.33
47294,0.05,-0.01,0.98,2.08,3.48,1.46,984.19,33.35
47332,0.05,-0.01,0.98,2.01,3.72,1.77,984.17,33.33
47370,0.05,-0.01,0.99,2.14,3.72,1.53,984.22,33.34
47408,0.05,-0.01,0.99,2.01,3.42,1.53,984.27,33.35
47446,0.05,-0.0,0.99,1.95,3.54,1.59,984.17,33.32
47522,0.05,-0.01,0.98,1.95,3.72,1.59,984.19,33.31
47560,0.05,-0.0,0.99,2.08,3.6,1.65,984.21,33.32
47598,0.05,-0.0,0.99,1.95,3.54,1.59,984.21,33.32
47689,0.05,-0.01,0.98,2.08,3.6,1.59,984.2,33.29
47727,0.05,-0.01,0.99,2.08,3.6,1.53,984.24,33.31
47765,0.05,-0.01,0.99,2.08,3.66,1.4,984.22,33.31
47803,0.05,-0.01,0.99,1.95,3.66,1.4,984.22,33.32
47841,0.05,-0.01,0.99,2.14,3.6,1.46,984.16,33.32
47879,0.05,-0.01,0.99,2.14,3.48,1.59,984.21,33.33
47917,0.05,-0.01,0.98,2.01,3.72,1.46,984.21,33.32
47967,0.05,-0.01,0.98,2.14,3.48,1.59,984.24,33.3
48005,0.05,-0.01,0.99,2.08,3.72,1.65,984.18,33.32
48043,0.05,-0.01,0.99,2.14,3.6,1.59,984.21,33.32
48081,0.05,-0.01,0.99,1.95,3.6,1.59,984.22,33.32
48119,0.05,-0.01,0.99,2.14,3.6,1.71,984.21,33.33
48157,0.05,-0.01,0.99,2.26,3.54,1.71,984.24,33.33
48195,0.05,-0.01,0.98,2.01,3.54,1.46,984.22,33.33
48233,0.05,-0.01,0.98,2.38,3.54,1.53,984.22,33.33
48271,0.05,-0.0,0.99,2.2,3.54,1.53,984.18,33.35
48309,0.04,-0.01,0.98,2.26,3.54,1.65,984.19,33.34
48359,0.05,-0.01,0.98,2.26,3.42,1.65,984.22,33.33
48397,0.06,0.0,0.99,2.01,3.6,1.16,984.22,33.33
48435,0.05,-0.0,0.98,1.89,3.97,1.71,984.28,33.35
48473,0.05,-0.01,0.98,2.26,3.54,1.71,984.2,33.34
48511,0.06,-0.01,0.99,2.14,3.54,1.59,984.2,33.36
48549,0.04,-0.01,0.98,2.01,3.78,1.59,984.2,33.35
48587,0.04,-0.0,0.99,2.14,3.54,1.59,984.23,33.36
48625,0.05,-0.01,0.99,2.2,3.36,1.65,984.15,33.36
48664,0.05,-0.01,0.99,2.14,3.48,1.65,984.22,33.36
48702,0.05,-0.01,0.98,2.08,3.54,1.71,984.15,33.36
48740,0.05,-0.01,0.99,2.2,3.54,1.59,984.26,33.37
48789,0.05,-0.01,0.99,2.32,3.54,1.59,984.21,33.36
48828,0.04,-0.01,1.04,5.68,-0.06,1.4,984.21,33.36
48866,0.05,-0.01,0.98,0.98,5.13,2.01,984.19,33.36
48904,0.05,-0.01,0.99,2.01,3.72,1.65,984.23,33.37
48942,0.04,-0.02,0.98,1.22,4.27,1.95,984.22,33.38
48980,0.05,-0.01,0.99,1.83,3.54,1.71,984.26,33.37
49018,0.05,-0.0,0.98,1.95,3.54,1.65,984.24,33.36
49056,0.06,-0.0,0.98,2.75,3.3,1.46,984.22,33.37
49094,0.05,-0.01,0.99,3.85,2.62,1.71,984.17,33.38
49132,0.05,0.03,0.85,-4.03,6.71,1.59,984.23,33.39
49182,0.05,-0.01,1.0,1.53,4.09,1.65,984.22,33.36
49220,0.05,-0.01,1.0,1.59,3.97,1.65,984.23,33.39
49258,0.04,-0.04,0.98,2.62,4.09,1.1,984.2,33.38
49296,0.05,-0.01,0.97,2.99,3.78,1.59,984.21,33.38
49334,0.05,-0.02,1.0,4.39,2.81,1.65,984.23,33.38
49372,0.05,-0.01,0.99,2.56,3.42,1.71,984.2,33.38
49410,0.05,-0.01,0.99,1.28,4.21,2.01,984.21,33.38
49449,0.05,-0.01,0.99,2.14,3.23,1.71,984.23,33.39
49487,0.05,-0.02,1.01,1.4,3.6,1.71,984.19,33.39
49525,0.05,-0.01,0.98,-0.31,4.09,1.71,984.19,33.38
49574,0.05,-0.01,0.98,1.83,3.66,1.71,984.2,33.37
49612,0.05,-0.01,0.99,2.32,3.48,1.59,984.2,33.38
49651,0.04,-0.01,0.99,2.87,3.36,1.65,984.18,33.38
49689,0.05,-0.01,0.99,2.69,3.66,1.71,984.18,33.39
49727,0.05,-0.01,0.99,2.26,3.66,1.59,984.22,33.39
49765,0.04,-0.01,0.98,3.36,2.81,1.53,984.18,33.39
49803,0.05,-0.01,0.99,1.28,4.21,1.83,984.24,33.4
49841,0.05,-0.01,0.99,1.71,3.85,1.59,984.23,33.4
49879,0.05,-0.01,0.99,2.56,3.23,1.65,984.2,33.41
49917,0.05,-0.01,0.99,2.14,3.78,1.59,984.26,33.39
49967,0.05,-0.01,0.99,2.08,4.09,1.77,984.18,33.38
50005,0.05,-0.01,0.99,2.44,2.93,1.71,984.2,33.4
50043,0.05,-0.01,0.99,2.62,2.81,1.53,984.18,33.39
50081,0.05,-0.02,0.99,2.44,3.36,1.71,984.26,33.4
50119,0.05,-0.01,0.98,4.03,2.26,1.46,984.19,33.39
50157,0.04,-0.02,1.0,4.76,2.38,1.46,984.17,33.39
50195,0.06,-0.02,1.0,-0.67,6.16,2.08,984.18,33.39
50233,0.05,-0.01,0.98,0.06,5.13,1.83,984.17,33.4
50271,0.05,-0.02,0.99,1.71,3.6,1.59,984.22,33.4
50309,0.06,-0.02,0.99,0.55,4.15,1.65,984.2,33.4
50359,0.05,-0.01,0.97,0.55,4.27,1.83,984.17,33.38
50397,0.05,-0.01,0.99,1.65,3.97,1.59,984.21,33.4
50435,0.05,-0.01,0.99,2.08,3.72,1.71,984.18,33.39
50473,0.04,-0.01,1.0,2.2,2.93,1.83,984.19,33.39
50511,0.05,-0.01,0.98,2.56,2.93,1.59,984.21,33.4
50549,0.05,-0.01,0.96,1.65,3.85,2.81,984.22,33.41
50587,0.06,0.0,0.99,1.4,3.54,3.54,984.21,33.41
50625,0.05,-0.0,0.99,3.97,2.44,0.73,984.16,33.4
50664,0.03,-0.02,0.98,2.81,3.3,-0.79,984.21,33.41
50702,0.04,-0.01,0.98,4.94,1.04,2.08,984.23,33.41
50740,0.04,-0.03,0.98,4.52,2.99,1.89,984.29,33.41
50815,0.05,-0.01,1.0,1.4,4.94,1.46,984.22,33.39
50854,0.05,0.0,1.0,1.4,5.13,1.16,984.21,33.38
50892,0.06,-0.0,0.97,1.95,2.93,2.01,984.23,33.41
50981,0.04,-0.02,0.98,3.36,3.11,1.95,984.13,33.35
51019,0.04,-0.02,0.98,2.38,3.85,1.83,984.21,33.38
51057,0.04,-0.02,0.99,1.4,4.09,1.89,984.23,33.39
51095,0.06,0.01,1.01,0.06,3.05,2.87,984.26,33.39
51134,0.05,-0.03,0.97,2.99,4.03,1.89,984.17,33.39
51172,0.05,-0.01,0.98,1.4,2.75,2.81,984.2,33.39
51210,0.04,-0.01,1.0,3.05,2.44,2.14,984.25,33.4
51259,0.05,-0.0,0.99,2.2,4.52,1.65,984.21,33.39
51298,0.04,-0.01,0.99,1.83,4.33,1.83,984.23,33.39
51336,0.04,-0.01,0.99,3.3,2.99,1.95,984.21,33.4
51374,0.05,-0.02,0.98,1.65,4.15,1.89,984.22,33.41
51412,0.04,-0.03,0.97,1.46,3.72,1.89,984.18,33.39
51450,0.04,-0.03,0.99,3.23,3.05,1.77,984.24,33.42
51488,0.04,-0.05,0.92,-3.23,4.7,1.53,984.22,33.41
51526,0.06,-0.0,0.98,1.28,5.43,0.85,984.21,33.4
51564,0.04,-0.01,0.97,3.42,3.3,1.77,984.14,33.41
51602,0.04,-0.02,1.0,3.42,3.23,1.65,984.2,33.41
51652,0.04,-0.01,0.99,1.77,3.17,1.83,984.2,33.4
51690,0.04,-0.01,0.99,2.01,3.11,1.89,984.27,33.41
51728,0.05,-0.01,0.98,1.95,3.72,1.89,984.21,33.42
51766,0.05,-0.01,0.98,2.44,4.09,1.95,984.22,33.43
51804,0.05,-0.02,0.99,1.83,3.78,1.95,984.26,33.42
51842,-0.02,-0.21,1.04,5.8,1.77,4.09,984.18,33.41
51880,0.05,-0.04,0.92,5.19,2.93,2.08,984.18,33.42
51919,0.05,-0.02,0.97,2.08,4.15,1.89,984.2,33.42
51957,0.03,-0.12,0.92,0.37,4.82,1.4,984.19,33.41
51995,0.04,-0.01,0.97,-0.49,3.72,3.36,984.2,33.42
52044,0.05,-0.01,0.99,1.59,3.78,1.28,984.2,33.41
52082,0.05,-0.01,0.99,1.53,4.7,0.67,984.28,33.43
52121,0.05,-0.01,0.99,2.62,4.52,1.22,984.22,33.42
52159,0.05,-0.02,0.96,3.48,3.54,1.46,984.23,33.43
52197,0.05,-0.01,0.98,1.77,3.72,1.71,984.21,33.42
52235,0.05,-0.01,0.98,1.1,4.33,1.65,984.2,33.43
52273,0.06,0.0,0.97,1.83,3.23,1.59,984.19,33.42
52311,0.05,0.0,0.98,1.77,3.91,1.65,984.24,33.42
52349,0.05,-0.01,0.99,2.01,3.78,1.65,984.26,33.43
52387,0.02,-0.02,0.96,2.62,3.36,1.53,984.25,33.43
52425,0.05,-0.01,0.99,3.11,2.32,2.08,984.2,33.42
52475,0.04,-0.02,0.98,2.81,2.38,2.01,984.24,33.43
52513,0.04,-0.02,0.99,2.5,3.48,1.95,984.2,33.44
52551,0.04,-0.01,0.99,1.34,4.82,1.95,984.22,33.43
52589,0.05,-0.01,1.0,0.06,5.68,0.92,984.18,33.43
52628,0.06,-0.0,0.97,2.2,4.09,1.53,984.16,33.43
52666,0.04,-0.01,0.99,2.01,3.17,1.65,984.24,33.44
52704,0.04,-0.01,0.98,2.01,3.36,1.71,984.27,33.44
52742,0.05,-0.01,0.98,2.44,3.48,1.46,984.21,33.44
52780,0.05,-0.01,0.99,1.95,3.66,1.46,984.16,33.43
52818,0.04,-0.01,0.99,1.95,3.36,1.46,984.2,33.43
52868,-0.0,-0.04,0.98,1.65,3.11,2.5,984.21,33.44
52906,0.05,-0.01,0.99,2.56,3.36,1.59,984.2,33.44
52944,0.04,-0.01,0.99,2.32,3.6,1.59,984.2,33.43
52982,0.05,-0.01,0.98,2.01,3.66,1.83,984.19,33.43
53020,0.05,-0.01,0.98,2.2,3.72,1.71,984.14,33.43
53058,0.05,-0.01,0.99,2.5,3.72,1.71,984.18,33.42
53096,0.04,-0.01,0.99,2.99,3.11,2.01,984.17,33.43
53134,0.05,-0.01,0.99,2.44,3.6,1.71,984.19,33.45
53172,0.05,-0.01,0.99,1.65,3.97,1.65,984.16,33.45
53210,0.05,-0.01,0.99,1.04,4.03,1.83,984.18,33.44
53260,0.04,-0.01,0.98,2.08,3.78,1.71,984.2,33.43
53298,0.05,-0.02,0.99,2.26,3.17,1.65,984.17,33.44
53336,0.05,0.01,0.97,1.4,3.85,1.71,984.18,33.44
53374,0.04,0.0,0.99,1.71,4.09,1.77,984.19,33.45
53412,0.05,0.0,0.99,1.89,3.78,1.59,984.24,33.44
53450,0.05,-0.01,0.98,1.95,3.48,1.59,984.19,33.43
53488,0.05,-0.01,0.99,1.16,4.21,1.59,984.22,33.45
53526,0.05,-0.01,0.99,1.89,4.09,1.65,984.22,33.44
53565,0.05,-0.02,0.99,1.59,3.6,1.65,984.21,33.45
53603,0.05,-0.02,0.99,2.87,3.11,1.59,984.19,33.45
53652,0.04,-0.02,0.97,2.99,2.93,1.53,984.19,33.44
53690,0.05,-0.01,1.0,2.26,3.85,1.83,984.2,33.44
53729,0.05,-0.0,0.99,1.83,4.52,2.08,984.22,33.45
53767,0.05,-0.01,0.98,1.83,3.72,1.77,984.22,33.45
53805,0.05,-0.01,0.99,2.32,3.05,1.89,984.23,33.46
53843,0.05,-0.01,0.98,2.44,4.03,2.01,984.22,33.46
53881,0.05,-0.01,0.99,2.32,3.85,1.65,984.22,33.45
53919,0.05,-0.02,0.99,2.2,3.6,1.65,984.16,33.45
53957,0.05,-0.02,1.0,0.18,5.49,1.83,984.18,33.46
53995,0.05,-0.01,0.99,0.98,2.93,1.46,984.2,33.46
54033,0.05,-0.01,0.98,1.89,2.62,1.89,984.21,33.45
54109,0.05,-0.01,0.98,1.77,3.66,1.59,984.24,33.43
54147,0.05,-0.01,0.99,1.77,3.6,1.53,984.24,33.45
54185,0.04,-0.01,1.0,2.5,3.05,1.77,984.24,33.45
54274,0.05,-0.01,0.98,2.08,3.6,1.71,984.15,33.42
54312,0.04,-0.01,0.99,2.32,3.36,1.71,984.19,33.44
54350,0.05,-0.01,0.99,2.01,3.72,1.65,984.16,33.43
54388,0.05,-0.01,0.98,1.89,3.78,1.59,984.24,33.45
54427,0.05,0.01,0.97,1.77,2.44,1.77,984.2,33.45
54465,0.06,-0.0,0.97,2.14,4.33,1.53,984.15,33.44
54503,0.04,-0.01,0.99,2.26,4.46,1.53,984.2,33.46
54552,0.05,-0.01,0.99,1.53,4.76,1.53,984.22,33.45
54591,0.05,-0.01,0.99,2.14,3.17,1.65,984.18,33.45
54629,0.04,-0.01,0.99,1.89,3.23,1.71,984.18,33.46
54667,0.04,0.01,0.99,2.08,2.75,1.22,984.22,33.46
54705,0.05,-0.0,0.98,1.89,3.48,1.4,984.2,33.45
54743,0.05,-0.0,0.99,1.46,3.85,1.77,984.26,33.47
54781,0.05,-0.01,0.99,2.2,4.21,1.59,984.23,33.46
54819,0.05,-0.01,0.97,1.95,3.54,1.71,984.17,33.46
54857,0.04,-0.02,0.98,2.56,2.81,1.65,984.19,33.45
54895,0.05,-0.02,0.98,1.89,3.91,1.71,984.26,33.46
54945,0.04,-0.03,0.99,4.58,2.01,1.77,984.2,33.45
54983,0.05,-0.02,0.98,4.03,2.14,1.77,984.24,33.47
55021,0.05,0.0,0.99,4.27,2.01,1.77,984.21,33.47
55059,0.04,-0.01,0.98,4.33,1.89,1.95,984.24,33.47
55097,0.04,-0.01,0.99,3.91,2.56,2.08,984.25,33.48
55135,0.03,-0.03,0.99,-0.55,5.55,2.5,984.24,33.47
55173,0.05,-0.03,0.98,-7.69,10.25,2.56,984.18,33.45
55212,0.05,-0.0,0.98,0.67,4.94,1.65,984.24,33.47
55250,0.04,-0.01,0.99,1.77,3.6,1.53,984.24,33.47
55288,0.05,-0.02,0.98,2.01,3.66,1.4,984.19,33.48
55338,0.05,-0.02,0.99,1.95,3.66,1.65,984.25,33.46
55376,0.06,-0.01,0.99,2.01,3.85,1.71,984.19,33.46
55414,0.06,-0.0,0.98,2.14,3.97,1.65,984.21,33.48
55452,0.06,-0.01,0.99,2.01,3.6,1.59,984.2,33.47
55490,0.05,-0.01,0.99,2.01,3.48,1.71,984.24,33.48
55528,0.05,-0.01,0.99,1.89,3.6,1.65,984.22,33.48
55566,0.04,-0.01,0.98,2.01,3.72,1.95,984.22,33.48
55604,0.04,-0.01,0.98,2.08,3.66,1.59,984.21,33.48
55642,0.05,-0.01,0.99,2.01,3.54,1.46,984.22,33.47
55680,0.05,-0.01,0.98,2.14,3.66,1.34,984.16,33.48
55718,0.07,-0.0,0.98,2.08,3.54,1.53,984.2,33.48
55768,0.05,-0.01,0.98,2.01,3.66,1.65,984.19,33.46
55806,0.04,-0.01,0.98,2.08,3.66,1.53,984.2,33.48
55844,0.04,-0.01,0.99,2.01,3.72,1.71,984.24,33.47
55882,0.04,-0.02,0.98,2.14,3.85,1.71,984.24,33.48
55920,0.04,-0.01,0.99,2.08,3.42,1.46,984.23,33.48
55959,0.05,-0.01,0.98,2.14,3.78,1.65,984.21,33.47
55997,0.06,-0.01,0.98,2.01,3.72,1.71,984.2,33.49
56035,0.06,-0.01,0.99,1.95,3.36,1.59,984.27,33.5
56073,0.06,-0.01,0.98,2.08,3.66,1.59,984.21,33.48
56111,0.04,-0.01,0.99,2.08,3.54,1.59,984.23,33.49
56161,0.04,-0.01,0.99,2.14,3.72,1.59,984.21,33.49
56199,0.04,-0.01,0.99,2.08,3.72,1.46,984.2,33.48
56237,0.05,-0.01,0.99,1.95,3.78,1.59,984.2,33.5
56275,0.06,-0.01,0.98,2.14,3.6,1.4,984.22,33.48
56313,0.06,-0.01,0.99,2.08,3.6,1.53,984.15,33.49
56351,0.05,-0.01,0.98,2.2,3.66,1.46,984.25,33.49
56389,0.05,-0.01,0.99,2.14,3.72,1.59,984.2,33.5
56427,0.05,-0.01,0.99,2.08,3.6,1.59,984.23,33.49
56465,0.05,-0.01,0.99,2.01,3.6,1.65,984.21,33.5
56503,0.04,-0.01,0.99,2.01,3.78,1.71,984.22,33.5
56553,0.04,-0.01,0.98,2.08,3.66,1.77,984.21,33.48
56591,0.05,-0.01,0.98,1.95,3.66,1.71,984.17,33.49
56629,0.05,-0.01,0.99,2.01,3.66,1.59,984.18,33.49
56667,0.05,-0.01,0.99,2.08,3.85,1.71,984.23,33.49
56705,0.05,-0.01,0.99,2.08,3.6,1.65,984.19,33.48
56743,0.05,-0.01,0.99,2.01,3.85,1.59,984.26,33.5
56781,0.05,-0.01,0.98,2.08,3.66,1.65,984.24,33.5
56819,0.05,-0.01,0.99,2.08,3.6,1.59,984.2,33.5
56858,0.05,-0.01,0.99,2.14,3.54,1.59,984.25,33.5
56896,0.05,-0.01,0.98,2.14,3.6,1.59,984.21,33.5
56945,0.04,-0.02,0.99,2.08,3.42,1.59,984.18,33.49
56983,0.05,-0.01,0.98,1.95,3.6,1.71,984.2,33.5
57022,0.05,-0.01,0.98,2.14,3.36,1.59,984.21,33.5
57060,0.05,-0.01,0.98,2.01,3.6,1.65,984.2,33.5
57098,0.05,-0.01,0.98,2.01,3.54,1.83,984.15,33.51
57136,0.05,-0.01,0.99,1.95,3.54,1.65,984.24,33.5
57174,0.05,-0.01,0.99,2.08,3.42,1.46,984.18,33.51
57212,0.05,-0.01,0.98,2.08,3.6,1.53,984.26,33.52
57250,0.05,-0.0,0.99,2.08,3.6,1.53,984.19,33.5
57288,0.05,-0.01,0.99,2.01,3.72,1.77,984.19,33.52
57326,0.05,-0.01,0.99,1.95,3.78,1.53,984.16,33.51
57402,0.05,-0.01,0.98,1.95,3.78,1.71,984.2,33.48
57440,0.05,-0.01,0.99,2.14,3.66,1.65,984.17,33.47
57478,0.05,-0.01,0.99,2.08,3.78,1.65,984.21,33.5
57567,0.05,-0.0,0.98,1.89,3.78,1.46,984.19,33.46
57606,0.05,-0.01,0.98,2.14,3.66,1.71,984.19,33.47
57644,0.05,-0.01,0.99,2.14,3.6,1.53,984.24,33.49
57682,0.05,-0.01,0.99,2.08,3.85,1.59,984.2,33.49
57720,0.05,-0.01,0.99,2.01,3.6,1.59,984.22,33.49
57758,0.05,-0.01,0.99,2.01,3.6,1.65,984.23,33.5
57796,0.05,-0.01,0.99,2.14,3.66,1.65,984.24,33.5
57846,0.05,-0.01,0.98,2.14,3.66,1.59,984.24,33.48
57884,0.05,-0.01,0.98,2.01,3.66,1.59,984.23,33.49
57922,0.05,-0.01,0.99,2.2,3.97,1.71,984.19,33.49
57960,0.05,-0.01,0.99,2.08,3.72,1.65,984.16,33.49
57998,0.05,-0.01,0.99,2.01,3.72,1.77,984.19,33.5
58036,0.05,-0.01,0.99,2.08,3.78,1.65,984.24,33.53
58074,0.05,-0.01,0.99,2.01,3.54,1.65,984.21,33.52
58112,0.05,-0.01,0.99,2.08,3.78,1.59,984.19,33.52
58151,0.05,-0.01,0.98,2.01,3.6,1.59,984.22,33.51
58189,0.05,-0.01,0.99,2.01,3.6,1.77,984.2,33.51
58238,0.05,-0.01,0.99,2.14,3.6,1.53,984.22,33.51
58276,0.05,-0.01,0.99,2.08,3.66,1.65,984.23,33.51
58314,0.05,-0.01,0.99,2.14,3.66,1.71,984.23,33.51
58352,0.05,-0.01,0.98,2.14,3.66,1.65,984.19,33.52
58391,0.05,-0.01,0.98,2.01,3.54,1.65,984.21,33.52
58429,0.05,-0.01,0.99,2.08,3.6,1.53,984.23,33.52
58467,0.05,-0.01,0.99,2.2,3.66,1.59,984.18,33.51
58505,0.05,-0.01,0.99,1.95,3.6,1.4,984.16,33.52
58543,0.05,-0.01,0.99,2.01,3.66,1.53,984.16,33.51
58581,0.05,-0.01,0.99,2.08,3.6,1.77,984.18,33.51
58630,0.05,-0.01,0.99,2.01,3.66,1.59,984.25,33.5
58668,0.05,-0.01,0.99,2.01,3.6,1.71,984.25,33.51
58706,0.05,-0.01,0.99,2.14,3.66,1.65,984.26,33.5
58744,0.05,-0.01,0.99,1.95,3.72,1.65,984.23,33.51
58783,0.05,-0.01,0.99,1.89,3.72,1.65,984.23,33.52
58821,0.05,-0.01,0.99,1.95,3.72,1.65,984.22,33.51
58859,0.05,-0.01,0.99,2.2,3.66,1.53,984.23,33.51
58897,0.05,-0.01,0.99,2.14,3.54,1.65,984.21,33.52
58935,0.05,-0.01,0.99,2.26,3.6,1.53,984.24,33.53
58973,0.05,-0.01,0.99,2.08,3.66,1.65,984.21,33.52
59011,0.05,-0.01,0.99,2.08,3.6,1.59,984.22,33.52
59061,0.05,-0.01,0.99,2.08,3.6,1.53,984.22,33.51
59099,0.05,-0.01,0.99,2.01,3.66,1.65,984.24,33.51
59137,0.05,-0.01,0.99,2.14,3.6,1.59,984.22,33.52
59175,0.05,-0.01,0.99,2.14,3.66,1.59,984.2,33.52
59213,0.05,-0.01,0.99,2.14,3.42,1.83,984.23,33.52
59251,0.05,-0.01,0.99,2.14,3.48,1.59,984.18,33.52
59289,0.05,-0.01,0.99,2.14,3.6,1.59,984.19,33.52
59327,0.05,-0.01,0.99,1.95,3.66,1.65,984.18,33.53
59365,0.05,-0.01,0.99,2.08,3.6,1.59,984.17,33.52
59403,0.05,-0.01,0.99,2.08,3.72,1.71,984.18,33.53
59452,0.05,-0.01,0.99,2.01,3.78,1.71,984.19,33.51
59490,0.05,-0.01,0.99,2.14,3.6,1.65,984.26,33.52
59528,0.05,-0.01,0.99,2.08,3.72,1.46,984.21,33.52
59567,0.05,-0.01,0.99,2.14,3.6,1.59,984.18,33.52
59604,0.05,-0.01,0.99,1.89,3.54,1.59,984.17,33.52
59643,0.05,-0.01,0.99,2.01,3.54,1.71,984.23,33.53
59681,0.05,-0.01,0.99,2.01,3.6,1.65,984.23,33.51
59719,0.05,-0.01,0.99,2.01,3.54,1.71,984.18,33.52
59757,0.05,-0.01,0.98,2.01,3.6,1.59,984.18,33.53
59795,0.05,-0.01,0.99,2.26,3.54,1.71,984.19,33.52
59844,0.05,-0.01,0.99,2.2,3.6,1.65,984.22,33.51
59882,0.05,-0.01,0.98,2.14,3.66,1.59,984.19,33.54
59921,0.05,-0.01,0.99,2.08,3.48,1.71,984.18,33.52
59959,0.05,-0.01,0.99,2.01,3.6,1.53,984.24,33.52
59997,0.05,-0.01,0.99,1.95,3.66,1.65,984.2,33.51
60035,0.05,-0.01,0.99,2.08,3.72,1.71,984.16,33.52
60073,0.05,-0.01,0.99,2.08,3.85,1.65,984.16,33.52
60111,0.05,-0.01,0.99,2.01,3.6,1.59,984.15,33.53
60149,0.05,-0.01,0.99,2.01,3.72,1.71,984.22,33.53
60187,0.05,-0.01,0.99,2.14,3.78,1.65,984.22,33.53
60237,0.05,-0.01,0.99,2.2,3.6,1.59,984.21,33.52
60275,0.05,-0.01,0.99,1.95,3.54,1.59,984.24,33.53
60313,0.05,-0.01,0.99,2.08,3.72,1.34,984.2,33.53
60351,0.05,-0.01,0.99,1.89,3.54,1.46,984.2,33.52
60389,0.05,-0.01,0.99,1.89,3.6,1.53,984.26,33.52
60427,0.05,-0.01,0.99,2.14,3.54,1.53,984.24,33.52
60465,0.05,-0.01,0.99,2.14,3.6,1.65,984.19,33.52
60503,0.05,-0.01,0.99,1.95,3.42,1.53,984.21,33.53
60541,0.05,-0.01,0.99,2.08,3.66,1.77,984.25,33.54
60579,0.05,-0.01,0.99,2.08,3.66,1.71,984.15,33.52
60655,0.05,-0.01,0.98,2.08,3.66,1.83,984.22,33.49
60693,0.05,-0.01,0.99,1.95,3.6,1.71,984.18,33.52
60731,0.05,-0.01,0.98,2.01,3.66,1.4,984.22,33.52
60820,0.05,-0.01,0.99,2.01,3.66,1.65,984.18,33.48
60858,0.05,-0.01,0.98,2.01,3.54,1.53,984.19,33.51
60896,0.05,-0.01,0.99,2.08,3.6,1.59,984.14,33.5
60935,0.04,-0.01,0.98,2.08,3.66,1.65,984.22,33.51
60973,0.06,-0.01,0.98,2.01,3.72,1.71,984.18,33.51
61011,0.06,-0.01,0.99,2.14,3.72,1.59,984.22,33.52
61049,0.05,-0.01,0.98,2.01,3.6,1.59,984.18,33.51
61087,0.05,-0.01,0.98,2.2,3.72,1.71,984.17,33.51
61136,0.05,-0.01,0.99,2.08,3.6,1.59,984.18,33.52
61174,0.05,-0.01,0.99,2.01,3.54,1.65,984.2,33.52
61213,0.05,-0.01,0.99,2.01,3.72,1.59,984.19,33.51
61251,0.05,-0.01,0.98,2.08,3.6,1.59,984.2,33.53
61289,0.05,-0.0,0.99,1.89,3.66,1.59,984.24,33.53
61327,0.05,-0.01,0.99,2.14,3.54,1.53,984.22,33.53
61365,0.05,-0.01,0.99,2.08,3.54,1.65,984.17,33.52
61403,0.05,-0.01,0.99,2.14,3.66,1.59,984.26,33.53
61441,0.05,-0.02,0.99,2.08,3.72,1.59,984.23,33.54
61479,0.05,-0.01,0.98,2.08,3.6,1.46,984.2,33.53
61529,0.05,-0.01,0.99,1.89,3.6,1.65,984.21,33.53
61567,0.05,-0.01,0.99,1.95,3.54,1.77,984.2,33.53
61605,0.05,-0.01,0.98,1.83,3.66,1.71,984.2,33.53
61643,0.05,-0.01,0.99,2.14,3.72,1.59,984.2,33.54
61681,0.05,-0.01,0.98,2.14,3.85,1.59,984.23,33.54
61719,0.05,-0.01,0.99,1.95,3.66,1.71,984.21,33.53
61757,0.05,-0.01,0.99,2.2,3.6,1.77,984.21,33.54
61795,0.05,-0.01,0.99,2.14,3.66,1.65,984.2,33.56
61833,0.05,-0.01,0.99,1.95,3.6,1.71,984.31,33.55
61871,0.05,-0.01,0.99,2.2,3.54,1.59,984.17,33.54
61921,0.05,-0.01,0.98,1.95,3.72,1.77,984.21,33.53
61959,0.05,-0.01,0.99,1.95,3.66,1.65,984.19,33.53
61997,0.05,-0.01,0.99,1.95,3.66,1.53,984.17,33.54
62035,0.05,-0.01,0.99,2.08,3.72,1.59,984.21,33.54
62073,0.05,-0.01,0.99,2.08,3.6,1.59,984.21,33.54
62111,0.05,-0.01,0.98,1.89,3.48,1.65,984.2,33.53
62149,0.05,-0.01,0.98,1.95,3.72,1.53,984.17,33.54
62187,0.05,-0.01,0.99,2.01,3.6,1.65,984.19,33.53
62225,0.05,-0.01,0.99,2.14,3.66,1.59,984.19,33.54
62263,0.05,-0.01,0.99,2.01,3.54,1.53,984.19,33.54
62313,0.05,-0.01,0.99,2.01,3.6,1.46,984.18,33.54
62351,0.05,-0.01,0.99,2.14,3.66,1.59,984.22,33.54
62389,0.05,-0.01,0.99,2.2,3.72,1.59,984.22,33.54
62427,0.05,-0.01,0.99,2.01,3.72,1.65,984.19,33.54
62465,0.05,-0.01,0.99,2.14,3.66,1.65,984.14,33.54
62503,0.05,-0.01,0.99,2.26,3.72,1.83,984.24,33.55
62541,0.05,-0.01,0.99,2.01,3.6,1.53,984.2,33.54
62579,0.05,-0.01,0.99,2.08,3.66,1.77,984.21,33.55
62617,0.05,-0.01,0.98,2.01,3.54,1.65,984.22,33.55
62655,0.05,-0.01,0.98,2.01,3.6,1.53,984.19,33.54
62694,0.05,-0.01,0.99,1.95,3.66,1.65,984.25,33.56
62743,0.05,-0.01,0.99,2.08,3.6,1.65,984.2,33.54
62781,0.05,-0.01,0.99,2.2,3.66,1.53,984.17,33.55
62819,0.05,-0.01,0.99,2.08,3.6,1.77,984.17,33.54
62857,0.05,-0.01,0.99,2.14,3.72,1.65,984.16,33.55
62895,0.05,-0.01,0.99,2.01,3.54,1.53,984.22,33.55
62933,0.05,-0.01,0.99,2.08,3.72,1.77,984.24,33.57
62971,0.05,-0.01,0.98,1.95,3.72,1.65,984.18,33.55
63009,0.05,-0.01,0.99,2.08,3.6,1.65,984.19,33.55
63047,0.05,-0.01,0.99,2.14,3.66,1.65,984.25,33.57
63085,0.05,-0.01,0.99,2.01,3.72,1.59,984.18,33.56
63135,0.05,-0.01,0.99,2.08,3.6,1.65,984.2,33.55
63173,0.05,-0.01,0.99,2.2,3.6,1.71,984.22,33.55
63211,0.05,-0.01,0.98,2.08,3.78,1.59,984.27,33.55
63249,0.05,-0.01,0.98,2.2,3.72,1.83,984.17,33.55
63287,0.05,-0.01,0.99,2.08,3.78,1.89,984.19,33.56
63325,0.05,-0.01,0.99,2.08,3.48,1.71,984.22,33.56
63363,0.05,-0.01,0.99,2.01,3.48,1.71,984.22,33.58
63401,0.05,-0.01,0.99,2.14,3.6,1.53,984.21,33.56
63439,0.05,-0.01,0.99,1.95,3.66,1.65,984.27,33.56
63477,0.05,-0.01,0.98,2.08,3.6,1.65,984.18,33.57
63527,0.05,-0.01,0.98,2.01,3.72,1.59,984.24,33.56
63565,0.05,-0.01,0.99,2.01,3.54,1.65,984.22,33.56
63603,0.05,-0.01,0.99,2.08,3.66,1.65,984.18,33.56
63641,0.05,-0.01,0.99,2.08,3.48,1.53,984.2,33.56
63679,0.05,-0.01,0.99,2.01,3.66,1.53,984.18,33.56
63717,0.05,-0.01,0.99,2.08,3.66,1.59,984.2,33.56
63755,0.05,-0.01,0.99,2.08,3.48,1.65,984.2,33.56
63793,0.05,-0.01,0.99,1.95,3.48,1.59,984.22,33.56
63831,0.05,-0.01,0.99,2.01,3.48,1.46,984.17,33.56
63869,0.05,-0.01,0.99,2.01,3.66,1.46,984.21,33.55
63945,0.05,-0.01,0.99,2.01,3.72,1.59,984.19,33.54
63983,0.05,-0.01,0.99,2.08,3.72,1.59,984.22,33.55
64021,0.05,-0.01,0.99,2.14,3.72,1.65,984.18,33.55
64110,0.05,-0.01,0.99,2.08,3.78,1.65,984.22,33.54
64148,0.05,-0.01,0.99,2.14,3.66,1.65,984.15,33.53
64186,0.05,-0.01,0.99,1.95,3.66,1.59,984.24,33.56
64224,0.05,-0.01,0.99,2.08,3.6,1.59,984.15,33.54
64262,0.05,-0.01,0.99,1.95,3.66,1.59,984.16,33.54
64301,0.05,-0.01,0.99,2.08,3.54,1.59,984.15,33.55
64339,0.05,-0.01,0.99,2.01,3.66,1.71,984.25,33.56
64377,0.05,-0.01,0.99,2.08,3.6,1.83,984.2,33.56
64426,0.05,-0.01,0.99,1.95,3.78,1.46,984.16,33.53
64464,0.05,-0.01,0.98,1.95,3.66,1.46,984.2,33.55
64502,0.05,-0.01,0.99,2.01,3.66,1.65,984.23,33.57
64541,0.05,-0.01,0.99,2.14,3.54,1.59,984.19,33.55
64578,0.05,-0.01,0.99,1.95,3.42,1.53,984.17,33.56
64617,0.05,-0.01,0.99,2.01,3.78,1.65,984.24,33.57
64655,0.05,-0.01,0.99,2.08,3.6,1.71,984.2,33.56
64693,0.05,-0.01,0.99,2.01,3.6,1.71,984.17,33.57
64731,0.05,-0.01,0.99,2.14,3.66,1.65,984.2,33.58
64769,0.05,-0.01,0.99,1.95,3.54,1.65,984.21,33.58
64818,0.05,-0.01,0.98,2.01,3.66,1.59,984.24,33.57
64856,0.05,-0.01,0.99,2.08,3.6,1.53,984.19,33.57
64895,0.05,-0.01,0.99,1.95,3.6,1.53,984.21,33.56
64933,0.05,-0.01,0.99,2.01,3.66,1.59,984.22,33.58
64971,0.05,-0.01,0.99,2.01,3.85,1.71,984.17,33.58
65009,0.05,-0.01,0.99,2.14,3.66,1.53,984.17,33.57
65047,0.05,-0.01,0.98,1.95,3.54,1.59,984.17,33.58
65085,0.05,-0.01,0.99,2.01,3.66,1.46,984.27,33.57
65123,0.05,-0.01,0.99,1.95,3.54,1.46,984.2,33.58
65161,0.05,-0.01,0.99,2.08,3.6,1.65,984.19,33.58
65210,0.05,-0.01,0.98,2.01,3.6,1.59,984.2,33.56
65248,0.05,-0.01,0.99,1.89,3.6,1.65,984.26,33.58
65286,0.05,-0.01,0.99,2.14,3.72,1.53,984.17,33.57
65324,0.05,-0.01,0.99,2.08,3.6,1.71,984.21,33.59
65362,0.05,-0.01,0.99,2.01,3.72,1.34,984.21,33.59
65401,0.05,-0.01,0.99,2.01,3.78,1.65,984.22,33.59
65438,0.05,-0.01,0.99,2.08,3.6,1.65,984.17,33.59
65477,0.05,-0.01,0.99,2.08,3.78,1.65,984.24,33.59
65515,0.05,-0.01,0.99,2.08,3.72,1.46,984.19,33.59
65553,0.05,-0.01,0.99,1.95,3.66,1.59,984.23,33.58
65602,0.05,-0.01,0.99,2.08,3.66,1.53,984.14,33.58
65640,0.05,-0.01,0.99,2.08,3.66,1.59,984.19,33.59
65678,0.05,-0.01,0.99,1.95,3.66,1.59,984.21,33.58
65716,0.05,-0.01,0.99,1.95,3.66,1.65,984.16,33.59
65754,0.05,-0.01,0.99,2.08,3.72,1.59,984.22,33.58
65792,0.05,-0.01,0.99,2.2,3.66,1.65,984.2,33.58
65830,0.05,-0.01,0.99,2.26,3.72,1.59,984.22,33.59
65869,0.05,-0.01,0.99,1.95,3.72,1.59,984.22,33.59
65907,0.05,-0.01,0.99,2.2,3.54,1.46,984.2,33.59
65945,0.05,-0.01,0.98,2.2,3.6,1.65,984.2,33.6
65983,0.05,-0.01,0.99,2.01,3.78,1.65,984.13,33.6
66032,0.05,-0.01,0.99,2.01,3.72,1.65,984.2,33.6
66070,0.05,-0.01,0.98,2.26,3.72,1.59,984.26,33.6
66108,0.05,-0.01,0.99,1.95,3.6,1.71,984.16,33.59
66147,0.05,-0.01,0.98,2.01,3.78,1.59,984.26,33.59
66184,0.05,-0.01,0.99,2.14,3.54,1.71,984.22,33.59
66222,0.05,-0.01,0.98,2.01,3.78,1.65,984.19,33.6
66261,0.05,-0.01,0.99,1.95,3.72,1.59,984.16,33.59
66298,0.05,-0.01,0.99,2.2,3.66,1.65,984.2,33.59
66336,0.05,-0.01,0.99,1.95,3.66,1.71,984.23,33.59
66374,0.05,-0.01,0.99,2.01,3.66,1.65,984.21,33.61
66424,0.05,-0.01,0.99,2.14,3.85,1.65,984.19,33.6
66462,0.05,-0.01,0.99,2.26,3.6,1.65,984.19,33.59
66500,0.05,-0.01,0.99,2.08,3.6,1.65,984.21,33.59
66538,0.05,-0.01,0.99,2.08,3.72,1.71,984.2,33.59
66576,0.05,-0.01,0.99,2.01,3.6,1.53,984.13,33.59
66614,0.05,-0.01,0.99,2.26,3.6,1.53,984.2,33.61
66652,0.05,-0.01,0.99,2.08,3.54,1.65,984.22,33.61
66690,0.05,-0.01,0.98,2.01,3.66,1.59,984.22,33.61
66729,0.05,-0.01,0.99,2.08,3.6,1.53,984.22,33.61
66766,0.05,-0.01,0.99,2.01,3.42,1.65,984.23,33.61
66816,0.05,-0.01,0.99,2.08,3.6,1.59,984.17,33.59
66854,0.05,-0.01,0.99,2.08,3.6,1.53,984.23,33.59
66892,0.05,-0.01,0.99,1.95,3.72,1.65,984.2,33.6
66930,0.05,-0.01,0.99,2.01,3.6,1.59,984.21,33.6
66968,0.05,-0.01,0.99,2.01,3.85,1.46,984.23,33.61
67006,0.05,-0.01,0.98,1.89,3.85,1.53,984.16,33.59
67044,0.05,-0.01,0.99,2.08,3.6,1.59,984.19,33.61
67082,0.05,-0.01,0.99,1.95,3.72,1.65,984.23,33.62
67120,0.05,-0.01,0.99,1.95,3.66,1.53,984.15,33.6
67158,0.05,-0.01,0.99,2.14,3.78,1.59,984.2,33.61
67234,0.05,-0.01,0.99,2.14,3.66,1.71,984.21,33.59
67272,0.05,-0.01,0.99,2.08,3.72,1.65,984.16,33.57
67310,0.05,-0.01,0.99,2.01,3.6,1.65,984.19,33.59
67399,0.05,-0.01,0.99,1.95,3.54,1.71,984.15,33.56
67437,0.05,-0.01,0.99,2.01,3.66,1.71,984.25,33.59
67475,0.05,-0.01,0.98,2.01,3.6,1.59,984.18,33.58
67513,0.05,-0.01,0.99,2.14,3.85,1.53,984.25,33.59
67551,0.05,-0.01,0.99,2.01,3.6,1.59,984.14,33.59
67589,0.05,-0.01,0.99,2.01,3.72,1.71,984.18,33.58
67627,0.05,-0.01,0.99,2.14,3.54,1.65,984.2,33.59
67665,0.05,-0.01,0.99,2.2,3.6,1.77,984.25,33.61
67715,0.05,-0.01,0.99,2.14,3.48,1.65,984.17,33.58
67753,0.05,-0.01,0.99,2.01,3.54,1.59,984.2,33.59
67791,0.05,-0.01,0.99,2.2,3.54,1.71,984.16,33.59
67829,0.05,-0.01,0.99,2.2,3.48,1.46,984.19,33.6
67867,0.05,-0.01,0.98,2.08,3.85,1.71,984.16,33.6
67905,0.05,-0.01,0.99,2.14,3.6,1.77,984.19,33.6
67943,0.05,-0.01,0.99,2.14,3.66,1.59,984.25,33.62
67981,0.05,-0.01,0.99,2.01,3.42,1.59,984.22,33.61
68019,0.05,-0.01,0.99,1.89,3.54,1.71,984.19,33.61
68057,0.05,-0.01,0.99,2.01,3.54,1.71,984.2,33.62
68107,0.05,-0.01,0.99,2.01,3.66,1.53,984.16,33.61
68145,0.05,-0.01,0.99,2.14,3.66,1.71,984.2,33.61
68183,0.05,-0.01,0.99,1.95,3.6,1.65,984.14,33.61
68221,0.05,-0.01,0.99,2.01,3.66,1.65,984.23,33.61
68259,0.05,-0.01,0.99,2.08,3.66,1.53,984.2,33.62
68297,0.05,-0.01,0.99,2.2,3.66,1.59,984.12,33.61
68335,0.05,-0.01,0.99,2.08,3.48,1.53,984.18,33.61
68373,0.05,-0.01,0.99,2.01,3.72,1.53,984.28,33.62
68411,0.05,-0.01,0.99,2.01,3.72,1.53,984.25,33.62
68449,0.05,-0.01,0.99,2.2,3.6,1.71,984.19,33.61
68499,0.05,-0.01,0.99,1.89,3.78,1.71,984.25,33.62
68537,0.05,-0.01,0.99,2.2,3.6,1.59,984.18,33.61
68575,0.05,-0.01,0.99,2.01,3.6,1.53,984.22,33.63
68613,0.05,-0.01,0.99,2.2,3.66,1.71,984.21,33.62
68651,0.05,-0.01,0.98,1.89,3.66,1.77,984.24,33.62
68689,0.05,-0.01,0.99,2.08,3.66,1.77,984.23,33.61
68727,0.05,-0.01,0.99,2.01,3.6,1.65,984.16,33.61
68765,0.05,-0.01,0.99,2.14,3.6,1.65,984.22,33.62
68803,0.05,-0.01,0.99,1.95,3.6,1.71,984.24,33.63
68841,0.05,-0.01,0.99,1.95,3.66,1.65,984.19,33.62
68891,0.05,-0.01,0.99,2.2,3.72,1.65,984.22,33.61
68929,0.05,-0.01,0.99,2.01,3.54,1.65,984.18,33.62
68967,0.05,-0.01,0.99,2.14,3.6,1.59,984.19,33.62
69005,0.05,-0.01,0.99,2.01,3.66,1.83,984.23,33.63
69043,0.05,-0.01,0.99,2.14,3.6,1.65,984.16,33.63
69081,0.05,-0.01,0.99,1.95,3.54,1.71,984.21,33.63
69119,0.05,-0.01,0.99,2.01,3.6,1.65,984.21,33.63
69157,0.05,-0.01,0.99,2.01,3.78,1.77,984.18,33.61
69195,0.05,-0.01,0.98,1.95,3.78,1.46,984.21,33.64
69233,0.05,-0.01,0.99,2.08,3.66,1.59,984.15,33.64
69271,0.05,-0.01,0.99,2.08,3.78,1.53,984.21,33.64
69321,0.05,-0.01,0.99,2.08,3.78,1.65,984.23,33.64
69359,0.05,-0.01,0.99,2.08,3.66,1.59,984.21,33.62
69397,0.05,-0.01,0.99,2.2,3.72,1.59,984.21,33.63
69435,0.05,-0.01,0.99,2.08,3.78,1.71,984.14,33.63
69473,0.05,-0.01,0.99,1.89,3.6,1.4,984.17,33.63
69511,0.05,-0.01,0.99,2.08,3.48,1.53,984.17,33.63
69549,0.05,-0.01,0.99,2.01,3.72,1.65,984.19,33.63
69587,0.05,-0.01,0.99,2.08,3.66,1.65,984.24,33.63
69625,0.05,-0.01,0.99,2.01,3.48,1.65,984.23,33.63
69663,0.05,-0.01,0.99,2.14,3.66,1.65,984.18,33.64
69713,0.05,-0.01,0.99,1.95,3.78,1.77,984.19,33.63
69751,0.05,-0.01,0.99,2.08,3.66,1.65,984.19,33.64
69789,0.05,-0.01,0.99,1.89,3.48,1.53,984.17,33.64
69827,0.05,-0.01,0.99,1.89,3.6,1.53,984.22,33.63
69865,0.05,-0.01,0.99,1.83,3.54,1.65,984.24,33.64
69903,0.05,-0.01,0.99,2.08,3.48,1.71,984.19,33.65
69941,0.05,-0.01,0.99,1.89,3.42,1.4,984.17,33.63
69979,0.05,-0.01,0.99,1.95,3.66,1.77,984.18,33.65
70017,0.05,-0.01,0.99,1.95,3.78,1.65,984.22,33.64
70055,0.05,-0.01,0.99,2.14,3.54,1.71,984.26,33.65
70105,0.05,-0.01,0.99,2.2,3.54,1.53,984.16,33.63
70143,0.05,-0.01,0.99,1.95,3.6,1.53,984.18,33.64
70181,0.05,-0.01,0.99,1.95,3.6,1.53,984.23,33.64
70219,0.05,-0.01,0.99,2.08,3.72,1.65,984.18,33.66
70257,0.05,-0.01,0.99,2.14,3.6,1.59,984.25,33.64
70295,0.05,-0.01,0.99,1.95,3.78,1.53,984.2,33.64
70333,0.05,-0.01,0.99,1.95,3.54,1.59,984.25,33.65
70371,0.05,-0.01,0.99,2.14,3.54,1.53,984.19,33.64
70409,0.05,-0.01,0.99,2.01,3.6,1.59,984.15,33.65
70447,0.05,-0.01,0.99,2.08,3.66,1.53,984.21,33.66
70524,0.05,-0.01,0.99,1.83,3.6,1.65,984.22,33.64
70562,0.05,-0.01,0.99,2.08,3.66,1.65,984.21,33.63
70600,0.05,-0.01,0.99,2.08,3.72,1.59,984.21,33.63
70690,0.05,-0.01,0.99,2.14,3.72,1.65,984.19,33.6
70728,0.05,-0.01,0.99,2.01,3.78,1.59,984.24,33.61
70766,0.05,-0.01,0.99,2.01,3.54,1.4,984.19,33.63
70804,0.05,-0.01,0.99,2.08,3.78,1.53,984.19,33.63
70842,0.05,-0.01,0.99,2.08,3.66,1.46,984.26,33.65
70880,0.05,-0.01,0.99,2.01,3.66,1.65,984.23,33.63
70918,0.05,-0.01,0.98,2.14,3.72,1.71,984.24,33.63
70968,0.05,-0.01,0.99,2.08,3.54,1.59,984.18,33.62
71006,0.05,-0.01,0.99,2.08,3.48,1.65,984.21,33.64
71044,0.05,-0.01,0.99,2.2,3.66,1.53,984.15,33.64
71082,0.05,-0.01,0.99,2.01,3.72,1.59,984.2,33.64
71120,0.05,-0.01,0.99,1.95,3.72,1.65,984.22,33.64
71158,0.05,-0.01,0.99,2.01,3.36,1.71,984.25,33.66
71196,0.05,-0.01,0.99,1.83,3.6,1.71,984.19,33.65
71234,0.05,-0.01,0.99,1.89,3.6,1.53,984.24,33.65
71272,0.05,-0.01,0.99,2.14,3.72,1.53,984.23,33.65
71310,0.05,-0.01,0.99,1.95,3.6,1.53,984.26,33.65
71348,0.05,-0.01,0.99,1.95,3.85,1.71,984.18,33.65
71398,0.05,-0.01,0.99,2.01,3.78,1.59,984.14,33.63
71436,0.05,-0.01,0.99,1.95,3.72,1.77,984.23,33.67
71474,0.05,-0.01,0.99,2.01,3.72,1.53,984.19,33.65
71512,0.05,-0.01,0.99,2.01,3.72,1.53,984.18,33.65
71550,0.05,-0.01,0.99,2.08,3.85,1.59,984.16,33.67
71588,0.05,-0.01,0.99,1.89,3.72,1.53,984.25,33.65
71626,0.05,-0.01,0.99,1.95,3.54,1.59,984.19,33.65
71664,0.05,-0.01,0.99,2.08,3.66,1.59,984.25,33.66
71702,0.05,-0.01,0.99,2.08,3.66,1.59,984.21,33.65
71740,0.05,-0.01,0.99,2.14,3.66,1.53,984.12,33.66
71790,0.05,-0.01,0.99,2.08,3.6,1.59,984.18,33.65
71828,0.05,-0.01,0.99,2.01,3.66,1.65,984.21,33.66
71866,0.05,-0.01,0.99,2.26,3.72,1.71,984.27,33.67
71904,0.05,-0.01,0.99,2.14,3.78,1.59,984.18,33.66
71942,0.05,-0.01,0.99,2.14,3.66,1.53,984.26,33.67
71980,0.05,-0.01,0.99,2.08,3.66,1.65,984.23,33.67
72018,0.05,-0.01,0.99,2.08,3.48,1.71,984.2,33.67
72056,0.05,-0.01,0.99,2.2,3.6,1.65,984.24,33.67
72094,0.05,-0.01,0.98,1.89,3.72,1.53,984.19,33.65
72132,0.05,-0.01,0.99,1.95,3.66,1.59,984.21,33.66
72182,0.05,-0.01,0.99,2.01,3.66,1.53,984.17,33.66
72220,0.05,-0.01,0.99,2.14,3.6,1.59,984.21,33.66
72258,0.05,-0.01,0.99,2.2,3.66,1.77,984.18,33.67
72296,0.05,-0.01,0.99,1.95,3.42,1.53,984.18,33.67
72334,0.05,-0.01,0.99,2.01,3.72,1.71,984.2,33.66
72372,0.05,-0.01,0.99,1.95,3.6,1.77,984.17,33.67
72410,0.05,-0.01,0.99,2.01,3.72,1.65,984.22,33.66
72448,0.05,-0.01,0.99,2.01,3.6,1.53,984.17,33.67
72486,0.05,-0.01,0.99,1.95,3.48,1.53,984.21,33.67
72524,0.05,-0.01,0.99,2.08,3.66,1.59,984.16,33.66
72574,0.05,-0.01,0.99,1.95,3.48,1.53,984.22,33.65
72612,0.05,-0.01,0.99,2.08,3.78,1.65,984.24,33.67
72650,0.05,-0.01,0.99,1.89,3.78,1.71,984.26,33.66
72688,0.05,-0.01,0.99,2.01,3.48,1.71,984.19,33.67
72726,0.05,-0.01,0.99,2.2,3.72,1.59,984.15,33.66
72764,0.05,-0.01,0.99,1.89,3.66,1.59,984.19,33.66
72802,0.05,-0.01,0.99,2.01,3.6,1.71,984.21,33.67
72840,0.05,-0.01,0.99,1.95,3.72,1.59,984.14,33.67
72878,0.05,-0.01,0.99,2.01,3.66,1.59,984.19,33.68
72916,0.05,-0.01,0.99,2.08,3.6,1.59,984.19,33.68
72954,0.05,-0.01,0.99,2.08,3.6,1.59,984.21,33.69
73004,0.05,-0.01,0.99,2.01,3.66,1.71,984.19,33.66
73042,0.05,-0.01,0.99,1.95,3.66,1.46,984.17,33.67
73080,0.05,-0.01,0.99,1.95,3.6,1.59,984.2,33.67
73118,0.05,-0.01,0.99,2.01,3.6,1.59,984.23,33.68
73156,0.05,-0.01,0.99,2.08,3.6,1.59,984.2,33.68
73194,0.05,-0.01,0.99,2.08,3.42,1.65,984.18,33.69
73232,0.05,-0.01,0.99,2.14,3.78,1.53,984.18,33.68
73270,0.05,-0.01,0.99,2.01,3.6,1.77,984.21,33.69
73308,0.05,-0.01,0.99,2.08,3.54,1.53,984.22,33.69
73346,0.05,-0.01,0.99,2.08,3.6,1.65,984.25,33.7
73396,0.05,-0.01,0.99,2.01,3.72,1.59,984.19,33.67
73434,0.05,-0.01,0.99,1.83,3.6,1.59,984.17,33.68
73472,0.05,-0.01,0.98,2.08,3.42,1.83,984.22,33.67
73510,0.05,-0.01,0.98,2.14,3.66,1.71,984.22,33.69
73548,0.05,-0.01,0.99,2.14,3.66,1.65,984.18,33.68
73586,0.05,-0.01,0.99,2.08,3.6,1.53,984.2,33.69
73624,0.05,-0.01,0.99,2.08,3.72,1.59,984.19,33.68
73662,0.05,-0.01,0.99,2.08,3.42,1.46,984.2,33.69
73700,0.05,-0.01,0.99,2.08,3.6,1.65,984.2,33.69
73738,0.05,-0.01,0.98,2.14,3.66,1.53,984.18,33.69
73813,0.05,-0.01,0.99,1.95,3.6,1.46,984.21,33.67
73851,0.05,-0.01,0.99,2.08,3.66,1.71,984.17,33.67
73889,0.05,-0.01,0.99,2.08,3.66,1.65,984.2,33.68
73979,0.05,-0.01,0.99,2.08,3.54,1.53,984.16,33.64
74017,0.05,-0.01,0.99,1.95,3.6,1.65,984.2,33.66
74055,0.05,-0.01,0.99,2.01,3.54,1.71,984.24,33.67
74093,0.05,-0.01,0.99,2.08,3.42,1.46,984.22,33.67
74131,0.05,-0.01,0.99,2.14,3.66,1.4,984.25,33.66
74169,0.05,-0.01,0.99,1.89,3.66,1.65,984.25,33.67
74207,0.05,-0.01,0.99,2.08,3.72,1.53,984.17,33.66
74257,0.05,-0.01,0.99,2.08,3.66,1.53,984.17,33.66
74295,0.05,-0.01,0.99,2.01,3.6,1.59,984.17,33.67
74333,0.05,-0.01,0.99,1.95,3.78,1.46,984.19,33.68
74371,0.05,-0.01,0.99,1.89,3.54,1.83,984.23,33.69
74409,0.05,-0.01,0.99,2.08,3.72,1.65,984.25,33.68
74447,0.05,-0.01,0.99,2.01,3.6,1.46,984.2,33.68
74485,0.05,-0.01,0.99,2.01,3.66,1.59,984.22,33.68
74523,0.05,-0.01,0.99,1.95,3.72,1.65,984.16,33.68
74561,0.05,-0.01,0.99,2.01,3.72,1.59,984.19,33.68
74599,0.05,-0.01,0.99,2.08,3.78,1.53,984.17,33.67
74637,0.05,-0.01,0.99,1.89,3.72,1.59,984.2,33.7
74686,0.05,-0.01,0.99,2.01,3.54,1.46,984.2,33.69
74724,0.05,-0.01,0.99,1.95,3.78,1.53,984.23,33.7
74762,0.05,-0.01,0.99,1.95,3.66,1.46,984.16,33.69
74800,0.05,-0.01,0.99,2.01,3.72,1.71,984.15,33.69
74838,0.05,-0.01,0.99,2.08,3.66,1.71,984.21,33.68
74876,0.05,-0.01,0.99,2.08,3.66,1.65,984.19,33.69
74914,0.05,-0.01,0.99,2.01,3.72,1.59,984.21,33.7
74952,0.05,-0.01,0.99,2.08,3.6,1.59,984.22,33.71
74990,0.05,-0.01,0.99,1.95,3.66,1.46,984.18,33.7
75028,0.05,-0.01,0.99,1.95,3.48,1.65,984.2,33.71
75078,0.05,-0.01,0.99,2.01,3.72,1.4,984.25,33.69
75116,0.05,-0.01,0.99,2.14,3.66,1.65,984.23,33.7
75154,0.05,-0.01,0.99,2.08,3.6,1.53,984.21,33.69
75192,0.05,-0.01,0.99,2.01,3.54,1.71,984.18,33.7
75230,0.05,-0.01,0.99,2.14,3.78,1.65,984.14,33.71
75268,0.05,-0.01,0.99,2.01,3.72,1.46,984.2,33.71
75306,0.05,-0.01,0.99,2.01,3.72,1.65,984.18,33.71
75344,0.05,-0.01,0.99,2.01,3.66,1.59,984.23,33.7
75382,0.05,-0.01,0.99,2.01,3.6,1.59,984.24,33.71
75420,0.05,-0.01,0.99,2.08,3.6,1.77,984.14,33.7
75470,0.05,-0.01,0.99,2.08,3.66,1.77,984.17,33.69
75508,0.05,-0.01,0.99,1.89,3.6,1.53,984.19,33.7
75546,0.05,-0.01,0.99,2.08,3.6,1.71,984.19,33.71
75584,0.05,-0.01,0.99,1.95,3.72,1.65,984.2,33.71
75622,0.05,-0.01,0.99,1.95,3.85,1.59,984.23,33.7
75660,0.05,-0.01,0.99,2.08,3.6,1.53,984.2,33.71
75698,0.05,-0.01,0.99,2.01,3.66,1.77,984.24,33.71
75736,0.05,-0.01,0.99,2.2,3.85,1.53,984.21,33.71
75774,0.05,-0.01,0.99,2.08,3.72,1.53,984.18,33.71
75812,0.05,-0.01,0.99,2.01,3.54,1.59,984.17,33.71
75862,0.05,-0.01,0.99,2.14,3.78,1.53,984.2,33.7
75900,0.05,-0.01,0.99,2.14,3.78,1.59,984.18,33.72
75938,0.05,-0.01,0.98,2.14,3.66,1.59,984.18,33.71
75976,0.05,-0.01,0.99,2.08,3.72,1.65,984.23,33.72
76014,0.05,-0.01,0.99,2.14,3.72,1.65,984.21,33.72
76052,0.05,-0.01,0.99,2.01,3.6,1.71,984.22,33.72
76090,0.05,-0.01,0.99,2.01,3.6,1.59,984.18,33.71
76128,0.05,-0.01,0.99,1.95,3.6,1.71,984.21,33.71
76166,0.05,-0.01,0.99,2.08,3.6,1.77,984.2,33.72
76204,0.05,-0.01,0.99,2.2,3.78,1.65,984.19,33.72
76242,0.05,-0.01,0.99,2.08,3.66,1.59,984.24,33.72
76292,0.05,-0.01,0.99,2.08,3.72,1.65,984.17,33.7
76330,0.05,-0.01,0.99,2.08,3.66,1.59,984.17,33.71
76368,0.05,-0.01,0.99,2.08,3.6,1.65,984.24,33.72
76406,0.05,-0.01,0.99,2.08,3.66,1.71,984.16,33.71
76444,0.05,-0.01,0.99,2.14,3.72,1.77,984.2,33.73
76482,0.05,-0.01,0.99,1.95,3.6,1.59,984.16,33.71
76520,0.05,-0.01,0.99,2.14,3.66,1.71,984.25,33.73
76558,0.05,-0.01,0.99,2.01,3.78,1.59,984.19,33.71
76596,0.05,-0.01,0.99,1.89,3.72,1.77,984.17,33.72
76634,0.05,-0.01,0.99,2.08,3.54,1.65,984.18,33.72
76684,0.05,-0.01,0.99,2.01,3.66,1.65,984.19,33.7
76722,0.05,-0.01,0.99,1.89,3.66,1.46,984.2,33.73
76760,0.05,-0.01,0.99,2.01,3.6,1.59,984.19,33.73
76798,0.05,-0.01,0.99,2.08,3.72,1.53,984.14,33.72
76836,0.05,-0.01,0.99,2.08,3.66,1.59,984.22,33.72
76874,0.05,-0.01,0.99,1.95,3.6,1.59,984.2,33.72
76912,0.05,-0.01,0.99,2.14,3.72,1.46,984.22,33.72
76950,0.05,-0.01,0.99,1.95,3.6,1.65,984.16,33.72
76988,0.05,-0.01,0.99,2.08,3.72,1.59,984.16,33.72
77026,0.05,-0.01,0.99,2.01,3.78,1.59,984.2,33.73
77102,0.05,-0.01,0.98,2.08,3.85,1.65,984.12,33.7
77140,0.05,-0.01,0.99,2.01,3.48,1.59,984.18,33.71
77178,0.05,-0.01,0.99,2.01,3.6,1.53,984.13,33.71
77267,0.05,-0.01,0.99,1.95,3.6,1.53,984.15,33.68
77305,0.05,-0.01,0.99,2.14,3.6,1.53,984.17,33.69
77343,0.05,-0.01,0.99,2.14,3.66,1.53,984.2,33.7
77381,0.05,-0.01,0.99,2.08,3.54,1.71,984.26,33.72
77419,0.05,-0.01,0.99,2.01,3.72,1.65,984.23,33.71
77457,0.05,-0.01,0.99,2.08,3.36,1.65,984.17,33.71
77495,0.05,-0.01,0.99,2.01,3.72,1.65,984.18,33.72
77545,0.05,-0.01,0.99,2.14,3.72,1.59,984.21,33.71
77583,0.05,-0.01,0.99,2.08,3.6,1.53,984.22,33.71
77621,0.05,-0.01,0.99,1.95,3.6,1.71,984.13,33.71
77659,0.05,-0.01,0.99,2.14,3.54,1.59,984.2,33.73
77697,0.05,-0.01,0.99,2.01,3.66,1.59,984.24,33.71
77735,0.05,-0.01,0.99,2.08,3.54,1.71,984.2,33.72
77773,0.05,-0.01,0.99,2.01,3.54,1.59,984.22,33.73
77811,0.05,-0.01,0.99,2.2,3.54,1.65,984.14,33.71
77849,0.05,-0.01,0.99,2.14,3.66,1.71,984.2,33.72
77887,0.05,-0.01,0.99,2.01,3.66,1.65,984.17,33.73
77925,0.05,-0.01,0.99,1.89,3.54,1.59,984.23,33.73
77975,0.05,-0.01,0.99,2.08,3.72,1.59,984.15,33.71
78013,0.05,-0.01,0.99,1.95,3.72,1.65,984.21,33.73
78051,0.05,-0.01,0.99,2.08,3.6,1.65,984.21,33.72
78089,0.05,-0.01,0.99,2.01,3.72,1.59,984.16,33.73
78127,0.05,-0.01,0.99,2.14,3.66,1.71,984.17,33.72
78165,0.05,-0.01,0.99,1.83,3.66,1.71,984.21,33.73
78203,0.05,-0.01,0.99,2.01,3.48,1.65,984.16,33.73
78241,0.05,-0.01,0.99,1.95,3.48,1.59,984.2,33.73
78279,0.05,-0.01,0.99,1.95,3.54,1.59,984.2,33.74
78317,0.05,-0.01,0.99,1.95,3.78,1.59,984.17,33.73
78367,0.05,-0.01,0.99,2.01,3.66,1.53,984.21,33.72
78405,0.05,-0.01,0.99,2.01,3.6,1.46,984.17,33.73
78443,0.05,-0.01,0.99,1.83,3.85,1.59,984.17,33.73
78481,0.05,-0.01,0.99,2.14,3.6,1.77,984.17,33.73
78519,0.05,-0.01,0.99,2.08,3.66,1.71,984.21,33.73
78557,0.05,-0.01,0.99,2.01,3.72,1.71,984.18,33.73
78595,0.05,-0.01,0.98,2.14,3.66,1.65,984.16,33.73
78633,0.05,-0.01,0.99,1.95,3.66,1.53,984.16,33.73
78671,0.05,-0.01,0.99,2.08,3.66,1.59,984.18,33.75
78709,0.05,-0.01,0.99,2.08,3.78,1.59,984.16,33.73
78759,0.05,-0.01,0.99,2.01,3.66,1.65,984.2,33.73
78797,0.05,-0.01,0.99,2.14,3.66,1.71,984.17,33.73
78835,0.05,-0.01,0.99,1.89,3.72,1.65,984.19,33.75
78873,0.05,-0.01,0.99,2.01,3.6,1.59,984.25,33.74
78911,0.05,-0.01,0.99,2.01,3.78,1.65,984.2,33.74
78949,0.05,-0.01,0.99,2.01,3.66,1.65,984.19,33.74
78987,0.05,-0.01,0.99,2.08,3.72,1.71,984.18,33.75
79025,0.05,-0.01,0.99,2.08,3.66,1.65,984.22,33.76
79063,0.05,-0.01,0.98,1.95,3.66,1.59,984.21,33.74
79101,0.05,-0.01,0.99,2.08,3.85,1.53,984.19,33.74
79151,0.05,-0.01,0.99,1.95,3.66,1.71,984.21,33.75
79189,0.05,-0.01,0.99,2.14,3.6,1.53,984.12,33.73
79227,0.05,-0.01,0.99,2.08,3.78,1.65,984.2,33.74
79265,0.05,-0.01,0.99,2.08,3.72,1.65,984.27,33.75
79303,0.05,-0.01,0.99,2.08,3.6,1.71,984.14,33.74
79341,0.05,-0.01,0.99,2.14,3.78,1.65,984.19,33.74
79379,0.05,-0.01,0.99,2.08,3.72,1.71,984.17,33.75
79417,0.05,-0.01,0.99,2.08,3.72,1.46,984.28,33.75
79455,0.05,-0.01,0.99,2.01,3.72,1.59,984.18,33.74
79493,0.05,-0.01,0.99,1.95,3.72,1.71,984.21,33.76
79531,0.05,-0.01,0.99,2.14,3.66,1.65,984.19,33.75
79581,0.05,-0.01,0.99,2.14,3.6,1.53,984.21,33.74
79619,0.05,-0.01,0.99,2.08,3.6,1.59,984.26,33.75
79657,0.05,-0.01,0.99,2.01,3.72,1.65,984.24,33.75
79695,0.05,-0.01,0.99,2.14,3.78,1.71,984.2,33.75
79733,0.05,-0.01,0.99,2.14,3.78,1.59,984.22,33.76
79771,0.05,-0.01,0.99,2.14,3.72,1.53,984.2,33.76
79809,0.05,-0.01,0.99,2.14,3.85,1.65,984.15,33.75
79847,0.05,-0.01,0.98,2.14,3.72,1.65,984.23,33.76
79885,0.04,-0.01,0.99,2.14,3.72,1.65,984.28,33.75
79923,0.05,-0.01,0.99,2.14,3.78,1.59,984.2,33.76
79972,0.05,-0.01,0.99,2.08,3.78,1.65,984.2,33.73
80010,0.06,-0.01,0.99,2.2,3.72,1.46,984.18,33.76
80048,0.06,-0.01,0.99,1.95,3.78,1.59,984.21,33.75
80086,0.05,-0.01,0.98,2.01,3.91,1.65,984.19,33.74
80125,0.05,-0.01,0.99,2.08,3.72,1.53,984.2,33.74
80162,0.05,-0.01,0.99,2.26,3.54,1.65,984.23,33.75
80201,0.05,-0.01,0.99,2.08,3.66,1.59,984.16,33.76
80239,0.05,-0.01,0.99,2.2,3.66,1.77,984.17,33.75
80277,0.05,-0.01,0.99,2.14,3.72,1.65,984.2,33.76
80315,0.05,-0.01,0.99,2.01,3.66,1.59,984.19,33.75
80390,0.05,-0.01,0.99,2.26,3.6,1.65,984.21,33.72
80428,0.05,-0.01,0.99,2.14,3.72,1.65,984.19,33.74
80466,0.05,-0.01,0.99,2.08,3.66,1.71,984.18,33.74
80556,0.05,-0.01,0.99,2.01,3.72,1.59,984.21,33.72
80594,0.05,-0.01,0.98,2.2,3.66,1.53,984.19,33.73
80632,0.05,-0.01,0.99,2.01,3.72,1.65,984.22,33.74
80670,0.05,-0.01,0.99,1.89,3.6,1.65,984.18,33.74
80708,0.05,-0.01,0.99,1.95,3.72,1.59,984.21,33.74
80746,0.05,-0.01,0.99,2.2,3.6,1.65,984.18,33.74
80784,0.05,-0.01,0.99,2.08,3.72,1.59,984.18,33.73
80833,0.05,-0.01,0.99,2.01,3.66,1.71,984.19,33.75
80871,0.05,-0.01,0.99,2.08,3.6,1.65,984.2,33.75
80909,0.05,-0.01,0.99,2.08,3.72,1.59,984.15,33.74
80947,0.05,-0.01,0.99,2.01,3.66,1.53,984.21,33.75
80985,0.05,-0.01,0.99,2.01,3.66,1.65,984.16,33.74
81023,0.05,-0.01,0.99,2.14,3.66,1.65,984.12,33.73
81061,0.05,-0.01,0.99,2.14,3.48,1.71,984.18,33.75
81099,0.05,-0.01,0.99,1.89,3.72,1.46,984.12,33.75
81137,0.05,-0.01,0.99,2.01,3.66,1.46,984.16,33.76
81175,0.05,-0.01,0.99,2.01,3.78,1.53,984.18,33.75
81225,0.05,-0.01,0.99,1.95,3.66,1.71,984.25,33.75
81263,0.05,-0.01,0.99,2.01,3.6,1.83,984.22,33.76
81301,0.05,-0.01,0.99,2.08,3.66,1.59,984.2,33.76
81339,0.05,-0.01,0.99,2.2,3.54,1.59,984.19,33.75
81377,0.05,-0.01,0.99,2.08,3.78,1.71,984.26,33.76
81415,0.05,-0.01,0.99,2.08,3.78,1.53,984.25,33.76
81453,0.05,-0.01,0.99,2.01,3.78,1.65,984.24,33.76
81491,0.05,-0.01,0.99,2.14,3.72,1.65,984.13,33.75
81529,0.05,-0.01,0.99,2.14,3.78,1.65,984.21,33.76
81567,0.05,-0.01,0.99,2.01,3.6,1.83,984.17,33.76
81605,0.05,-0.01,0.99,1.95,3.66,1.53,984.16,33.77
81655,0.05,-0.01,0.99,2.08,3.66,1.65,984.18,33.76
81693,0.05,-0.01,0.98,2.01,3.6,1.65,984.18,33.76
81731,0.05,-0.01,0.99,2.01,3.6,1.65,984.17,33.76
81769,0.05,-0.01,0.99,2.2,3.48,1.59,984.22,33.76
81807,0.05,-0.01,0.99,2.08,3.48,1.71,984.15,33.76
81845,0.05,-0.01,0.99,2.01,3.54,1.77,984.21,33.77
81883,0.05,-0.01,0.99,2.2,3.6,1.71,984.26,33.78
81921,0.05,-0.01,0.99,2.01,3.6,1.71,984.19,33.76
81959,0.05,-0.01,0.99,2.08,3.72,1.65,984.21,33.77
81997,0.05,-0.01,0.99,2.01,3.6,1.71,984.21,33.77
82047,0.05,-0.01,0.99,2.08,3.54,1.53,984.23,33.76
82085,0.05,-0.01,0.99,2.08,3.6,1.53,984.17,33.77
82123,0.05,-0.01,0.99,2.01,3.66,1.53,984.14,33.77
82161,0.05,-0.01,0.99,1.95,3.6,1.59,984.18,33.78
82199,0.05,-0.01,0.99,2.14,3.78,1.59,984.13,33.76
82237,0.05,-0.01,0.99,1.95,3.66,1.53,984.21,33.77
82275,0.05,-0.01,0.99,2.14,3.66,1.65,984.19,33.78
82313,0.05,-0.01,0.99,2.08,3.78,1.65,984.22,33.78
82351,0.05,-0.01,0.99,2.14,3.66,1.71,984.21,33.77
82389,0.05,-0.01,0.99,1.95,3.66,1.65,984.2,33.77
82438,0.05,-0.01,0.99,2.2,3.85,1.53,984.15,33.76
82476,0.05,-0.01,0.98,1.95,3.66,1.53,984.2,33.78
82514,0.05,-0.01,0.99,2.01,3.72,1.65,984.19,33.76
82552,0.05,-0.01,0.99,2.01,3.6,1.59,984.19,33.76
82590,0.05,-0.01,0.99,2.08,3.66,1.65,984.16,33.78
82628,0.05,-0.01,0.99,2.14,3.6,1.53,984.15,33.78
82666,0.05,-0.01,0.99,2.14,3.42,1.65,984.24,33.78
82705,0.05,-0.01,0.99,2.14,3.6,1.59,984.22,33.78
82742,0.05,-0.01,0.99,2.01,3.66,1.53,984.2,33.78
82780,0.05,-0.01,0.99,2.14,3.78,1.53,984.19,33.77
82830,0.05,-0.01,0.99,1.95,3.48,1.71,984.16,33.76
82868,0.05,-0.01,0.99,2.08,3.66,1.65,984.17,33.79
82906,0.05,-0.01,0.99,2.01,3.6,1.59,984.16,33.76
82944,0.05,-0.01,0.99,2.14,3.48,1.46,984.21,33.79
82982,0.05,-0.01,0.99,2.08,3.78,1.53,984.22,33.78
83020,0.05,-0.01,0.99,2.14,3.54,1.53,984.18,33.78
83058,0.05,-0.01,0.99,1.95,3.66,1.65,984.21,33.8
83096,0.05,-0.01,0.99,2.08,3.66,1.53,984.15,33.79
83134,0.05,-0.01,0.99,2.08,3.54,1.59,984.16,33.79
83172,0.05,-0.01,0.99,2.08,3.6,1.46,984.21,33.8
83210,0.05,-0.01,0.99,2.01,3.6,1.59,984.18,33.78
83260,0.05,-0.01,0.99,2.08,3.85,1.59,984.15,33.77
83298,0.05,-0.01,0.99,2.08,3.48,1.46,984.17,33.78
83336,0.05,-0.01,0.99,2.08,3.6,1.59,984.18,33.79
83374,0.05,-0.01,0.99,2.08,3.6,1.59,984.2,33.79
83412,0.05,-0.01,0.99,2.01,3.66,1.4,984.23,33.78
83450,0.05,-0.01,0.99,1.95,3.72,1.65,984.23,33.79
83488,0.05,-0.01,0.99,1.95,3.6,1.65,984.21,33.78
83526,0.05,-0.01,0.98,2.14,3.72,1.53,984.22,33.79
83564,0.05,-0.01,0.99,2.01,3.85,1.71,984.22,33.78
83602,0.05,-0.01,0.99,2.2,3.66,1.59,984.18,33.79
83677,0.05,-0.01,0.99,2.08,3.78,1.59,984.22,33.75
83715,0.05,-0.01,0.99,2.08,3.66,1.59,984.22,33.77
83753,0.05,-0.01,0.99,1.95,3.66,1.53,984.15,33.78
83843,0.05,-0.01,0.99,2.08,3.6,1.53,984.23,33.75
83881,0.05,-0.01,0.99,2.01,3.54,1.65,984.21,33.77
83919,0.05,-0.01,0.99,1.95,3.6,1.71,984.16,33.76
83957,0.05,-0.01,0.99,2.14,3.6,1.53,984.17,33.78
83995,0.05,-0.01,0.99,2.01,3.72,1.77,984.26,33.79
84033,0.05,-0.01,0.99,1.95,3.78,1.53,984.2,33.78
84071,0.05,-0.01,0.99,1.95,3.72,1.53,984.24,33.78
84120,0.05,-0.01,0.99,2.08,3.72,1.71,984.24,33.76
84158,0.05,-0.01,0.99,2.08,3.72,1.71,984.21,33.79
84196,0.05,-0.01,0.99,2.01,3.66,1.65,984.21,33.78
84235,0.05,-0.01,0.99,2.01,3.66,1.53,984.2,33.78
84272,0.05,-0.01,0.99,2.08,3.54,1.59,984.24,33.79
84311,0.05,-0.01,0.99,2.08,3.72,1.65,984.18,33.78
84348,0.05,-0.01,0.98,2.14,3.66,1.77,984.15,33.79
84387,0.05,-0.01,0.99,1.89,3.54,1.65,984.18,33.79
84425,0.05,-0.01,0.99,2.14,3.66,1.53,984.19,33.8
84463,0.05,-0.01,0.99,2.01,3.48,1.65,984.16,33.79
84512,0.05,-0.01,0.99,2.01,3.6,1.65,984.22,33.79
84550,0.05,-0.01,0.99,1.89,3.54,1.59,984.19,33.79
84588,0.05,-0.01,0.99,2.08,3.66,1.59,984.16,33.79
84626,0.05,-0.01,0.99,2.14,3.66,1.59,984.16,33.78
84664,0.05,-0.01,0.98,2.08,3.72,1.59,984.21,33.79
84702,0.05,-0.01,0.99,2.01,3.72,1.77,984.22,33.79
84740,0.05,-0.01,0.99,2.01,3.66,1.65,984.21,33.8
84779,0.05,-0.01,0.99,2.01,3.85,1.77,984.21,33.8
84817,0.05,-0.01,0.98,2.2,3.72,1.65,984.21,33.8
84854,0.05,-0.01,0.99,2.08,3.66,1.65,984.19,33.81
84892,0.05,-0.01,0.99,2.01,3.66,1.65,984.2,33.8
84942,0.05,-0.01,0.99,2.08,3.72,1.65,984.14,33.77
84980,0.05,-0.01,0.98,2.08,3.72,1.65,984.21,33.8
85018,0.05,-0.01,0.99,2.01,3.6,1.59,984.21,33.81
85056,0.05,-0.01,0.99,2.14,3.54,1.53,984.22,33.81
85094,0.06,-0.01,0.99,2.08,3.6,1.71,984.3,33.81
85132,0.06,-0.01,0.98,2.01,3.54,1.53,984.23,33.8
85170,0.05,-0.01,0.99,1.89,3.54,1.53,984.18,33.8
85208,0.05,-0.01,0.98,1.95,3.72,1.65,984.23,33.81
85246,0.04,-0.01,0.99,1.89,3.48,1.59,984.22,33.8
85284,0.04,-0.01,0.99,2.14,3.6,1.77,984.13,33.8
85334,0.05,-0.01,0.99,2.08,3.72,1.53,984.16,33.78
85372,0.05,-0.01,0.98,1.95,3.66,1.59,984.23,33.79
85410,0.05,-0.01,0.98,2.01,3.72,1.46,984.24,33.81
85448,0.05,-0.01,0.99,2.2,3.48,1.46,984.19,33.8
85486,0.06,-0.01,0.99,2.01,3.78,1.53,984.21,33.81
85524,0.06,-0.01,0.99,2.01,3.72,1.59,984.25,33.81
85562,0.05,-0.01,0.99,2.14,3.66,1.53,984.22,33.81
85600,0.05,-0.01,0.99,2.14,3.6,1.53,984.22,33.81
85638,0.04,-0.01,0.99,2.2,3.78,1.59,984.18,33.81
85676,0.05,-0.02,0.98,2.14,3.72,1.65,984.14,33.81
85726,0.05,-0.01,0.99,2.01,3.78,1.71,984.23,33.8
85764,0.05,-0.01,0.99,2.14,3.42,1.65,984.24,33.81
85802,0.05,-0.01,0.99,1.83,3.66,1.71,984.17,33.8
85840,0.05,-0.01,0.98,1.89,3.66,1.59,984.24,33.82
85878,0.05,-0.01,0.98,2.14,3.6,1.46,984.17,33.8
85916,0.05,-0.01,0.98,2.14,3.66,1.59,984.19,33.81
85954,0.05,-0.01,0.99,2.08,3.6,1.65,984.22,33.82
85992,0.05,-0.01,0.99,2.01,3.54,1.71,984.2,33.8
86030,0.05,-0.01,0.99,2.01,3.6,1.53,984.18,33.82
86068,0.05,-0.01,0.99,2.14,3.6,1.65,984.19,33.82
86117,0.05,-0.01,0.99,2.14,3.66,1.59,984.14,33.8
86155,0.06,-0.01,0.99,2.08,3.6,1.46,984.2,33.81
86193,0.05,-0.01,0.98,2.14,3.72,1.65,984.27,33.82
86232,0.05,-0.01,0.99,2.08,3.66,1.65,984.19,33.81
86270,0.05,-0.01,0.99,1.95,3.66,1.53,984.27,33.82
86308,0.05,-0.01,0.99,2.14,3.66,1.71,984.22,33.82
86346,0.05,-0.01,0.99,2.01,3.72,1.65,984.27,33.83
86384,0.05,-0.01,0.99,1.95,3.72,1.77,984.21,33.81
86422,0.05,-0.01,0.99,2.08,3.42,1.71,984.21,33.81
86460,0.05,-0.01,0.99,2.2,3.78,1.59,984.26,33.82
86498,0.05,-0.01,0.99,2.14,3.78,1.65,984.16,33.82
86547,0.05,-0.01,0.99,2.08,3.48,1.59,984.19,33.79
86585,0.05,-0.01,0.99,2.08,3.54,1.53,984.17,33.81
86623,0.05,-0.01,0.99,2.08,3.66,1.71,984.19,33.81
86661,0.05,-0.01,0.99,2.08,3.72,1.53,984.24,33.82
86699,0.05,-0.01,0.98,2.08,3.72,1.59,984.19,33.81
86737,0.05,-0.01,0.99,2.08,3.6,1.59,984.17,33.81
86775,0.05,-0.01,0.99,2.14,3.72,1.53,984.22,33.82
86813,0.06,-0.01,0.99,2.08,3.85,1.71,984.25,33.82
86851,0.06,-0.01,0.99,1.95,3.66,1.71,984.24,33.83
86889,0.05,-0.01,0.99,2.01,3.85,1.59,984.19,33.82
86965,0.05,-0.01,0.99,2.14,3.85,1.65,984.17,33.8
87003,0.05,-0.01,0.99,1.95,3.78,1.59,984.22,33.81
87041,0.05,-0.01,0.99,2.14,3.66,1.77,984.21,33.81
87130,0.06,-0.0,0.99,2.08,3.72,1.53,984.22,33.78
87168,0.05,-0.01,0.99,2.01,3.78,1.65,984.17,33.8
87206,0.05,-0.01,0.99,2.08,3.54,1.71,984.2,33.8
87244,0.05,-0.01,0.99,2.08,3.66,1.59,984.19,33.81
87282,0.05,-0.01,0.99,2.08,3.66,1.59,984.21,33.81
87320,0.05,-0.01,0.99,2.01,3.6,1.53,984.18,33.8
87358,0.05,-0.01,0.99,2.01,3.66,1.71,984.23,33.81
87408,0.05,-0.01,0.99,2.08,3.6,1.59,984.19,33.8
87446,0.05,-0.01,0.98,2.08,3.66,1.65,984.17,33.8
87484,0.05,-0.01,0.99,2.08,3.72,1.65,984.25,33.82
87522,0.05,-0.01,0.99,1.95,3.72,1.65,984.19,33.82
87560,0.05,-0.01,0.99,1.89,3.85,1.53,984.21,33.81
87598,0.05,-0.01,0.99,2.01,3.6,1.65,984.22,33.82
87636,0.05,-0.01,0.98,2.01,3.72,1.53,984.16,33.82
87674,0.05,-0.01,0.99,1.95,3.72,1.65,984.23,33.84
87712,0.05,-0.01,0.99,2.08,3.72,1.71,984.16,33.81
87750,0.05,-0.01,0.98,1.95,3.72,1.59,984.15,33.82
87800,0.05,-0.0,0.99,2.01,3.66,1.46,984.24,33.82
87838,0.05,-0.0,0.99,1.89,3.6,1.59,984.19,33.82
87876,0.05,-0.01,0.99,1.95,3.54,1.59,984.22,33.82
87914,0.05,-0.01,0.99,2.14,3.66,1.59,984.22,33.83
87952,0.05,-0.01,0.98,2.14,3.6,1.53,984.21,33.83
87990,0.05,-0.01,0.99,2.01,3.6,1.71,984.16,33.83
88028,0.05,-0.01,0.99,2.08,3.66,1.59,984.19,33.84
88066,0.05,-0.01,0.99,2.08,3.6,1.65,984.23,33.84
88104,0.05,-0.01,0.99,2.14,3.6,1.71,984.18,33.83
88142,0.05,-0.01,0.99,2.08,3.54,1.59,984.16,33.82
88180,0.05,-0.01,0.99,2.08,3.6,1.53,984.2,33.82
88230,0.05,-0.01,0.98,2.2,3.78,1.59,984.19,33.82
88268,0.05,-0.01,0.99,1.95,3.66,1.59,984.19,33.82
88306,0.06,-0.01,0.99,2.14,3.72,1.65,984.19,33.84
88344,0.05,-0.01,0.99,1.95,3.66,1.71,984.18,33.83
88382,0.05,-0.01,0.99,1.95,3.66,1.77,984.22,33.83
88420,0.05,-0.01,0.98,2.01,3.72,1.71,984.17,33.84
88458,0.05,-0.01,0.99,1.95,3.78,1.59,984.22,33.84
88496,0.05,-0.01,0.99,2.01,3.85,1.71,984.18,33.84
88534,0.05,-0.01,0.99,2.14,3.78,1.46,984.19,33.84
88572,0.05,-0.01,0.99,2.01,3.66,1.59,984.17,33.84
88621,0.05,-0.01,0.99,2.14,3.66,1.53,984.21,33.82
88659,0.05,-0.01,0.99,2.08,3.6,1.65,984.16,33.83
88697,0.05,-0.01,0.98,2.01,3.6,1.77,984.21,33.84
88735,0.05,-0.01,0.99,2.01,3.72,1.59,984.22,33.83
88773,0.05,-0.01,0.99,1.95,3.66,1.77,984.17,33.84
88811,0.05,-0.01,0.99,2.01,3.78,1.65,984.23,33.84
88849,0.05,-0.01,0.98,2.08,3.72,1.65,984.25,33.84
88887,0.05,-0.01,0.98,1.89,3.72,1.59,984.16,33.84
88925,0.05,-0.01,0.99,2.01,3.6,1.53,984.18,33.85
88963,0.05,-0.01,0.98,2.08,3.6,1.71,984.26,33.86
89013,0.05,-0.01,0.98,2.2,3.85,1.46,984.24,33.84
89051,0.05,-0.01,0.99,2.2,3.78,1.59,984.23,33.84
89089,0.05,-0.01,0.99,2.08,3.6,1.59,984.15,33.84
89127,0.05,-0.01,0.99,2.08,3.6,1.71,984.15,33.84
89165,0.05,-0.01,0.98,2.08,3.54,1.65,984.19,33.86
89203,0.05,-0.01,0.98,1.95,3.54,1.59,984.2,33.85
89241,0.05,-0.01,0.99,2.08,3.85,1.59,984.16,33.84
89279,0.05,-0.01,0.99,2.01,3.66,1.65,984.13,33.83
89317,0.05,-0.01,0.99,2.01,3.66,1.59,984.26,33.86
89355,0.05,-0.01,0.99,2.08,3.48,1.59,984.17,33.86
89405,0.05,-0.01,0.99,2.08,3.6,1.59,984.2,33.84
89443,0.05,-0.01,0.98,2.01,3.6,1.53,984.23,33.84
89481,0.05,-0.01,0.99,2.08,3.66,1.59,984.16,33.84
89519,0.05,-0.01,0.99,1.95,3.66,1.65,984.2,33.85
89557,0.05,-0.01,0.99,2.14,3.78,1.83,984.21,33.85
89595,0.05,-0.01,0.99,2.14,3.6,1.59,984.18,33.85
89633,0.05,-0.01,0.99,1.95,3.72,1.65,984.16,33.85
89671,0.05,-0.01,0.98,2.08,3.6,1.65,984.23,33.84
89709,0.05,-0.01,0.99,2.08,3.66,1.65,984.19,33.86
89747,0.05,-0.01,0.99,2.01,3.42,1.65,984.22,33.85
89785,0.05,-0.01,0.99,2.01,3.78,1.59,984.18,33.85
89835,0.05,-0.01,0.99,2.14,3.66,1.71,984.18,33.84
89873,0.05,-0.01,0.99,2.01,3.54,1.59,984.22,33.84
89911,0.05,-0.01,0.99,2.01,3.66,1.71,984.14,33.84
89949,0.05,-0.01,0.98,1.95,3.72,1.59,984.16,33.84
89987,0.05,-0.01,0.99,1.95,3.78,1.65,984.2,33.84
90025,0.05,-0.01,0.99,1.95,3.66,1.53,984.18,33.84
90063,0.05,-0.01,0.99,2.08,3.6,1.71,984.17,33.84
90101,0.05,-0.01,0.99,2.01,3.54,1.65,984.21,33.84
90139,0.05,-0.01,0.98,2.08,3.78,1.65,984.2,33.85
90177,0.05,-0.01,0.99,2.01,3.78,1.53,984.23,33.85
90252,0.05,-0.01,0.98,2.01,3.66,1.59,984.23,33.82
90290,0.05,-0.01,0.98,2.14,3.78,1.59,984.19,33.82
90328,0.05,-0.01,0.98,2.14,3.66,1.59,984.24,33.84
90417,0.06,-0.01,0.99,1.95,3.72,1.53,984.15,33.79
90455,0.05,-0.01,0.99,2.01,3.6,1.59,984.2,33.82
90493,0.05,-0.01,0.99,2.14,3.66,1.46,984.18,33.81
90531,0.04,-0.01,0.98,2.08,3.85,1.53,984.22,33.83
90569,0.05,-0.01,0.99,2.01,3.66,1.65,984.19,33.83
90607,0.05,-0.01,0.98,2.08,3.85,1.59,984.18,33.82
90645,0.05,-0.01,0.99,2.08,3.48,1.59,984.24,33.83
90695,0.05,-0.01,0.99,2.2,3.66,1.65,984.21,33.84
90733,0.05,-0.01,0.99,2.14,3.72,1.83,984.22,33.83
90771,0.05,-0.01,0.98,2.08,3.6,1.59,984.15,33.83
90809,0.04,-0.0,0.98,2.01,3.78,1.77,984.19,33.82
90847,0.06,-0.01,0.99,2.14,3.78,1.71,984.19,33.81
90885,0.03,-0.01,0.98,2.08,3.54,1.53,984.22,33.85
90923,-0.01,-0.01,0.98,2.01,3.54,1.59,984.19,33.84
90961,0.08,-0.01,0.99,2.14,3.6,1.65,984.13,33.82
90999,0.07,-0.01,0.98,1.95,4.03,1.65,984.22,33.84
91037,0.06,-0.01,0.99,1.83,3.66,1.83,984.19,33.84
91087,0.06,-0.01,0.99,2.01,3.6,1.65,984.15,33.83
91125,0.04,-0.01,0.98,1.83,3.66,1.71,984.2,33.83
91163,0.05,-0.01,1.04,1.95,3.6,1.53,984.21,33.84
91201,0.05,-0.02,0.99,2.14,3.66,1.71,984.16,33.82
91239,0.06,-0.01,1.02,2.26,3.54,1.59,984.13,33.82
91277,0.08,-0.02,0.98,2.08,3.85,1.53,984.19,33.82
91315,0.08,-0.02,1.0,1.95,3.78,1.59,984.21,33.83
91353,0.06,-0.01,0.99,2.01,3.54,1.59,984.22,33.84
91391,0.04,-0.01,0.98,1.95,3.54,1.65,984.23,33.83
91429,0.05,-0.01,0.99,1.95,3.72,1.71,984.18,33.83
91479,0.04,-0.01,0.99,2.08,3.6,1.53,984.19,33.82
91517,0.05,-0.0,0.99,1.89,3.6,1.65,984.14,33.82
91555,0.05,-0.0,0.99,2.01,3.72,1.65,984.19,33.82
91593,0.05,-0.0,0.99,1.83,3.48,1.65,984.17,33.81
91631,0.05,-0.01,0.98,2.01,3.6,1.65,984.14,33.81
91669,0.05,-0.01,0.98,2.01,3.72,1.53,984.19,33.82
91707,0.05,-0.01,0.98,2.14,3.54,1.53,984.19,33.82
91745,0.05,-0.01,0.99,2.01,3.66,1.59,984.21,33.82
91783,0.05,-0.01,0.99,2.01,3.54,1.59,984.24,33.82
91821,0.05,-0.01,0.98,1.95,3.66,1.65,984.2,33.83
91859,0.05,-0.01,0.99,2.08,3.72,1.53,984.2,33.82
91909,0.05,-0.01,0.99,2.08,3.48,1.59,984.17,33.81
91947,0.06,-0.01,0.99,2.14,3.72,1.53,984.18,33.82
91985,0.05,-0.01,0.99,2.01,3.72,1.59,984.21,33.82
92023,0.05,-0.01,0.99,2.01,3.54,1.71,984.16,33.8
92061,0.05,-0.01,0.99,1.95,3.6,1.71,984.23,33.81
92099,0.05,-0.01,0.98,2.08,3.66,1.46,984.18,33.82
92137,0.05,-0.0,0.98,2.01,3.72,1.71,984.21,33.81
92175,0.05,-0.0,0.98,1.95,3.72,1.65,984.18,33.82
92213,0.05,-0.01,0.99,2.2,3.66,1.53,984.17,33.82
92251,0.04,-0.01,0.98,2.14,3.78,1.59,984.21,33.83
92300,0.05,-0.01,0.99,1.95,3.66,1.65,984.22,33.81
92338,0.05,-0.01,0.98,2.01,3.48,1.65,984.2,33.82
92376,0.05,-0.01,0.99,2.08,3.66,1.65,984.22,33.82
92414,0.04,-0.01,0.98,2.08,3.6,1.71,984.15,33.82
92452,0.05,-0.01,0.98,1.95,3.6,1.53,984.15,33.82
92490,0.04,-0.01,0.98,1.89,3.72,1.65,984.21,33.82
92529,0.05,-0.01,0.98,2.01,3.54,1.59,984.16,33.82
92567,0.06,-0.01,0.99,1.95,3.6,1.53,984.16,33.81
92604,0.06,-0.01,0.98,1.89,3.54,1.46,984.15,33.82
92643,0.06,-0.01,0.99,2.01,3.72,1.71,984.21,33.83
92692,0.05,-0.01,0.99,2.08,3.78,1.53,984.19,33.81
92730,0.05,-0.01,0.99,1.83,3.66,1.65,984.17,33.82
92768,0.05,-0.01,0.99,1.89,3.72,1.77,984.2,33.82
92806,0.05,-0.01,0.98,1.95,3.66,1.59,984.17,33.83
92844,0.05,-0.01,0.98,2.08,3.66,1.53,984.11,33.82
92882,0.05,-0.01,0.98,2.2,3.78,1.53,984.19,33.84
92920,0.05,-0.01,0.99,2.14,3.66,1.65,984.22,33.84
92958,0.05,-0.01,0.98,1.89,3.66,1.59,984.19,33.84
92996,0.05,-0.01,0.99,2.08,3.48,1.53,984.18,33.84
93034,0.05,-0.01,0.98,2.08,3.66,1.59,984.21,33.84
93084,0.05,-0.01,0.99,2.14,3.78,1.59,984.24,33.82
93122,0.05,-0.01,0.98,2.08,3.66,1.65,984.22,33.83
93160,0.05,-0.01,0.98,2.08,3.6,1.53,984.2,33.84
93198,0.05,-0.01,0.98,2.14,3.66,1.46,984.14,33.83
93236,0.05,-0.01,0.99,2.08,3.54,1.65,984.2,33.85
93274,0.06,-0.01,0.99,2.08,3.66,1.53,984.24,33.85
93312,0.05,-0.01,0.98,2.01,3.72,1.83,984.15,33.84
93350,0.04,-0.01,0.98,2.01,3.78,1.46,984.19,33.84
93388,0.05,-0.01,0.99,2.14,3.78,1.59,984.19,33.84
93426,0.05,-0.01,0.98,2.01,3.78,1.71,984.23,33.84
93464,0.05,-0.01,0.98,1.83,3.66,1.53,984.16,33.83
93541,0.05,-0.01,0.99,2.14,3.66,1.71,984.16,33.81
93579,0.05,-0.01,0.99,2.08,3.66,1.65,984.22,33.83
93617,0.05,-0.01,0.99,1.95,3.72,1.65,984.21,33.83
93707,0.05,-0.01,0.98,2.14,3.85,1.53,984.23,33.8
93745,0.05,-0.01,0.99,2.01,3.6,1.65,984.19,33.82
93783,0.05,-0.01,0.98,2.14,3.66,1.71,984.26,33.82
93821,0.05,-0.01,0.99,2.01,3.78,1.59,984.15,33.82
93859,0.05,-0.01,0.99,2.01,3.66,1.59,984.15,33.83
93897,0.05,-0.01,0.99,1.95,3.54,1.77,984.23,33.83
93935,0.05,-0.01,0.99,1.83,3.72,1.71,984.21,33.85
93985,0.05,-0.01,0.98,2.08,3.78,1.65,984.18,33.81
94023,0.05,-0.01,0.98,2.2,3.6,1.53,984.19,33.83
94061,0.05,-0.01,0.99,2.14,3.97,1.53,984.14,33.84
94099,0.05,-0.01,0.99,2.08,3.78,1.59,984.22,33.83
94137,0.05,-0.0,0.99,2.08,3.6,1.59,984.17,33.84
94175,0.05,0.0,0.99,2.08,3.72,1.65,984.22,33.84
94213,0.06,-0.01,0.99,2.01,3.48,1.46,984.21,33.85
94251,0.06,-0.01,0.99,2.01,3.91,1.46,984.09,33.83
94289,0.05,-0.01,0.98,1.95,3.91,1.53,984.18,33.84
94327,0.05,-0.01,0.99,1.89,3.66,1.53,984.17,33.85
94376,0.05,-0.01,0.99,2.08,3.72,1.59,984.16,33.84
94414,0.05,-0.01,0.98,1.95,3.6,1.59,984.21,33.84
94452,0.05,-0.01,0.99,2.08,3.72,1.65,984.23,33.84
94490,0.05,-0.01,0.98,2.14,3.72,1.46,984.21,33.84
94529,0.05,-0.01,0.99,2.01,3.85,1.46,984.19,33.85
94567,0.05,-0.01,0.99,2.14,3.54,1.65,984.18,33.84
94604,0.05,-0.01,0.98,2.08,3.6,1.71,984.18,33.86
94642,0.05,-0.01,0.99,2.14,3.72,1.59,984.17,33.85
94680,0.05,-0.01,0.98,2.2,3.72,1.65,984.18,33.86
94719,0.05,-0.01,0.99,2.08,3.6,1.53,984.16,33.86
94768,0.05,-0.01,0.98,1.95,3.91,1.65,984.18,33.86
94806,0.05,-0.0,0.99,2.14,3.66,1.71,984.16,33.85
94844,0.05,-0.01,0.98,2.08,3.78,1.65,984.23,33.86
94882,0.05,-0.01,0.99,2.08,3.78,1.65,984.29,33.86
94920,0.05,-0.01,0.99,2.01,3.78,1.59,984.21,33.85
94958,0.05,-0.01,0.99,2.14,3.78,1.53,984.2,33.85
94996,0.05,-0.01,0.99,2.01,3.72,1.46,984.25,33.87
95034,0.05,-0.01,0.99,2.08,3.66,1.71,984.22,33.86
95072,0.05,-0.01,0.98,2.01,3.72,1.59,984.22,33.86
95110,0.05,-0.01,0.99,2.14,3.72,1.46,984.17,33.85
95148,0.05,-0.01,0.98,2.26,3.78,1.65,984.21,33.86
95198,0.05,-0.01,0.99,2.01,3.6,1.77,984.27,33.86
95236,0.05,-0.01,0.99,2.08,3.72,1.46,984.2,33.86
95274,0.05,-0.01,0.99,2.08,3.72,1.71,984.22,33.85
95312,0.05,-0.01,0.99,1.95,3.66,1.71,984.15,33.86
95350,0.05,-0.01,0.99,2.01,3.72,1.65,984.18,33.85
95388,0.05,-0.01,0.99,2.08,3.78,1.53,984.15,33.86
95426,0.05,-0.01,0.98,2.14,3.85,1.59,984.23,33.87
95464,0.05,-0.01,0.99,2.26,3.66,1.46,984.17,33.86
95502,0.05,-0.01,0.99,2.01,3.6,1.53,984.19,33.87
95540,0.05,-0.01,0.98,2.01,3.78,1.53,984.12,33.86
95590,0.05,-0.01,0.98,1.89,3.72,1.53,984.18,33.85
95628,0.05,-0.01,0.99,1.95,3.6,1.53,984.17,33.86
95666,0.05,-0.01,0.99,2.08,3.91,1.77,984.19,33.86
95704,0.05,-0.01,0.99,2.08,3.6,1.65,984.22,33.86
95742,0.05,-0.01,0.98,1.95,3.78,1.65,984.19,33.87
95780,0.05,-0.01,0.99,1.95,3.66,1.71,984.13,33.85
95818,0.05,-0.01,0.99,2.14,3.66,1.46,984.2,33.86
95856,0.05,-0.01,0.99,2.01,3.66,1.59,984.22,33.88
95894,0.05,-0.01,0.99,2.08,3.6,1.59,984.16,33.88
95932,0.05,-0.01,0.98,2.08,3.54,1.53,984.23,33.86
95981,0.05,-0.01,0.99,2.08,3.6,1.65,984.21,33.86
96019,0.05,-0.01,0.99,2.01,3.72,1.65,984.24,33.87
96057,0.06,-0.01,0.99,1.95,3.66,1.59,984.24,33.88
96095,0.05,-0.01,0.98,1.95,3.54,1.65,984.09,33.86
96133,0.05,-0.01,0.99,1.95,3.66,1.65,984.16,33.87
96171,0.05,-0.01,0.98,2.08,3.66,1.59,984.15,33.87
96209,0.05,-0.01,0.98,1.95,3.72,1.65,984.19,33.87
96247,0.05,-0.01,0.99,1.95,3.66,1.71,984.18,33.86
96285,0.05,-0.01,0.99,1.95,3.66,1.65,984.22,33.88
96323,0.05,-0.01,0.99,2.2,3.72,1.59,984.19,33.87
96373,0.05,-0.01,0.98,2.08,3.54,1.71,984.19,33.86
96411,0.05,-0.01,0.99,2.01,3.66,1.71,984.23,33.88
96449,0.05,-0.01,0.99,2.08,3.78,1.71,984.25,33.87
96487,0.05,-0.01,0.99,1.95,3.72,1.59,984.23,33.88
96525,0.05,-0.01,0.99,1.83,3.54,1.53,984.23,33.88
96563,0.05,-0.01,0.99,2.08,3.54,1.65,984.16,33.87
96601,0.05,-0.01,0.99,2.08,3.54,1.53,984.16,33.88
96639,0.05,-0.01,0.99,2.14,3.78,1.59,984.21,33.88
96677,0.05,-0.01,0.98,2.01,3.6,1.59,984.17,33.87
96715,0.05,-0.01,0.99,2.01,3.66,1.59,984.15,33.88
96753,0.05,-0.01,0.98,2.08,3.66,1.83,984.14,33.87
96880,0.05,-0.01,0.99,2.26,3.48,1.53,984.24,33.83
96918,0.05,-0.01,0.98,2.01,3.6,1.53,984.15,33.82
96956,0.05,-0.01,0.99,2.14,3.78,1.65,984.23,33.85
97046,0.05,-0.01,0.99,2.01,3.72,1.65,984.13,33.82
97084,0.05,-0.01,0.99,2.2,3.85,1.65,984.2,33.83
97122,0.05,-0.01,0.98,2.01,3.72,1.53,984.25,33.85
97160,0.05,-0.01,0.99,2.08,3.54,1.59,984.25,33.86
97198,0.05,-0.01,0.98,2.01,3.72,1.59,984.19,33.86
97236,0.05,-0.01,0.99,2.08,3.6,1.59,984.21,33.88
97274,0.05,-0.01,0.99,1.95,3.66,1.59,984.25,33.87
97324,0.05,-0.01,0.99,2.01,3.66,1.59,984.2,33.85
97362,0.06,-0.01,0.99,2.2,3.48,1.77,984.15,33.86
97400,0.05,-0.01,0.98,2.2,3.42,1.59,984.14,33.86
97438,0.05,-0.01,0.99,2.2,3.85,1.65,984.15,33.85
97476,0.05,-0.01,0.98,2.01,3.72,1.65,984.23,33.88
97514,0.04,-0.01,0.99,1.95,3.72,1.77,984.21,33.86
97552,0.05,-0.01,0.98,2.08,3.6,1.53,984.25,33.88
97590,0.05,-0.01,0.99,2.01,3.66,1.71,984.2,33.87
97628,0.05,-0.01,0.98,2.01,3.66,1.65,984.18,33.86
97666,0.06,-0.01,0.99,2.08,3.72,1.65,984.15,33.89
97716,0.05,-0.01,0.98,2.2,3.78,1.65,984.19,33.86
97754,0.06,-0.01,1.0,1.95,3.72,1.77,984.14,33.86
97792,0.05,-0.01,0.98,2.01,3.97,1.59,984.13,33.87
97830,0.04,0.0,0.98,1.95,3.72,1.59,984.16,33.88
97868,0.04,-0.01,0.98,2.01,3.66,1.4,984.2,33.88
97906,0.05,-0.01,0.98,2.14,3.85,1.53,984.28,33.88
97944,0.06,-0.01,0.98,1.95,3.66,1.65,984.22,33.87
97982,0.05,-0.01,0.99,2.08,3.66,1.65,984.21,33.89
98020,0.05,-0.01,0.99,2.08,3.54,1.59,984.24,33.88
98058,0.05,-0.01,0.98,1.95,3.72,1.65,984.22,33.9
98107,0.05,-0.01,0.99,2.01,3.66,1.59,984.16,33.88
98145,0.05,-0.01,0.99,1.83,3.72,1.59,984.17,33.88
98184,0.05,-0.01,0.99,2.14,3.78,1.53,984.25,33.89
98222,0.05,-0.01,0.98,1.89,3.72,1.59,984.21,33.88
98260,0.05,-0.01,0.99,2.14,3.66,1.53,984.19,33.88
98298,0.05,-0.01,0.99,2.14,3.54,1.71,984.23,33.9
98336,0.05,-0.01,0.99,2.08,3.85,1.77,984.21,33.89
98374,0.05,-0.01,0.98,2.14,3.78,1.59,984.16,33.88
98412,0.05,-0.01,0.99,2.2,3.6,1.71,984.2,33.89
98450,0.04,-0.01,0.99,1.95,3.72,1.77,984.24,33.89
98488,0.05,-0.01,0.99,2.01,3.78,1.46,984.23,33.89
98538,0.05,-0.01,0.98,1.95,3.72,1.65,984.15,33.88
