timestamp,acc_x,acc_y,acc_z,rot_x,rot_y,rot_z,qfe,temp
1852501,-0.09,0.16,1.06,-0.12,1.77,-0.49,984.43,35.41
1852539,-0.03,0.12,1.03,-1.22,3.72,0.06,984.35,35.4
1852577,0.0,0.15,1.09,-0.37,1.83,0.31,984.43,35.4
1852615,-0.04,0.17,1.03,-0.61,4.64,0.67,984.33,35.42
1852653,-0.08,0.15,1.02,0.18,2.14,1.04,984.37,35.42
1852703,-0.08,0.16,0.98,-0.61,5.74,1.4,984.36,35.4
1852741,-0.02,0.16,1.03,-0.67,2.14,1.59,984.45,35.41
1852779,-0.09,0.16,1.04,-0.98,2.08,2.32,984.4,35.4
1852817,0.01,0.16,1.08,-0.49,2.81,2.08,984.39,35.41
1852855,-0.02,0.19,1.16,0.31,4.39,2.44,984.44,35.42
1852893,-0.03,0.18,1.1,1.71,4.21,2.87,984.35,35.41
1852931,-0.08,0.16,1.06,3.3,2.62,3.05,984.45,35.42
1852969,-0.06,0.19,1.11,4.39,3.85,3.36,984.35,35.42
1853007,-0.03,0.16,1.1,5.98,3.78,3.78,984.38,35.41
1853045,-0.02,0.15,1.0,6.47,4.15,3.66,984.33,35.42
1853095,-0.01,0.15,0.94,7.32,3.72,3.97,984.35,35.41
1853133,-0.01,0.14,1.0,8.79,4.76,4.21,984.35,35.4
1853171,-0.02,0.14,0.96,9.34,2.93,4.7,984.38,35.41
1853209,-0.09,0.13,0.78,8.97,4.21,5.25,984.33,35.43
1853247,-0.02,0.14,0.8,8.91,3.6,4.94,984.34,35.42
1853285,0.01,0.15,0.82,7.87,4.94,4.58,984.34,35.43
1853323,0.01,0.1,0.71,6.77,3.3,4.82,984.3,35.41
1853361,0.01,0.11,0.76,5.55,5.07,5.0,984.34,35.42
1853399,-0.05,0.14,0.84,5.19,5.8,5.13,984.38,35.42
1853437,-0.02,0.09,0.76,3.36,3.91,5.49,984.36,35.42
1853487,-0.04,0.09,0.77,2.93,3.6,5.07,984.36,35.41
1853525,-0.01,0.09,0.81,2.44,4.88,4.7,984.39,35.42
1853563,0.03,0.08,0.85,1.89,3.05,4.88,984.39,35.43
1853601,-0.02,0.08,0.81,0.98,4.21,5.07,984.33,35.42
1853639,-0.01,0.09,0.81,0.61,3.48,4.94,984.34,35.42
1853677,0.0,0.07,0.94,-0.55,6.35,4.76,984.34,35.43
1853715,0.02,0.06,0.92,-1.53,4.39,4.82,984.38,35.43
1853753,-0.04,0.08,1.01,-1.16,2.81,4.58,984.3,35.42
1853791,0.01,0.07,1.02,-0.85,5.55,4.39,984.4,35.42
1853841,0.01,0.06,1.01,-0.79,3.97,4.39,984.29,35.42
1853879,-0.02,0.09,0.93,-1.89,4.33,4.64,984.35,35.42
1853917,-0.01,0.09,1.09,-1.22,3.23,4.58,984.31,35.43
1853955,0.01,0.08,1.13,-1.95,5.92,4.33,984.4,35.42
1853993,-0.03,0.09,1.1,-1.53,5.07,4.27,984.38,35.42
1854031,0.0,0.11,1.23,0.31,3.54,4.58,984.42,35.43
1854069,0.03,0.08,1.16,0.18,6.47,4.39,984.35,35.43
1854107,0.02,0.11,1.14,1.95,5.49,4.64,984.44,35.45
1854145,0.03,0.09,1.07,2.69,5.74,4.09,984.41,35.44
1854183,-0.03,0.1,1.07,3.72,4.88,4.15,984.42,35.44
1854233,-0.01,0.09,1.12,5.37,3.17,4.46,984.37,35.43
1854271,0.0,0.07,1.04,5.31,3.48,3.85,984.41,35.43
1854309,0.02,0.12,0.96,4.94,3.91,3.85,984.47,35.43
1854347,0.03,0.12,1.01,5.8,3.6,3.6,984.36,35.43
1854385,0.05,0.08,0.95,4.82,3.48,3.05,984.38,35.45
1854423,-0.02,0.08,0.89,4.7,3.6,3.11,984.31,35.44
1854461,0.0,0.08,0.86,3.78,3.17,2.99,984.37,35.43
1854499,-0.03,0.1,0.87,1.89,3.42,2.75,984.33,35.42
1854537,-0.02,0.1,0.88,1.04,2.69,2.75,984.36,35.44
1854575,0.03,0.1,0.95,-0.24,1.65,2.32,984.35,35.45
1854625,-0.01,0.09,0.97,-1.28,3.91,2.38,984.36,35.42
1854663,0.01,0.11,1.0,-1.95,2.81,2.32,984.38,35.43
1854701,0.01,0.14,1.03,-2.56,3.72,2.14,984.47,35.44
1854739,0.02,0.13,1.14,-2.38,2.44,2.5,984.45,35.44
1854777,-0.0,0.13,1.12,-2.56,4.03,1.53,984.48,35.44
1854815,-0.04,0.14,1.12,-1.77,3.66,1.4,984.46,35.44
1854853,0.04,0.12,1.12,-1.22,4.64,1.59,984.5,35.44
1854891,-0.01,0.14,1.07,-1.22,4.82,1.34,984.47,35.44
1854929,0.0,0.15,1.2,0.12,2.5,1.04,984.44,35.43
1854967,0.01,0.13,1.13,-0.37,4.09,1.34,984.4,35.42
1855017,-0.0,0.15,1.2,0.37,2.69,1.1,984.43,35.42
1855055,0.0,0.14,1.14,0.73,2.5,0.79,984.44,35.43
1855093,0.01,0.13,1.09,1.28,3.48,0.49,984.42,35.43
1855131,-0.06,0.15,1.14,2.01,0.31,0.31,984.44,35.43
1855169,-0.01,0.12,1.08,1.95,2.38,0.73,984.45,35.44
1855207,-0.04,0.13,1.07,2.32,1.28,0.06,984.45,35.45
1855245,-0.02,0.11,1.06,2.38,4.76,-0.06,984.39,35.44
1855283,-0.0,0.11,1.12,3.54,2.81,-0.12,984.39,35.44
1855321,-0.0,0.1,1.06,3.78,4.82,-0.24,984.37,35.44
1855359,-0.04,0.13,0.97,4.82,3.97,-0.31,984.41,35.44
1855435,-0.02,0.1,0.94,5.8,7.39,-0.24,984.36,35.4
1855473,-0.07,0.1,0.96,6.41,5.37,-0.18,984.4,35.43
1855511,-0.04,0.08,0.95,6.04,6.53,-0.24,984.42,35.43
1855600,-0.02,0.13,0.98,5.98,5.19,0.18,984.28,35.38
1855638,-0.01,0.06,0.74,4.27,9.4,0.12,984.43,35.41
1855677,-0.08,0.09,0.82,4.82,5.68,0.0,984.32,35.4
1855715,-0.06,0.1,0.92,3.48,5.37,0.85,984.32,35.42
1855753,-0.02,0.09,0.86,2.26,5.37,0.98,984.3,35.41
1855791,-0.05,0.1,0.92,1.95,4.09,0.85,984.3,35.42
1855829,0.01,0.08,0.95,1.1,2.56,0.98,984.28,35.42
1855879,0.01,0.07,0.96,0.12,4.39,1.28,984.29,35.4
1855917,-0.0,0.09,1.02,0.49,1.4,1.34,984.29,35.41
1855955,-0.06,0.06,0.9,-0.06,3.3,1.59,984.28,35.41
1855993,0.02,0.06,0.99,0.31,-0.24,1.4,984.27,35.4
1856031,-0.01,0.07,0.97,-0.79,1.53,1.04,984.29,35.41
1856069,-0.01,0.1,1.0,-0.92,0.61,1.1,984.31,35.42
1856107,0.01,0.06,1.02,-1.16,1.34,1.28,984.29,35.41
1856145,0.01,0.08,0.99,-1.16,0.18,0.73,984.3,35.43
1856183,-0.05,0.09,1.11,-0.49,-0.12,1.22,984.26,35.42
1856233,0.02,0.09,1.09,-0.73,1.4,0.79,984.31,35.42
1856271,-0.07,0.08,1.07,-0.49,1.65,0.67,984.37,35.43
1856309,0.04,0.07,1.14,-0.18,1.59,0.43,984.33,35.42
1856347,-0.01,0.06,1.05,-0.79,4.27,0.43,984.34,35.42
1856385,-0.02,0.08,1.11,0.67,3.54,0.55,984.35,35.43
1856423,-0.03,0.1,1.17,1.28,5.37,0.61,984.41,35.43
1856461,-0.01,0.07,1.05,0.49,5.31,0.73,984.36,35.42
1856499,-0.04,0.1,1.19,1.65,3.42,0.55,984.29,35.43
1856537,0.0,0.06,1.15,1.71,6.29,0.79,984.24,35.42
1856575,0.01,0.06,1.08,1.77,5.37,1.34,984.23,35.42
1856625,0.02,0.08,1.08,1.46,7.02,0.92,984.19,35.42
1856663,-0.1,0.08,1.1,2.08,5.92,1.53,984.22,35.42
1856701,0.02,0.09,1.17,1.95,6.65,1.46,984.14,35.43
1856739,-0.01,0.09,1.1,1.71,4.94,1.46,984.19,35.42
1856777,0.06,0.07,1.08,1.1,4.27,1.89,984.25,35.44
1856816,0.05,0.07,1.14,1.1,4.21,1.34,984.24,35.42
1856854,0.03,0.09,1.12,0.49,4.33,1.83,984.32,35.43
1856892,-0.01,0.06,1.09,0.43,2.56,2.14,984.2,35.43
1856930,-0.01,0.09,1.14,0.43,0.55,1.46,984.26,35.43
1856968,-0.03,0.1,1.1,-0.24,3.17,1.77,984.25,35.43
1857018,0.04,0.09,1.13,0.73,1.77,1.59,984.29,35.42
1857056,-0.01,0.09,1.07,0.43,1.59,2.2,984.2,35.43
1857094,0.04,0.1,1.13,0.61,-1.16,1.89,984.28,35.43
1857132,-0.03,0.1,1.08,0.79,2.44,1.46,984.26,35.42
1857170,-0.01,0.1,1.03,1.4,2.26,2.01,984.24,35.44
1857208,-0.01,0.08,1.06,1.46,0.43,1.34,984.21,35.43
1857246,-0.03,0.09,1.0,1.16,2.32,1.04,984.15,35.43
1857284,-0.01,0.11,1.11,1.71,1.53,1.34,984.22,35.44
1857322,0.02,0.09,0.99,0.98,3.42,1.1,984.14,35.43
1857360,-0.06,0.09,1.01,2.38,1.71,0.92,984.19,35.44
1857410,-0.03,0.08,0.96,2.26,4.03,1.4,984.09,35.42
1857448,-0.02,0.09,0.98,1.83,5.43,1.34,984.06,35.43
1857486,-0.04,0.1,0.99,2.14,4.46,1.16,984.04,35.43
1857524,-0.02,0.09,0.9,1.4,7.32,1.34,984.03,35.43
1857562,-0.01,0.08,1.0,1.71,7.45,1.28,984.03,35.45
1857600,-0.02,0.07,0.95,0.92,12.21,1.22,984.05,35.44
1857638,-0.03,0.1,0.94,1.04,10.74,1.28,984.0,35.44
1857676,-0.03,0.11,1.02,0.79,11.17,1.28,984.0,35.42
1857714,-0.01,0.07,0.97,0.12,12.63,1.22,984.01,35.44
1857752,-0.01,0.08,1.09,0.61,12.08,1.16,983.96,35.44
1857802,0.01,0.09,1.06,0.12,12.51,1.59,984.02,35.43
1857840,-0.04,0.12,1.16,0.73,11.47,1.89,984.05,35.43
1857878,-0.03,0.09,1.05,0.67,13.24,2.2,984.11,35.43
1857916,-0.04,0.1,1.17,1.83,9.77,2.32,984.1,35.44
1857955,-0.05,0.07,1.12,2.14,10.86,2.44,984.03,35.43
1857993,-0.03,0.08,1.1,2.56,9.64,2.62,984.05,35.43
1858031,-0.01,0.09,1.15,3.42,9.7,2.56,984.06,35.44
1858069,-0.0,0.1,1.11,3.78,6.65,2.56,984.06,35.44
1858107,-0.03,0.07,1.14,4.64,8.3,2.81,984.08,35.44
1858145,-0.01,0.07,0.99,4.58,6.47,2.81,983.98,35.43
1858195,-0.02,0.08,1.09,5.19,5.07,2.81,983.94,35.43
1858233,-0.0,0.07,0.95,4.82,4.03,2.87,983.89,35.44
1858271,0.0,0.08,1.06,5.55,0.73,2.81,983.85,35.43
1858309,0.02,0.06,0.94,4.64,1.53,2.81,983.84,35.44
1858347,-0.01,0.08,1.0,5.0,-1.1,2.75,983.77,35.44
1858385,-0.01,0.08,0.96,4.21,0.24,2.62,983.81,35.44
1858423,-0.02,0.07,0.93,4.33,-1.59,2.32,983.79,35.43
1858461,-0.02,0.07,0.89,3.72,-0.85,2.14,983.79,35.44
1858499,-0.0,0.06,0.97,4.46,-2.01,1.46,983.83,35.45
1858575,-0.01,0.09,0.96,4.33,-1.53,1.1,983.76,35.4
1858613,-0.01,0.06,0.88,3.91,1.16,0.79,983.81,35.42
1858651,-0.0,0.07,0.85,4.21,0.31,0.24,983.76,35.43
1858740,-0.02,0.06,0.83,3.91,1.4,-0.18,983.78,35.38
1858779,-0.01,0.09,0.81,3.6,2.08,-0.49,983.75,35.4
1858817,-0.0,0.07,0.86,3.11,2.44,-0.43,983.74,35.4
1858855,0.01,0.06,0.84,2.5,1.4,-0.37,983.76,35.43
1858893,-0.03,0.08,0.84,2.01,2.38,-0.67,983.73,35.42
1858931,-0.03,0.07,0.85,1.77,3.54,-0.92,983.76,35.42
1858969,-0.03,0.09,0.85,0.67,3.54,-0.85,983.76,35.43
1859019,-0.06,0.08,0.93,0.37,5.31,-1.22,983.73,35.41
1859057,0.0,0.06,0.9,-0.06,7.32,-1.34,983.75,35.42
1859095,-0.01,0.08,1.06,-0.06,5.74,-1.34,983.74,35.41
1859133,-0.06,0.07,1.0,-0.73,6.53,-0.92,983.7,35.41
1859171,-0.05,0.09,1.05,-0.37,4.94,-0.92,983.71,35.42
1859209,-0.02,0.1,1.08,-0.24,7.2,-0.98,983.83,35.42
1859247,-0.04,0.1,1.05,0.0,6.53,-0.85,983.77,35.42
1859285,-0.04,0.1,1.1,1.1,5.37,-1.1,983.78,35.42
1859323,-0.02,0.09,1.11,2.2,6.16,-1.1,983.8,35.45
1859361,-0.04,0.11,1.2,3.91,3.6,-0.67,983.79,35.44
1859411,-0.06,0.1,1.07,4.88,4.15,-0.61,983.68,35.41
1859449,-0.06,0.11,1.05,5.98,2.56,-0.73,983.63,35.42
1859487,-0.03,0.09,1.0,6.04,3.17,-1.04,983.62,35.42
1859525,-0.02,0.1,0.96,6.71,2.26,-0.92,983.65,35.43
1859563,-0.03,0.09,0.94,6.96,1.95,-0.79,983.65,35.43
1859601,-0.04,0.1,0.87,6.96,1.65,-0.79,983.64,35.43
1859639,-0.05,0.11,0.91,7.39,0.73,-0.73,983.6,35.44
1859677,-0.05,0.08,0.88,7.08,0.43,-0.61,983.56,35.43
1859715,-0.05,0.08,0.86,6.96,-0.73,-0.73,983.59,35.42
1859765,-0.04,0.1,0.84,7.2,0.12,-0.79,983.6,35.43
1859803,-0.03,0.09,0.8,7.14,-0.12,-0.73,983.52,35.43
1859841,-0.03,0.09,0.8,6.59,0.49,-0.61,983.63,35.44
1859879,-0.06,0.09,0.75,6.71,0.49,-0.67,983.5,35.42
1859917,-0.06,0.08,0.77,6.71,1.83,-0.61,983.58,35.43
1859955,-0.03,0.07,0.71,6.35,2.26,-0.79,983.52,35.43
1859993,-0.05,0.1,0.82,7.02,0.85,-0.55,983.59,35.42
1860031,-0.07,0.06,0.7,6.04,3.6,-0.12,983.52,35.42
1860069,-0.05,0.08,0.61,5.8,4.15,-0.06,983.61,35.42
1860108,-0.04,0.09,0.76,7.08,2.01,-0.12,983.51,35.42
1860157,-0.04,0.05,0.57,4.76,6.04,0.43,983.55,35.42
1860195,-0.03,0.08,0.65,5.31,4.46,0.0,983.53,35.42
1860233,-0.05,0.05,0.69,4.46,6.23,0.24,983.61,35.43
1860271,-0.01,0.03,0.66,3.3,7.26,0.55,983.62,35.42
1860309,-0.03,0.07,0.74,2.99,6.53,0.37,983.56,35.42
1860347,-0.04,0.05,0.74,2.32,9.4,0.67,983.62,35.44
1860385,-0.05,0.03,0.74,2.2,9.52,0.92,983.6,35.43
1860423,-0.06,0.05,0.85,2.14,6.35,1.04,983.56,35.44
1860461,-0.06,0.03,0.85,2.01,8.67,1.16,983.48,35.42
1860499,-0.02,0.05,0.83,1.16,9.4,1.71,983.58,35.44
1860549,-0.04,0.04,0.92,1.28,7.75,2.26,983.56,35.42
1860587,-0.05,0.03,0.83,0.24,6.29,2.38,983.54,35.42
1860625,-0.08,0.06,1.0,1.53,3.91,2.56,983.63,35.43
1860663,-0.03,0.01,0.95,0.61,6.59,2.99,983.57,35.42
1860701,0.0,0.04,0.99,1.16,2.62,3.05,983.6,35.44
1860739,-0.03,0.05,1.04,1.1,2.32,2.93,983.53,35.43
1860777,-0.02,0.01,0.94,0.73,1.83,3.36,983.54,35.43
1860815,-0.02,0.04,1.05,0.92,-0.43,3.3,983.56,35.44
1860853,-0.01,0.02,0.96,0.18,1.22,3.36,983.53,35.44
1860891,-0.01,0.02,1.0,0.49,-1.46,3.36,983.49,35.43
1860941,-0.02,0.02,0.97,-0.43,1.28,3.17,983.55,35.42
1860979,-0.04,0.04,0.97,-0.49,1.34,2.87,983.54,35.43
1861017,-0.03,0.02,1.06,-0.92,3.6,2.75,983.62,35.44
1861055,-0.02,0.0,0.99,-1.59,3.36,2.75,983.59,35.44
1861093,-0.05,0.03,1.1,-1.28,2.62,2.75,983.53,35.43
1861131,-0.03,0.03,1.04,-1.59,6.9,2.81,983.64,35.43
1861169,-0.01,0.04,1.13,-0.61,5.55,2.5,983.59,35.41
1861208,-0.03,0.03,1.15,-0.31,6.77,2.56,983.48,35.43
1861246,-0.04,0.02,1.1,0.37,5.68,2.93,983.57,35.43
1861295,-0.0,0.04,1.14,0.85,7.75,2.5,983.63,35.41
1861333,-0.03,0.04,1.17,1.53,5.13,2.69,983.59,35.42
1861371,-0.01,0.03,1.11,0.98,6.04,2.81,983.6,35.43
1861410,-0.02,0.06,1.11,1.4,5.25,2.62,983.61,35.44
1861448,-0.01,0.05,1.16,1.65,4.82,2.5,983.51,35.43
1861486,-0.02,0.05,1.03,0.67,4.82,2.56,983.56,35.42
1861524,-0.02,0.08,1.18,1.16,1.22,2.81,983.56,35.42
1861562,0.0,0.05,1.1,0.31,3.17,2.38,983.57,35.42
1861600,-0.01,0.07,1.12,0.24,1.04,2.2,983.58,35.43
1861638,-0.01,0.07,1.18,-0.24,1.59,2.14,983.63,35.43
1861714,-0.02,0.07,1.17,-0.18,0.73,1.83,983.53,35.4
1861752,-0.04,0.07,1.14,-0.37,1.71,1.71,983.55,35.42
1861790,-0.04,0.08,1.15,-0.18,-0.12,1.53,983.6,35.42
1861954,-0.04,0.07,1.11,1.65,0.55,0.92,983.61,35.35
1861992,-0.03,0.08,1.11,1.59,0.79,0.79,983.53,35.37
1862030,-0.03,0.09,1.11,1.77,0.92,0.79,983.53,35.38
1862068,-0.03,0.07,1.1,1.95,1.71,0.43,983.51,35.38
1862106,-0.01,0.08,1.11,2.32,1.34,0.24,983.55,35.38
1862144,-0.01,0.08,1.07,2.26,3.23,0.31,983.51,35.39
1862182,-0.04,0.09,1.08,2.93,2.56,0.37,983.57,35.4
1862231,-0.03,0.07,1.03,2.81,5.0,0.31,983.54,35.4
1862269,-0.03,0.08,1.07,3.05,3.23,0.06,983.56,35.4
1862308,-0.04,0.07,1.05,3.23,3.85,-0.06,983.55,35.4
1862346,-0.01,0.08,1.01,2.93,3.85,0.12,983.5,35.4
1862384,-0.0,0.08,1.13,3.6,2.81,-0.12,983.57,35.4
1862422,-0.02,0.06,1.0,3.11,4.09,-0.06,983.55,35.41
1862460,-0.04,0.05,1.07,4.09,2.69,-0.18,983.52,35.4
1862498,-0.03,0.06,1.0,3.48,5.31,-0.18,983.52,35.42
1862536,-0.04,0.06,1.02,4.21,3.11,-0.37,983.53,35.42
1862574,-0.02,0.06,0.93,3.48,4.21,-0.31,983.46,35.41
1862624,-0.02,0.05,0.94,3.66,3.97,-0.49,983.48,35.4
1862662,-0.01,0.04,0.93,3.6,5.31,-0.67,983.47,35.42
1862700,-0.04,0.06,0.99,3.48,3.85,-0.55,983.4,35.41
1862738,-0.05,0.05,0.95,2.93,4.58,-0.37,983.46,35.43
1862776,-0.06,0.05,0.95,2.5,5.19,-0.55,983.4,35.42
1862814,-0.05,0.04,0.98,2.26,4.76,-0.49,983.43,35.43
1862852,-0.03,0.03,0.91,1.22,5.43,-0.55,983.45,35.43
1862890,-0.04,0.05,0.92,1.46,4.15,-0.43,983.45,35.43
1862928,-0.04,0.05,0.92,0.98,4.46,0.06,983.42,35.42
1862977,-0.06,0.04,0.95,0.37,3.54,0.0,983.42,35.41
1863015,-0.09,0.04,1.01,0.67,2.32,0.37,983.39,35.42
1863053,-0.06,0.02,1.03,-0.06,2.99,0.49,983.38,35.43
1863091,-0.04,0.04,1.1,0.49,2.2,0.43,983.35,35.42
1863130,-0.06,0.04,1.03,0.18,3.78,0.92,983.36,35.44
1863168,-0.06,0.05,1.07,1.22,2.75,1.16,983.36,35.43
1863206,-0.05,0.03,1.02,1.04,4.27,1.28,983.38,35.44
1863244,-0.06,0.05,1.02,1.53,1.71,1.65,983.37,35.43
1863282,-0.09,0.05,1.08,1.95,3.66,2.08,983.36,35.44
1863320,-0.04,0.04,1.01,1.77,4.21,2.08,983.41,35.44
1863369,-0.06,0.05,1.1,2.2,4.7,2.38,983.38,35.42
1863407,-0.06,0.03,1.01,2.32,4.46,2.69,983.4,35.43
1863445,-0.05,0.05,1.08,2.62,4.58,2.87,983.39,35.42
1863483,-0.05,0.05,0.95,2.08,5.8,3.17,983.36,35.43
1863522,-0.06,0.06,1.04,3.36,2.08,3.54,983.41,35.44
1863560,-0.05,0.04,1.0,2.56,5.55,3.66,983.39,35.44
1863598,-0.02,0.07,0.97,2.32,1.83,4.15,983.4,35.44
1863636,-0.05,0.06,1.08,4.03,0.67,4.09,983.34,35.43
1863674,-0.03,0.04,0.82,1.22,3.3,4.33,983.33,35.42
1863712,-0.03,0.1,1.09,4.15,-1.4,4.58,983.35,35.41
1863761,-0.01,0.03,0.85,0.79,3.3,5.13,983.29,35.41
1863800,-0.06,0.07,1.03,3.78,-2.38,5.13,983.37,35.42
1863838,-0.03,0.05,0.89,1.34,2.75,5.37,983.36,35.43
1863876,-0.01,0.09,1.05,2.56,-1.89,5.13,983.33,35.43
1863914,-0.06,0.06,0.97,1.89,2.44,5.55,983.34,35.44
1863952,-0.03,0.06,0.96,1.89,1.1,5.49,983.4,35.45
1863990,-0.02,0.07,1.04,2.01,2.44,5.62,983.26,35.43
1864028,-0.03,0.08,0.94,1.34,4.82,5.8,983.32,35.43
1864066,-0.08,0.09,1.03,2.38,5.86,5.86,983.23,35.42
1864104,-0.02,0.07,1.0,1.95,8.18,6.16,983.29,35.44
1864154,-0.02,0.09,1.13,3.17,6.29,6.16,983.21,35.42
1864192,-0.04,0.07,1.03,2.93,7.87,6.71,983.29,35.42
1864230,-0.03,0.09,1.08,4.27,6.77,6.65,983.28,35.42
1864268,-0.02,0.08,1.04,4.58,8.12,7.02,983.28,35.43
1864306,-0.04,0.07,1.05,5.62,5.86,7.08,983.29,35.43
1864344,-0.02,0.06,1.05,5.68,7.93,7.2,983.3,35.43
1864382,-0.01,0.06,0.99,6.41,7.57,7.2,983.26,35.43
1864420,-0.04,0.07,1.01,7.32,6.59,7.63,983.32,35.45
1864458,0.0,0.05,0.87,7.26,7.69,7.87,983.24,35.44
1864496,-0.01,0.07,0.81,7.51,5.19,7.69,983.26,35.44
1864546,0.01,0.05,0.71,7.32,6.04,7.69,983.12,35.43
1864584,0.06,0.03,0.7,7.14,3.17,7.51,983.15,35.42
1864622,-0.02,0.04,0.69,6.84,3.17,7.57,983.16,35.43
1864660,0.02,0.05,0.65,6.35,3.36,7.45,983.06,35.43
1864698,0.03,0.04,0.76,6.16,2.01,7.26,982.98,35.43
1864736,0.01,0.01,0.64,4.52,3.72,7.08,983.01,35.44
1864774,0.06,0.04,0.72,4.52,1.77,6.47,982.97,35.43
1864812,0.03,0.02,0.73,4.39,3.6,5.86,983.01,35.44
1864850,-0.01,0.02,0.56,2.38,2.5,5.92,983.0,35.44
1864888,0.01,0.05,0.77,3.36,0.73,5.62,982.98,35.43
1864964,0.01,0.01,0.81,2.32,3.66,4.58,982.99,35.41
1865002,0.04,-0.0,0.73,0.79,7.81,4.27,983.01,35.42
1865040,0.05,0.02,0.83,1.95,6.47,3.54,983.01,35.43
1865129,0.04,0.01,0.89,2.38,6.96,2.69,982.99,35.39
1865167,0.05,-0.02,0.81,0.98,11.17,2.08,982.97,35.4
1865205,0.05,-0.0,0.95,2.56,7.26,1.53,982.95,35.4
1865243,0.05,-0.02,0.88,1.53,12.15,1.22,983.0,35.42
1865281,0.04,-0.01,0.92,2.2,8.73,0.79,983.01,35.43
1865319,0.06,-0.0,0.99,2.14,10.25,0.37,982.99,35.41
1865357,0.04,-0.02,0.85,1.59,11.11,0.0,983.05,35.41
1865407,0.03,-0.01,0.98,2.08,9.09,-0.24,982.95,35.39
1865445,0.06,-0.01,0.94,1.22,7.45,-0.49,983.04,35.42
1865483,0.02,-0.0,1.03,1.59,3.72,-0.73,983.04,35.42
1865521,0.03,-0.03,0.83,-0.12,6.71,-1.1,983.01,35.42
1865559,0.04,0.01,0.93,0.85,3.17,-1.65,983.12,35.42
1865597,0.04,0.0,0.87,0.12,4.7,-2.08,983.07,35.41
1865635,0.02,-0.0,0.81,0.55,4.21,-2.38,983.01,35.42
1865673,-0.01,0.01,0.95,1.34,3.6,-2.69,983.05,35.42
1865711,0.01,-0.01,0.87,0.43,5.13,-2.93,983.03,35.43
1865761,-0.02,0.03,1.02,1.22,2.14,-3.11,983.05,35.42
1865799,0.02,0.0,0.94,0.43,5.25,-3.48,983.07,35.44
1865837,-0.01,0.01,0.95,1.04,3.05,-4.03,983.02,35.41
1865875,-0.0,0.02,0.98,0.61,3.72,-4.03,983.04,35.43
1865913,0.01,0.02,0.96,0.37,3.05,-3.85,983.05,35.44
1865951,-0.02,0.03,0.94,-0.73,3.6,-4.27,983.04,35.43
1865989,-0.03,0.04,0.99,-0.92,2.62,-4.39,983.03,35.43
1866027,-0.05,0.02,1.01,-1.77,3.48,-4.58,983.02,35.42
1866065,-0.03,0.03,1.04,-2.2,2.5,-4.7,983.02,35.43
1866103,-0.06,0.05,1.08,-2.5,3.11,-4.7,983.05,35.43
1866153,-0.08,0.05,1.09,-2.56,2.26,-4.03,983.07,35.42
1866191,-0.06,0.04,1.09,-2.75,3.72,-4.15,983.07,35.43
1866229,-0.06,0.04,1.16,-2.26,2.93,-4.15,983.04,35.42
1866267,-0.09,0.05,1.18,-2.26,3.23,-3.72,983.08,35.43
1866305,-0.1,0.05,1.19,-1.95,2.2,-3.6,983.06,35.43
1866343,-0.06,0.06,1.2,-1.53,2.56,-3.42,983.03,35.43
1866381,-0.06,0.04,1.16,-1.34,3.36,-3.23,983.07,35.42
1866419,-0.08,0.07,1.2,-0.85,1.59,-2.87,983.09,35.44
1866457,-0.11,0.05,1.16,-0.55,2.08,-2.32,983.11,35.44
1866507,-0.08,0.07,1.22,-0.18,0.18,-2.14,983.02,35.42
1866545,-0.08,0.06,1.22,-0.37,0.92,-1.77,983.09,35.43
1866583,-0.09,0.06,1.22,0.0,-0.92,-1.4,983.07,35.44
1866621,-0.06,0.07,1.27,0.12,-0.37,-1.16,983.08,35.43
1866659,-0.08,0.07,1.22,0.18,-0.12,-0.67,983.05,35.43
1866697,-0.09,0.07,1.24,0.85,-0.79,-0.43,983.03,35.42
1866736,-0.09,0.05,1.17,0.79,0.24,-0.31,983.07,35.43
1866774,-0.09,0.06,1.17,1.22,-1.04,-0.12,983.03,35.43
1866812,-0.09,0.06,1.2,1.4,-1.16,0.43,983.08,35.44
1866850,-0.08,0.05,1.16,1.83,-0.85,0.55,983.06,35.44
1866900,-0.1,0.05,1.14,2.62,-1.34,0.92,983.13,35.43
1866938,-0.1,0.04,1.14,3.17,-0.67,1.34,983.11,35.44
1866976,-0.06,0.04,1.07,3.17,0.24,1.59,983.18,35.44
1867014,-0.08,0.05,1.04,3.66,1.22,1.65,983.17,35.42
1867052,-0.05,0.04,1.03,4.09,2.62,1.71,983.22,35.44
1867090,-0.03,0.02,0.96,3.91,4.76,2.01,983.2,35.43
1867128,-0.06,0.03,0.91,4.27,5.13,2.14,983.22,35.44
1867166,-0.07,0.03,0.89,4.15,7.57,2.26,983.19,35.43
1867204,-0.06,0.02,0.88,3.72,8.0,2.32,983.13,35.44
1867242,-0.05,0.04,0.95,3.66,7.57,2.44,983.2,35.44
1867292,-0.04,0.03,0.9,2.69,10.56,2.44,983.15,35.43
1867330,-0.01,0.05,1.01,2.69,11.47,2.5,983.17,35.44
1867368,-0.06,0.03,1.0,2.26,13.31,2.81,983.13,35.43
1867406,-0.07,0.03,1.02,2.14,12.45,3.05,983.12,35.44
1867444,-0.05,0.02,1.08,1.59,13.31,3.3,983.19,35.45
1867482,-0.04,0.02,1.06,1.04,12.08,3.42,983.13,35.43
1867520,-0.05,0.02,1.06,0.43,11.29,3.54,983.16,35.44
1867559,-0.03,0.03,1.04,0.49,10.68,3.54,983.14,35.44
1867597,-0.04,0.02,1.05,-0.31,9.22,3.85,983.14,35.43
1867646,-0.04,0.02,1.07,-0.24,6.29,4.09,983.05,35.43
1867684,-0.04,0.02,1.13,-0.31,5.68,4.39,983.03,35.44
1867723,-0.03,0.0,1.06,-0.79,4.33,4.46,982.99,35.43
1867761,-0.05,0.03,1.12,-0.37,1.22,4.33,983.0,35.44
1867799,-0.04,0.01,1.08,-0.92,3.3,4.27,982.99,35.44
1867837,-0.04,0.01,1.04,-0.61,2.38,4.09,983.01,35.45
1867875,-0.04,0.04,1.11,0.06,-0.06,4.03,982.97,35.43
1867913,-0.04,0.01,1.06,-0.24,0.06,4.39,982.92,35.44
1867951,-0.02,0.04,1.01,-0.49,-1.04,4.09,982.91,35.44
1867989,-0.06,0.05,1.18,0.85,-2.01,3.91,982.96,35.45
1868065,-0.06,0.03,1.11,1.1,-3.97,3.85,982.95,35.41
1868103,-0.06,0.03,1.07,0.31,-1.16,4.03,982.88,35.43
1868141,-0.03,0.03,1.06,1.34,-3.17,4.21,982.94,35.41
1868230,-0.06,0.03,0.99,1.77,-1.1,3.54,982.91,35.4
1868268,-0.05,0.05,1.04,1.83,0.24,3.72,982.9,35.41
1868306,-0.01,0.03,0.97,1.77,1.04,3.54,982.95,35.41
1868344,-0.05,0.05,1.01,2.44,0.31,3.6,983.02,35.41
1868382,-0.03,0.02,0.98,2.56,2.62,3.72,983.01,35.43
1868420,-0.02,0.03,0.92,2.5,2.08,3.54,983.02,35.42
1868458,-0.04,0.04,0.92,2.26,1.59,3.72,982.95,35.44
1868508,-0.05,0.03,0.86,2.01,1.16,3.72,982.93,35.41
1868546,-0.04,0.03,0.92,2.01,1.04,3.6,982.85,35.42
1868584,-0.01,0.04,0.95,1.65,0.73,3.3,982.91,35.45
1868622,-0.04,0.04,1.01,1.77,1.77,3.23,982.9,35.42
1868660,-0.02,0.05,1.05,1.71,2.26,2.81,982.88,35.43
1868698,-0.04,0.05,1.12,1.77,2.87,2.93,982.77,35.42
1868736,-0.03,0.03,1.06,1.34,4.46,2.69,982.84,35.42
1868774,-0.05,0.06,1.06,1.4,5.0,1.95,982.87,35.42
1868812,-0.04,0.06,1.01,1.04,6.53,2.32,982.88,35.44
1868850,-0.03,0.06,1.03,0.85,5.74,2.44,982.89,35.44
1868900,-0.02,0.04,1.02,0.49,6.59,2.38,982.85,35.42
1868938,-0.03,0.06,1.1,0.49,3.91,2.56,982.83,35.44
1868976,-0.04,0.04,1.13,0.43,4.88,2.62,982.78,35.44
1869014,-0.05,0.05,1.15,0.61,2.99,2.26,982.74,35.43
1869052,-0.02,0.06,1.12,0.18,1.95,2.44,982.72,35.43
1869091,-0.04,0.04,1.06,0.79,1.04,2.14,982.75,35.44
1869129,0.01,0.05,1.09,0.73,0.0,2.14,982.64,35.44
1869167,-0.01,0.04,1.06,1.16,0.61,2.14,982.68,35.44
1869205,-0.03,0.06,1.09,1.59,-1.53,2.2,982.68,35.45
1869255,-0.07,0.05,1.14,2.08,-2.01,2.38,982.67,35.44
1869293,-0.06,0.04,1.12,2.44,-2.99,2.32,982.67,35.43
1869331,-0.03,0.05,1.22,3.05,-3.36,2.14,982.68,35.44
1869369,-0.02,0.05,1.06,2.87,-1.22,1.95,982.65,35.44
1869407,-0.05,0.07,1.08,4.09,-2.26,1.83,982.68,35.44
1869445,-0.05,0.04,0.99,4.15,0.85,1.71,982.67,35.45
1869483,-0.05,0.04,0.93,4.39,0.98,1.59,982.66,35.44
1869521,-0.06,0.06,0.87,4.7,2.38,1.53,982.59,35.45
1869559,-0.04,0.05,0.83,5.19,3.78,1.46,982.63,35.44
1869597,-0.02,0.05,0.82,5.07,3.42,1.34,982.7,35.46
1869647,-0.06,0.06,0.86,5.49,3.05,1.59,982.59,35.44
1869685,-0.04,0.02,0.82,5.0,4.03,1.71,982.62,35.44
1869723,-0.03,0.05,0.82,4.58,2.69,1.59,982.62,35.44
1869761,-0.05,0.07,0.83,4.46,2.14,1.71,982.56,35.45
1869799,-0.06,0.05,0.81,4.21,2.93,2.08,982.59,35.45
1869837,-0.02,0.06,0.84,4.15,1.89,1.95,982.56,35.45
1869875,-0.04,0.06,0.85,4.21,0.06,2.26,982.59,35.44
1869913,-0.06,0.06,0.81,4.27,0.37,2.26,982.53,35.44
1869951,-0.05,0.05,0.85,4.76,-0.18,2.01,982.58,35.45
1869989,-0.04,0.05,0.76,3.91,0.31,2.08,982.55,35.46
1870039,-0.06,0.06,0.77,4.58,-0.61,2.26,982.51,35.44
1870077,-0.01,0.03,0.71,3.97,2.99,2.08,982.56,35.43
1870115,-0.03,0.06,0.73,4.09,1.53,1.95,982.61,35.44
1870153,-0.05,0.05,0.79,4.33,1.89,2.26,982.62,35.46
1870191,-0.04,0.03,0.72,3.42,3.3,2.38,982.59,35.44
1870229,-0.02,0.05,0.78,3.3,4.27,2.2,982.57,35.44
1870267,-0.04,0.04,0.72,2.08,5.68,2.5,982.57,35.45
1870305,-0.04,0.03,0.75,1.83,4.39,2.62,982.57,35.44
1870343,-0.04,0.04,0.78,0.55,5.49,2.62,982.57,35.44
1870381,-0.01,0.04,0.87,0.12,5.19,2.62,982.59,35.46
1870431,-0.02,0.02,0.89,-1.46,5.68,2.93,982.57,35.44
1870469,-0.04,0.04,1.0,-1.71,4.88,2.93,982.56,35.43
1870507,-0.02,0.02,1.03,-2.81,6.16,3.17,982.47,35.43
1870546,-0.01,0.03,1.08,-3.17,4.58,3.17,982.59,35.45
1870584,-0.04,0.04,1.18,-2.81,5.19,3.11,982.59,35.45
1870622,-0.02,0.02,1.14,-3.6,5.37,3.54,982.57,35.45
1870660,-0.01,0.04,1.26,-2.5,3.54,3.66,982.55,35.44
1870698,-0.01,0.02,1.2,-2.62,5.07,3.66,982.56,35.43
1870736,-0.04,0.04,1.25,-1.83,2.93,4.09,982.56,35.44
1870786,-0.01,0.03,1.23,-1.71,4.82,4.33,982.53,35.43
1870824,-0.02,0.03,1.28,-1.34,3.11,4.33,982.42,35.43
1870862,-0.05,0.03,1.24,-0.79,4.52,4.82,982.55,35.44
1870900,-0.01,0.03,1.26,-0.31,4.64,4.94,982.47,35.44
1870938,-0.0,0.04,1.24,0.37,5.07,5.0,982.38,35.43
1870976,-0.02,0.05,1.21,0.92,4.58,5.07,982.56,35.45
1871014,-0.02,0.04,1.23,1.16,5.19,5.31,982.45,35.46
1871052,-0.02,0.03,1.22,1.71,5.49,5.25,982.43,35.44
1871090,-0.01,0.05,1.22,1.89,5.62,5.43,982.38,35.45
1871128,-0.01,0.05,1.2,2.2,6.29,5.49,982.37,35.44
1871204,0.02,0.05,1.15,2.44,7.63,5.8,982.41,35.43
1871242,-0.01,0.06,1.15,3.17,6.53,6.1,982.34,35.43
1871280,-0.02,0.06,1.1,3.11,5.98,6.29,982.38,35.44
1871369,-0.0,0.07,1.1,3.48,5.07,6.29,982.32,35.4
1871407,-0.0,0.07,1.13,3.36,4.94,6.23,982.35,35.41
1871446,0.01,0.06,1.09,2.99,5.98,6.16,982.27,35.43
1871484,0.02,0.08,1.06,2.99,5.25,5.86,982.3,35.42
1871522,0.02,0.08,1.05,2.81,6.53,5.8,982.3,35.42
1871560,0.02,0.07,1.02,2.75,7.57,5.62,982.26,35.43
1871598,0.0,0.07,1.03,3.11,7.93,5.37,982.27,35.44
1871647,0.01,0.07,0.99,2.87,9.4,4.88,982.21,35.44
1871686,0.01,0.06,1.05,3.17,10.38,4.39,982.23,35.42
1871724,0.03,0.05,0.98,2.81,12.45,4.21,982.25,35.43
1871762,0.02,0.07,1.0,3.42,12.08,3.97,982.22,35.45
1871800,0.02,0.06,1.01,3.3,12.7,3.78,982.2,35.45
1871838,0.02,0.06,0.99,3.17,11.17,3.66,982.2,35.44
1871876,0.0,0.05,1.0,3.48,9.89,3.66,982.15,35.44
1871914,0.03,0.04,0.97,3.05,8.67,3.36,982.2,35.44
1871952,0.05,0.06,1.05,3.05,6.16,3.11,982.22,35.43
1871990,0.02,0.05,0.99,2.81,5.43,2.81,982.28,35.43
1872040,0.03,0.04,0.95,2.87,2.75,2.56,982.23,35.43
1872078,0.02,0.03,0.91,2.81,1.95,2.32,982.14,35.43
1872116,0.01,0.02,0.9,2.99,0.79,1.65,982.25,35.43
1872154,0.01,0.02,0.88,2.69,0.37,1.65,982.18,35.43
1872192,-0.03,0.03,0.89,3.11,-0.55,1.16,982.14,35.44
1872230,-0.02,0.02,0.9,2.81,1.4,0.92,982.12,35.43
1872268,-0.0,0.0,0.89,2.62,1.77,0.67,982.17,35.44
1872306,-0.01,0.02,0.93,2.81,0.92,0.31,982.16,35.45
1872345,-0.01,0.01,0.84,2.32,2.69,0.12,982.19,35.45
1872383,0.0,0.03,0.89,2.38,2.08,-0.12,982.18,35.44
1872432,-0.0,0.01,0.88,1.89,4.03,-0.24,982.11,35.43
1872470,0.0,0.02,0.89,1.95,2.08,-0.31,982.1,35.44
1872508,-0.01,0.01,0.94,1.77,2.87,-0.43,982.03,35.44
1872547,-0.0,0.0,0.91,1.53,3.85,-0.61,982.12,35.45
1872585,-0.0,0.01,0.96,1.46,5.43,-0.79,982.08,35.44
1872623,-0.01,0.01,0.98,1.46,4.15,-1.28,982.01,35.43
1872661,0.01,0.01,1.01,1.22,5.49,-1.4,982.09,35.44
1872699,-0.01,0.01,0.97,0.98,7.2,-1.53,982.12,35.46
1872737,-0.01,0.01,1.01,1.28,6.59,-1.83,982.12,35.44
1872775,-0.01,-0.0,1.0,0.85,8.06,-1.89,982.07,35.46
1872825,-0.02,0.01,1.02,0.92,6.65,-1.83,982.1,35.44
1872863,0.01,0.0,1.0,0.73,7.75,-2.26,982.06,35.44
1872901,-0.02,0.01,0.97,1.28,6.65,-2.2,982.11,35.44
1872939,-0.02,0.02,1.03,1.77,5.68,-2.08,982.03,35.45
1872977,0.01,-0.01,1.0,1.53,5.86,-2.26,982.02,35.45
1873015,-0.01,0.01,1.08,2.01,3.85,-2.32,982.1,35.45
1873053,-0.03,0.01,1.05,1.77,3.54,-2.08,981.96,35.46
1873091,-0.04,0.03,1.04,2.01,2.2,-2.2,982.0,35.44
1873129,-0.0,0.02,1.1,2.2,1.22,-2.38,982.01,35.45
1873179,-0.04,0.04,1.04,1.59,-15.2,-2.14,981.94,35.45
1873217,-0.05,0.05,1.15,2.14,-0.79,-2.01,981.85,35.44
1873255,-0.01,0.01,1.09,0.85,0.55,-2.14,981.95,35.45
1873293,-0.07,0.04,1.15,1.22,-1.22,-2.14,981.85,35.44
1873331,-0.07,0.04,1.22,2.01,0.55,-2.2,981.88,35.44
1873369,-0.04,0.03,1.05,1.1,2.81,-2.26,981.89,35.45
1873408,-0.03,0.04,1.2,2.62,1.71,-2.44,981.93,35.45
1873446,0.0,0.01,1.02,1.95,5.37,-2.69,981.92,35.45
1873484,-0.06,0.03,1.01,3.23,2.87,-2.81,981.89,35.44
1873522,-0.08,0.03,1.02,2.81,4.76,-2.44,981.89,35.46
1873572,-0.06,0.03,1.09,2.99,4.33,-2.62,981.88,35.44
1873610,-0.04,0.04,1.12,2.5,4.27,-2.2,981.91,35.46
1873648,-0.03,0.02,1.11,2.87,5.68,-2.26,981.8,35.44
1873686,-0.04,0.03,1.02,2.14,6.04,-2.08,981.83,35.45
1873724,-0.03,0.04,1.12,2.2,4.39,-1.83,981.88,35.45
1873762,-0.09,0.02,0.94,1.04,5.13,-1.16,981.79,35.44
1873800,-0.1,0.03,0.9,0.67,4.46,-1.34,981.78,35.46
1873838,-0.07,0.02,1.06,0.98,4.21,-1.34,981.72,35.44
1873876,-0.02,-0.01,1.0,-0.12,4.88,-0.85,981.78,35.45
1873914,-0.04,0.04,1.1,0.67,2.2,-0.73,981.82,35.45
1873964,-0.05,0.01,1.0,0.31,6.04,-0.55,981.82,35.44
1874002,-0.06,0.03,1.01,0.85,5.13,-0.43,981.78,35.45
1874040,-0.04,0.0,0.94,0.79,7.26,-0.18,981.75,35.45
1874078,-0.02,-0.0,0.92,1.34,5.43,-0.18,981.79,35.46
1874116,-0.04,0.02,0.94,1.1,7.69,-0.18,981.75,35.46
1874154,-0.04,0.02,0.89,0.85,6.16,0.24,981.72,35.44
1874193,-0.03,0.01,1.0,0.98,5.62,0.37,981.67,35.44
1874231,-0.03,0.0,0.92,-0.24,6.23,0.61,981.71,35.46
1874269,-0.05,0.02,1.0,0.12,4.76,0.85,981.61,35.45
1874344,-0.02,0.02,1.02,-0.67,4.39,1.22,981.66,35.43
1874383,-0.02,0.02,1.06,-0.98,5.43,1.59,981.59,35.43
1874421,-0.02,0.01,1.04,-1.04,5.25,1.53,981.58,35.45
1874510,-0.03,0.02,1.11,-1.16,4.88,2.08,981.54,35.41
1874548,-0.03,0.02,1.15,-1.1,5.07,2.01,981.53,35.42
1874586,-0.01,0.02,1.16,-0.61,5.0,2.38,981.54,35.42
1874624,-0.02,0.03,1.17,0.0,5.68,2.14,981.53,35.43
1874662,-0.03,0.04,1.16,0.73,6.29,2.44,981.52,35.44
1874700,-0.04,0.04,1.16,1.65,6.77,2.56,981.46,35.43
1874738,-0.04,0.03,1.12,2.14,7.32,2.56,981.47,35.44
1874788,-0.03,0.04,1.07,2.38,7.87,2.81,981.43,35.43
1874826,-0.02,0.04,1.06,2.38,8.24,2.69,981.4,35.42
1874864,-0.04,0.04,1.01,2.26,8.79,3.17,981.35,35.43
1874902,-0.04,0.05,1.07,2.5,8.3,3.23,981.41,35.45
1874940,-0.04,0.04,1.06,2.14,9.28,3.42,981.34,35.44
1874979,-0.03,0.05,1.06,2.14,8.67,3.6,981.37,35.43
1875017,-0.03,0.06,1.1,2.26,8.85,3.54,981.38,35.43
1875055,-0.02,0.05,1.05,1.89,9.16,3.72,981.36,35.45
1875093,-0.02,0.07,1.11,2.08,8.61,3.78,981.36,35.44
1875131,-0.01,0.05,1.08,2.08,9.22,3.91,981.35,35.45
1875181,-0.03,0.07,1.08,2.32,7.51,3.97,981.36,35.44
1875219,-0.03,0.06,1.06,2.62,7.69,3.72,981.33,35.43
1875257,-0.01,0.06,1.04,2.87,6.23,3.54,981.41,35.46
1875295,-0.01,0.06,1.04,2.99,5.0,3.6,981.33,35.46
1875333,-0.0,0.06,1.0,3.11,5.0,3.72,981.28,35.45
1875371,-0.01,0.07,1.0,3.54,4.03,3.36,981.25,35.45
1875409,-0.01,0.05,0.95,3.42,4.15,3.17,981.16,35.46
1875447,-0.03,0.06,0.94,4.15,3.05,2.99,981.1,35.46
1875485,-0.02,0.05,0.94,4.09,3.23,2.87,981.1,35.45
1875523,-0.02,0.05,0.89,3.97,2.56,2.62,981.11,35.46
1875573,-0.01,0.06,0.9,3.91,2.32,2.69,981.14,35.44
1875611,-0.02,0.04,0.88,3.54,2.38,2.38,981.0,35.44
1875649,-0.01,0.04,0.89,3.42,1.89,2.14,981.11,35.47
1875687,-0.02,0.05,0.88,3.17,1.4,2.01,981.04,35.44
1875725,-0.04,0.05,0.85,3.11,1.46,1.95,981.01,35.46
1875763,-0.01,0.05,0.85,3.23,1.65,1.71,980.97,35.44
1875801,-0.01,0.04,0.87,3.48,1.59,1.46,980.96,35.45
1875839,-0.02,0.04,0.85,3.6,0.92,1.4,980.96,35.45
1875877,-0.03,0.05,0.87,4.15,0.61,1.59,980.92,35.44
1875915,-0.03,0.04,0.87,4.15,1.22,1.22,980.91,35.45
1875965,-0.02,0.04,0.88,4.21,0.85,0.92,980.94,35.45
1876003,-0.02,0.03,0.86,4.09,1.4,0.79,980.96,35.45
1876041,-0.01,0.03,0.87,4.03,2.2,0.67,980.94,35.45
1876079,-0.0,0.04,0.87,3.85,2.75,0.43,980.88,35.45
1876117,-0.03,0.04,0.87,3.91,3.23,0.55,980.9,35.46
1876155,-0.04,0.03,0.85,4.09,3.6,0.49,980.91,35.45
1876193,-0.04,0.03,0.87,4.15,3.54,0.67,980.87,35.45
1876231,-0.02,0.03,0.89,4.33,3.66,0.37,980.9,35.45
1876269,-0.02,0.04,0.85,4.15,4.33,0.31,980.9,35.45
1876319,-0.03,0.03,0.84,4.76,4.94,0.37,980.87,35.44
1876357,-0.02,0.03,0.84,5.07,4.15,0.31,980.83,35.45
1876395,-0.03,0.04,0.84,5.37,3.85,0.24,980.87,35.44
1876433,-0.02,0.03,0.82,5.55,3.36,0.24,980.79,35.45
1876471,-0.02,0.03,0.82,5.86,3.05,0.0,980.82,35.45
1876509,-0.05,0.03,0.77,5.74,2.87,-0.06,980.71,35.45
1876547,-0.05,0.04,0.76,6.1,2.87,0.0,980.82,35.46
1876585,-0.04,0.04,0.74,5.55,3.48,0.06,980.7,35.45
1876623,-0.04,0.03,0.75,5.86,3.05,0.18,980.67,35.45
1876661,-0.03,0.03,0.75,5.49,3.6,0.37,980.67,35.46
1876711,-0.05,0.03,0.73,5.25,3.6,0.55,980.7,35.46
1876749,-0.05,0.04,0.74,5.25,3.6,0.37,980.69,35.45
1876787,-0.04,0.03,0.72,4.7,4.33,0.43,980.63,35.44
1876825,-0.05,0.04,0.73,4.76,3.3,0.55,980.69,35.45
1876863,-0.05,0.03,0.75,4.7,4.82,0.73,980.61,35.44
1876902,-0.04,0.03,0.71,4.33,5.0,0.73,980.64,35.45
1876940,-0.05,0.05,0.71,4.27,4.09,0.92,980.64,35.45
1876978,-0.06,0.05,0.64,4.21,3.48,1.28,980.6,35.45
1877016,-0.04,0.03,0.62,3.6,3.11,1.34,980.52,35.45
1877054,-0.04,0.04,0.64,3.36,2.32,1.04,980.57,35.45
1877104,-0.03,0.03,0.65,2.93,1.34,1.65,980.58,35.43
1877142,-0.04,0.03,0.66,3.05,0.49,1.89,980.51,35.43
1877180,-0.04,0.03,0.66,2.81,0.61,1.83,980.5,35.45
1877218,-0.05,0.03,0.67,2.75,-0.06,2.08,980.53,35.46
1877256,-0.05,0.04,0.68,2.81,-1.1,2.44,980.53,35.44
1877294,-0.03,0.04,0.71,2.81,-1.28,2.2,980.57,35.46
1877332,-0.04,0.03,0.75,3.05,-1.59,2.32,980.59,35.44
1877370,-0.04,0.03,0.78,2.99,-1.77,2.81,980.51,35.46
1877408,-0.04,0.04,0.77,2.99,-1.65,2.87,980.52,35.45
1877446,-0.06,0.04,0.79,2.87,-1.53,2.81,980.61,35.46
1877522,-0.04,0.04,0.86,2.01,-0.73,3.05,980.62,35.43
1877560,-0.05,0.03,0.86,1.71,0.61,3.23,980.62,35.43
1877598,-0.04,0.04,0.9,1.46,1.1,3.6,980.61,35.43
1877688,-0.05,0.04,0.93,0.85,2.56,3.91,980.64,35.4
1877726,-0.04,0.04,0.94,0.67,2.75,4.03,980.65,35.43
1877764,-0.05,0.04,0.96,0.67,2.87,4.27,980.64,35.41
1877802,-0.02,0.04,0.97,0.61,3.17,4.39,980.64,35.43
1877840,-0.03,0.04,0.99,0.73,2.81,4.7,980.68,35.43
1877878,-0.03,0.04,1.0,0.61,2.99,4.76,980.73,35.45
1877916,-0.03,0.04,1.02,0.79,2.99,4.7,980.71,35.44
1877966,-0.02,0.04,1.03,1.04,3.05,4.82,980.69,35.43
1878004,-0.01,0.04,1.03,1.22,2.69,4.88,980.67,35.43
1878042,-0.01,0.04,1.03,1.34,3.3,4.94,980.69,35.43
1878080,-0.01,0.04,1.01,1.4,3.23,4.88,980.72,35.44
1878118,-0.01,0.04,1.0,1.77,2.81,4.82,980.7,35.44
1878156,-0.01,0.04,0.99,1.59,3.05,4.82,980.67,35.44
1878194,-0.02,0.04,0.98,1.71,2.99,4.76,980.73,35.44
1878232,0.0,0.04,1.02,2.08,2.69,4.52,980.71,35.45
1878270,-0.0,0.04,1.0,1.83,3.6,4.64,980.74,35.45
1878309,0.0,0.05,1.0,2.14,3.3,4.46,980.76,35.47
1878358,0.01,0.05,0.99,2.2,3.97,4.27,980.71,35.44
1878396,-0.0,0.04,0.96,2.01,3.97,4.03,980.67,35.44
1878434,-0.01,0.04,0.98,2.01,3.85,3.85,980.72,35.47
1878473,-0.01,0.04,0.96,1.59,4.27,3.91,980.64,35.45
1878511,-0.0,0.05,1.0,1.46,3.48,3.78,980.61,35.46
1878549,0.0,0.04,0.99,1.04,3.91,3.72,980.61,35.45
1878587,-0.0,0.04,1.03,0.67,2.93,3.66,980.64,35.43
1878625,0.01,0.04,1.03,0.49,3.23,3.48,980.69,35.46
1878663,0.01,0.04,1.04,0.24,3.11,3.36,980.62,35.45
1878713,-0.0,0.04,1.04,0.24,3.11,3.42,980.64,35.45
1878751,0.0,0.05,1.08,0.61,2.32,3.36,980.56,35.45
1878789,0.01,0.04,1.07,0.37,2.26,3.17,980.63,35.44
1878827,-0.01,0.05,1.09,0.37,0.55,3.3,980.65,35.46
1878865,-0.0,0.04,1.13,0.31,0.24,3.36,980.64,35.46
1878903,-0.0,0.04,1.15,0.37,-0.06,3.23,980.63,35.46
1878941,0.02,0.04,1.15,0.79,-0.12,3.23,980.59,35.47
1878979,0.01,0.04,1.14,1.22,-0.92,3.11,980.6,35.46
1879017,0.01,0.04,1.16,1.16,-0.92,3.05,980.6,35.47
1879055,0.02,0.03,1.13,0.98,-1.22,2.93,980.62,35.47
1879105,-0.01,0.02,1.11,0.92,0.24,2.81,980.6,35.46
1879143,-0.02,0.04,1.14,1.46,-0.55,2.26,980.64,35.47
1879181,0.0,0.03,1.16,1.46,1.46,2.32,980.61,35.46
1879219,-0.0,0.02,1.14,1.77,2.08,2.14,980.67,35.49
1879257,-0.02,0.04,1.15,1.77,3.54,2.08,980.63,35.46
1879295,-0.0,0.03,1.15,2.01,4.33,2.01,980.57,35.47
1879333,-0.02,0.03,1.13,1.83,5.0,2.14,980.56,35.47
1879371,-0.0,0.03,1.18,2.01,5.8,2.2,980.6,35.47
1879409,-0.0,0.01,1.06,1.65,8.67,2.32,980.59,35.46
1879447,-0.04,0.04,1.13,2.32,5.62,2.38,980.64,35.48
1879497,-0.01,0.02,1.1,1.89,7.02,2.75,980.55,35.46
1879535,-0.02,0.02,1.11,1.65,7.45,2.99,980.56,35.46
1879573,-0.02,0.02,1.14,1.95,7.75,2.93,980.54,35.46
1879611,-0.01,0.01,1.08,1.28,8.67,3.23,980.64,35.46
1879649,-0.04,0.03,1.09,1.59,7.75,3.3,980.57,35.47
1879687,-0.03,0.02,1.06,1.22,9.16,3.6,980.58,35.47
1879725,-0.02,0.02,1.07,1.1,9.58,3.85,980.54,35.46
1879763,-0.03,0.03,1.04,1.16,8.79,3.85,980.5,35.46
1879801,-0.02,0.02,1.09,0.85,9.16,4.33,980.58,35.48
1879839,0.0,0.01,1.06,0.31,10.07,4.52,980.54,35.46
1879889,-0.01,0.03,1.07,0.18,8.97,4.58,980.54,35.46
1879927,-0.01,0.01,1.07,-0.12,9.03,4.82,980.52,35.46
1879965,-0.02,0.01,1.09,-0.18,8.61,5.0,980.49,35.46
1880003,-0.0,0.02,1.13,-0.49,9.03,5.19,980.52,35.46
1880041,0.01,0.03,1.18,-0.31,8.48,5.13,980.47,35.46
1880079,-0.0,0.02,1.2,-0.37,7.87,5.37,980.48,35.47
1880117,0.01,0.02,1.2,-0.24,6.71,5.37,980.48,35.46
1880155,0.01,0.03,1.25,0.18,5.68,5.37,980.53,35.47
1880193,0.01,0.02,1.2,0.12,5.37,5.37,980.46,35.48
1880231,0.02,0.03,1.19,0.24,3.85,5.43,980.46,35.47
1880281,0.02,0.02,1.19,0.49,3.91,5.19,980.46,35.46
1880319,0.01,0.01,1.13,0.43,3.72,4.94,980.37,35.44
1880357,0.02,0.04,1.22,1.16,2.81,4.76,980.4,35.46
1880395,0.05,0.03,1.17,1.16,2.87,4.64,980.37,35.45
1880433,0.02,0.02,1.16,1.83,3.36,4.39,980.39,35.46
1880471,0.02,0.02,1.12,2.38,4.15,3.97,980.39,35.46
1880509,0.05,0.02,1.08,2.69,4.27,3.72,980.39,35.46
1880547,0.03,0.03,1.0,2.93,4.7,3.3,980.34,35.47
1880585,0.02,0.03,0.94,2.81,5.31,3.05,980.33,35.45
1880623,-0.01,0.02,0.88,2.62,6.04,2.81,980.28,35.47
1880699,0.03,0.02,0.87,1.71,7.69,2.75,980.2,35.44
1880737,-0.0,0.03,0.85,1.46,8.54,2.26,980.22,35.44
1880775,0.02,0.03,0.87,1.04,9.28,2.08,980.2,35.46
1880864,0.02,0.03,0.95,0.12,8.91,1.83,980.25,35.42
1880902,0.03,0.03,0.97,-0.43,9.4,1.77,980.22,35.43
1880941,0.03,0.03,1.07,-0.37,6.16,1.59,980.19,35.44
1880979,0.02,0.04,1.12,-0.79,4.09,1.59,980.18,35.44
1881017,0.02,0.04,1.12,-1.16,2.26,1.46,980.2,35.46
1881055,0.03,0.05,1.25,-0.98,-0.06,1.22,980.18,35.43
1881093,0.05,0.02,1.17,-1.16,0.31,1.04,980.2,35.44
1881143,0.03,0.03,1.14,-0.61,-1.71,0.79,980.18,35.44
1881181,0.04,0.02,1.08,-0.12,-0.06,0.37,980.19,35.46
1881219,-0.03,0.03,1.03,0.12,-1.28,-0.18,980.23,35.46
1881257,0.0,0.04,1.05,0.55,-1.53,-0.31,980.13,35.44
1881295,0.04,0.02,1.05,1.34,-0.73,-0.61,980.22,35.46
1881333,0.01,0.03,1.02,2.38,0.79,-0.98,980.32,35.46
1881371,0.01,0.05,0.97,3.48,1.34,-1.1,980.16,35.46
1881409,0.02,0.04,0.97,4.21,1.71,-1.34,980.21,35.46
1881447,-0.02,0.04,0.92,5.0,2.62,-1.77,980.21,35.47
1881497,0.0,0.05,0.91,5.62,1.65,-1.71,980.19,35.46
1881535,-0.0,0.03,0.86,5.62,2.08,-1.83,980.16,35.45
1881573,0.0,0.05,0.86,5.92,1.46,-2.01,980.14,35.46
1881611,-0.02,0.04,0.87,5.98,2.01,-2.14,980.14,35.45
1881649,-0.03,0.04,0.82,5.98,1.71,-1.95,980.15,35.46
1881687,-0.01,0.05,0.85,5.86,1.89,-2.14,980.15,35.46
1881725,-0.02,0.05,0.83,5.92,2.81,-2.14,980.18,35.48
1881763,-0.02,0.05,0.82,5.86,2.38,-1.89,980.15,35.46
1881801,-0.01,0.04,0.79,5.31,2.87,-2.14,980.15,35.46
1881839,-0.01,0.04,0.84,5.49,2.81,-1.89,980.18,35.46
1881889,-0.02,0.04,0.83,4.82,3.11,-1.89,980.05,35.45
1881927,-0.04,0.05,0.85,4.88,3.11,-1.71,980.0,35.45
1881965,-0.05,0.04,0.84,4.46,3.97,-1.65,980.05,35.46
1882003,-0.02,0.05,0.91,3.97,2.99,-1.46,980.1,35.47
1882041,-0.03,0.03,0.89,3.23,3.66,-1.28,980.07,35.46
1882079,-0.04,0.03,0.95,3.42,2.62,-1.04,980.02,35.47
1882117,0.0,0.03,0.92,2.81,3.17,-0.79,980.07,35.46
1882155,-0.03,0.03,0.96,3.05,0.98,-0.61,979.98,35.47
1882193,-0.04,0.02,0.91,2.56,1.83,-0.18,980.1,35.48
1882231,-0.05,0.02,0.88,2.56,1.89,-0.06,980.08,35.47
1882281,-0.02,0.01,0.89,2.32,2.14,-0.31,980.02,35.46
1882319,-0.03,0.01,0.82,1.83,1.71,0.0,980.07,35.47
1882357,-0.03,0.02,0.84,1.83,2.5,0.12,979.98,35.47
1882395,-0.03,0.01,0.81,1.22,4.33,0.0,980.03,35.47
1882433,-0.03,0.01,0.84,1.46,4.09,0.31,980.03,35.47
1882471,-0.04,0.0,0.84,1.22,5.31,0.61,979.97,35.47
1882509,-0.05,0.01,0.83,1.34,6.29,0.85,979.99,35.47
1882547,-0.03,0.0,0.82,1.28,6.96,1.04,979.95,35.46
1882585,-0.02,0.02,0.84,1.1,7.39,1.22,979.94,35.48
1882623,-0.03,0.01,0.86,1.22,7.87,1.59,979.93,35.48
1882673,-0.01,0.0,0.84,0.67,9.34,1.71,979.93,35.46
1882711,-0.01,0.01,0.87,0.92,7.93,2.08,979.97,35.46
1882749,-0.03,0.01,0.88,0.67,6.96,2.26,979.96,35.48
1882787,-0.03,0.0,0.91,0.85,5.37,2.44,979.96,35.46
1882825,-0.02,0.01,0.95,0.61,4.46,2.44,979.96,35.48
1882863,-0.0,0.01,0.96,0.92,3.85,2.5,979.94,35.48
1882901,-0.02,0.01,0.94,1.1,3.05,2.81,979.95,35.47
1882939,-0.02,0.01,0.97,1.16,3.23,2.93,979.97,35.48
1882977,-0.04,0.01,0.93,1.28,3.36,2.99,979.94,35.49
1883027,-0.03,0.01,0.96,1.28,3.6,3.05,979.95,35.47
1883065,-0.02,0.02,0.97,1.22,3.05,2.93,980.0,35.47
1883103,-0.02,0.03,1.03,1.1,3.23,2.93,979.91,35.47
1883141,-0.0,0.02,1.05,1.28,3.91,2.99,979.95,35.48
1883179,-0.04,0.02,1.05,1.28,3.54,2.99,979.9,35.47
1883217,-0.03,0.04,1.12,1.71,2.56,2.99,979.94,35.47
1883255,-0.05,0.04,1.12,1.59,4.76,3.05,979.97,35.48
1883293,-0.03,0.04,1.14,1.95,4.58,3.3,979.98,35.48
1883331,-0.05,0.04,1.17,2.14,4.76,3.42,979.99,35.48
1883369,-0.07,0.02,1.12,2.62,4.76,3.48,979.91,35.47
1883419,-0.04,0.04,1.09,2.38,4.03,3.72,979.96,35.46
1883457,-0.04,0.05,1.05,2.38,4.82,3.72,979.9,35.47
1883495,-0.02,0.04,1.02,2.44,3.97,3.91,979.94,35.47
1883533,-0.02,0.03,1.03,2.62,6.23,3.72,979.8,35.46
1883571,-0.07,0.03,1.0,3.11,6.59,4.03,979.85,35.48
1883609,-0.05,0.04,0.99,2.69,7.57,4.33,979.91,35.48
1883647,-0.05,0.04,1.04,2.44,7.02,4.21,979.87,35.48
1883685,-0.06,0.02,1.07,2.32,8.3,4.46,979.86,35.48
1883723,-0.03,0.04,1.0,1.4,8.54,4.52,979.89,35.48
1883761,-0.09,0.06,1.14,2.56,7.45,4.64,979.88,35.48
1883838,-0.05,0.06,1.05,2.2,5.92,5.19,979.84,35.45
1883876,-0.07,0.02,0.96,1.22,10.19,5.74,979.85,35.47
1883915,-0.04,0.01,0.92,1.16,6.84,5.68,979.83,35.46
1884004,-0.0,0.02,1.05,0.92,4.27,5.92,979.77,35.43
1884042,-0.05,0.01,1.0,-0.06,5.92,5.98,979.83,35.46
1884080,-0.05,0.04,1.04,0.31,3.66,6.1,979.84,35.46
1884118,-0.04,0.02,1.09,0.24,3.66,6.29,979.71,35.45
1884156,-0.01,0.02,1.04,-0.49,4.15,6.23,979.85,35.47
1884194,-0.0,0.03,1.15,0.18,2.5,6.04,979.75,35.46
1884232,0.0,0.01,1.14,-0.06,2.14,5.98,979.73,35.47
1884282,-0.0,0.03,1.13,0.12,0.18,6.1,979.76,35.45
1884320,-0.03,0.04,1.15,0.55,-0.24,5.98,979.77,35.46
1884358,-0.05,0.01,1.07,1.04,0.49,5.98,979.72,35.46
1884396,-0.02,0.02,1.14,1.71,-1.16,5.49,979.68,35.45
1884434,-0.02,0.01,1.11,1.89,-0.49,5.43,979.72,35.47
1884472,-0.01,0.01,1.1,2.14,-1.04,5.19,979.71,35.47
1884510,0.01,0.03,1.11,2.69,0.79,4.94,979.66,35.46
1884548,-0.03,0.02,1.04,2.69,0.79,4.64,979.66,35.47
1884586,-0.07,0.02,1.07,3.23,0.79,4.58,979.65,35.47
1884625,-0.03,0.01,1.03,2.93,1.59,4.52,979.63,35.47
1884674,0.01,0.03,1.01,2.93,0.79,4.39,979.63,35.46
1884712,-0.01,0.03,0.96,2.75,1.65,4.27,979.63,35.48
1884750,-0.01,0.03,0.96,2.75,1.16,4.33,979.54,35.47
1884788,0.0,0.02,1.01,2.08,2.81,4.03,979.55,35.48
1884826,-0.02,0.03,1.06,1.04,2.44,4.46,979.61,35.48
1884864,-0.02,0.03,1.01,0.18,3.42,3.91,979.49,35.47
1884902,-0.05,0.04,1.12,0.12,3.78,3.42,979.49,35.47
1884940,0.04,0.02,1.07,-1.71,9.09,3.6,979.47,35.47
1884979,0.02,0.05,1.14,-0.92,5.25,3.17,979.55,35.49
1885017,-0.05,0.04,1.05,-1.89,7.51,3.36,979.48,35.47
1885066,-0.02,0.03,1.16,-1.95,7.87,3.17,979.45,35.46
1885105,0.02,0.04,1.28,-2.69,8.97,2.75,979.52,35.46
1885143,-0.03,0.04,1.26,-2.32,7.45,2.87,979.55,35.48
1885181,-0.02,0.05,1.27,-2.26,8.24,2.87,979.49,35.47
1885219,-0.01,0.05,1.25,-1.46,10.19,2.69,979.53,35.47
1885257,-0.03,0.04,1.14,-1.04,12.33,2.5,979.61,35.48
1885295,-0.05,0.04,1.14,0.12,10.8,2.62,979.55,35.48
1885333,-0.03,0.03,1.12,0.49,12.45,2.5,979.47,35.47
1885371,-0.01,0.03,1.09,0.61,11.84,2.32,979.44,35.48
1885421,-0.0,0.05,1.17,1.1,10.62,2.44,979.47,35.47
1885459,-0.01,0.02,1.11,1.34,8.79,2.75,979.48,35.47
1885497,-0.03,0.03,1.13,1.22,7.32,2.69,979.44,35.48
1885535,-0.01,0.03,1.14,1.1,6.84,2.5,979.43,35.48
1885573,-0.0,0.04,1.07,0.55,3.72,2.69,979.36,35.47
1885611,0.01,0.05,1.09,0.37,1.1,2.44,979.33,35.48
1885649,-0.01,0.04,1.06,0.24,0.55,2.38,979.29,35.46
1885687,-0.01,0.03,1.1,0.12,-1.22,2.26,979.27,35.48
1885725,0.0,0.05,1.15,0.24,-2.44,2.14,979.23,35.47
1885763,-0.04,0.06,1.13,0.06,-1.59,1.83,979.29,35.48
1885813,-0.02,0.06,1.17,0.61,-1.28,1.53,979.22,35.46
1885851,-0.01,0.05,1.13,1.22,-1.53,1.1,979.27,35.49
1885889,-0.02,0.05,1.16,1.77,-1.71,1.22,979.24,35.48
1885927,-0.03,0.05,1.14,2.14,-1.04,0.98,979.28,35.48
1885965,-0.05,0.07,1.09,2.93,-0.43,0.55,979.24,35.47
1886003,-0.05,0.07,1.11,3.17,0.55,0.43,979.17,35.47
1886041,-0.07,0.06,1.11,3.54,1.65,0.12,979.16,35.48
1886079,0.02,0.08,1.12,3.36,3.23,-0.06,979.15,35.47
1886117,-0.01,0.08,1.2,4.33,3.97,-0.37,979.19,35.48
1886155,-0.04,0.05,1.08,4.33,6.71,-0.37,979.15,35.48
1886205,-0.02,0.1,1.16,4.82,6.47,-0.61,979.16,35.47
1886243,-0.05,0.08,1.04,4.7,7.51,-0.61,979.13,35.48
1886281,-0.06,0.06,1.07,4.76,5.0,-0.49,979.08,35.46
1886319,-0.01,0.07,1.05,4.52,7.32,-0.73,979.05,35.47
1886357,-0.05,0.06,1.02,5.19,6.96,-0.85,979.03,35.47
1886395,-0.04,0.06,0.94,4.94,7.93,-0.79,979.02,35.47
1886433,-0.03,0.07,0.96,5.25,7.51,-0.85,979.02,35.48
1886471,-0.04,0.06,0.89,5.07,9.03,-0.92,978.97,35.49
1886509,-0.07,0.06,0.88,5.74,8.36,-0.73,978.88,35.48
1886559,-0.05,0.05,0.85,5.55,9.64,-0.61,978.9,35.47
1886597,-0.06,0.07,0.85,6.1,8.0,-0.55,978.87,35.47
1886635,-0.06,0.05,0.86,5.37,8.67,-0.18,978.84,35.47
1886673,-0.07,0.04,0.84,5.62,7.14,0.0,978.77,35.47
1886711,-0.05,0.04,0.8,4.94,7.63,0.06,978.89,35.48
1886749,-0.06,0.04,0.78,5.13,6.96,0.55,978.83,35.48
1886787,-0.07,0.03,0.73,4.76,7.26,0.55,978.83,35.48
1886825,-0.07,0.03,0.72,4.39,6.84,0.73,978.77,35.48
1886863,-0.04,0.03,0.76,4.39,5.0,0.92,978.74,35.47
1886901,-0.04,0.02,0.71,3.72,5.0,1.16,978.74,35.47
1886977,-0.06,0.02,0.77,3.42,3.6,1.4,978.71,35.47
1887015,-0.02,0.01,0.71,2.32,1.53,1.71,978.68,35.46
1887053,-0.06,0.03,0.8,2.62,-0.79,1.53,978.65,35.46
1887142,-0.04,0.02,0.85,2.38,-0.98,1.71,978.62,35.44
1887180,-0.04,0.01,0.84,1.59,-1.28,2.01,978.66,35.46
1887218,-0.04,0.0,0.88,1.77,-1.77,1.95,978.58,35.46
1887257,-0.01,0.0,0.89,1.28,-2.01,1.89,978.6,35.45
1887295,-0.04,0.0,0.84,0.85,-3.91,2.08,978.52,35.45
1887333,-0.04,0.02,0.84,0.73,-6.23,1.95,978.53,35.45
1887371,-0.03,0.01,0.89,0.55,-5.0,2.08,978.48,35.46
1887421,-0.01,0.02,0.97,0.37,-6.23,1.89,978.46,35.44
1887459,-0.01,0.01,1.03,0.31,-5.86,2.01,978.44,35.46
1887497,-0.02,0.01,1.04,0.18,-6.53,2.01,978.5,35.47
1887535,-0.01,0.02,1.06,0.0,-5.98,2.01,978.5,35.46
1887573,-0.02,0.03,1.13,1.1,-5.19,1.65,978.49,35.45
1887611,0.02,0.03,1.07,0.31,-2.26,1.59,978.42,35.46
1887649,-0.01,0.02,1.09,1.04,-2.5,1.65,978.44,35.46
1887687,0.01,-0.01,0.99,0.55,-0.18,1.77,978.47,35.47
1887725,-0.01,0.02,0.97,0.0,0.06,1.65,978.43,35.47
1887763,-0.0,0.03,1.0,-0.12,0.79,1.77,978.42,35.47
1887813,0.01,0.02,0.99,-0.85,0.85,1.65,978.37,35.46
1887851,-0.02,0.04,1.03,-0.79,0.0,1.71,978.37,35.47
1887889,0.02,0.03,1.08,-1.53,1.89,1.95,978.31,35.48
1887927,0.01,0.05,1.11,-1.71,0.55,1.83,978.3,35.48
1887965,-0.0,0.04,1.13,-2.38,0.61,1.77,978.32,35.47
1888003,0.01,0.02,1.11,-2.44,2.38,2.01,978.23,35.47
1888041,0.03,0.05,1.15,-3.05,2.38,1.89,978.22,35.47
1888079,0.01,0.06,1.21,-2.93,2.5,1.89,978.18,35.48
1888117,0.0,0.06,1.19,-3.11,3.66,2.08,978.17,35.47
1888167,0.03,0.07,1.33,-2.75,3.85,2.14,978.22,35.47
1888205,0.02,0.05,1.34,-3.17,4.88,2.38,978.16,35.47
1888243,-0.0,0.06,1.35,-3.17,4.09,2.56,978.15,35.48
1888281,0.02,0.07,1.39,-2.87,5.8,2.44,978.17,35.47
1888319,0.04,0.07,1.33,-2.62,7.08,2.69,978.15,35.49
1888357,0.03,0.08,1.33,-2.38,5.37,2.87,978.17,35.48
1888395,-0.01,0.08,1.37,-2.56,4.58,3.17,978.18,35.5
1888433,0.02,0.07,1.44,-2.14,3.91,3.3,978.13,35.48
1888472,0.02,0.07,1.5,-2.01,3.42,3.6,978.16,35.48
1888510,0.02,0.08,1.5,-0.67,3.3,3.66,978.19,35.49
1888559,0.0,0.09,1.45,1.22,3.85,3.85,978.16,35.48
1888597,0.04,0.08,1.4,2.32,5.25,3.97,978.17,35.49
1888636,0.0,0.08,1.31,3.42,6.35,3.91,978.04,35.48
1888674,-0.01,0.08,1.24,3.97,5.55,3.97,978.05,35.49
1888712,-0.01,0.09,1.26,4.64,4.52,4.21,978.01,35.48
1888750,0.02,0.07,1.17,4.52,5.49,4.46,977.96,35.48
1888788,0.01,0.08,1.14,4.88,4.82,4.46,977.94,35.48
1888826,0.02,0.08,1.1,5.19,6.71,4.58,977.93,35.5
1888864,0.04,0.07,1.05,5.0,6.65,4.52,977.89,35.5
1888902,0.02,0.08,1.05,4.82,6.35,4.58,977.86,35.48
1888952,0.03,0.08,0.96,4.46,5.98,4.94,977.82,35.47
1888990,0.02,0.07,0.93,4.03,7.02,4.7,977.77,35.49
1889028,0.05,0.06,0.88,3.72,7.39,4.46,977.71,35.48
1889066,0.04,0.07,0.93,3.54,7.08,4.58,977.67,35.48
1889104,0.05,0.05,0.88,2.81,8.79,4.46,977.64,35.49
1889142,0.02,0.07,0.92,3.3,8.67,4.27,977.73,35.49
1889180,0.06,0.06,0.88,3.11,10.5,4.27,977.67,35.5
1889218,0.05,0.05,0.94,3.66,10.86,3.91,977.72,35.5
1889256,0.04,0.06,0.88,3.54,10.74,3.72,977.64,35.48
1889294,0.02,0.07,0.89,3.78,11.35,3.42,977.65,35.51
1889344,0.04,0.05,0.89,3.97,12.21,3.23,977.55,35.49
1889382,0.05,0.05,0.9,3.66,12.45,2.93,977.66,35.49
1889420,0.02,0.07,0.92,4.09,11.66,2.81,977.58,35.48
1889458,0.03,0.05,0.9,3.54,11.11,2.75,977.57,35.49
1889496,0.06,0.06,0.91,3.17,9.46,2.62,977.5,35.49
1889534,0.02,0.06,0.92,3.23,7.57,2.62,977.62,35.48
1889572,0.02,0.04,0.86,3.05,7.02,2.38,977.58,35.49
1889610,0.04,0.05,0.96,3.48,5.86,2.08,977.55,35.48
1889649,0.04,0.05,0.98,3.36,7.02,1.95,977.52,35.48
1889687,0.01,0.04,0.99,3.6,6.29,1.83,977.53,35.49
1889736,0.01,0.04,1.0,3.66,8.42,1.4,977.49,35.47
1889774,0.02,0.05,1.01,3.6,7.81,1.16,977.46,35.47
1889813,-0.01,0.03,0.94,3.42,8.91,0.92,977.51,35.5
1889851,0.01,0.05,0.93,3.17,8.24,0.92,977.45,35.5
1889889,0.02,0.04,0.95,3.36,8.85,0.67,977.42,35.48
1889927,0.0,0.04,0.86,3.23,8.36,0.73,977.41,35.48
1889965,0.01,0.05,0.94,3.85,6.29,0.67,977.41,35.5
1890003,0.01,0.03,0.93,3.91,8.36,0.43,977.37,35.5
1890041,-0.0,0.03,0.89,4.27,6.71,0.24,977.46,35.51
1890079,0.0,0.04,0.95,4.7,6.1,-0.06,977.43,35.49
1890155,0.01,0.03,0.88,4.7,7.69,-0.43,977.42,35.46
1890193,-0.0,0.05,0.93,5.68,5.25,-0.61,977.46,35.47
1890231,-0.03,0.04,0.79,5.31,7.32,-0.49,977.43,35.49
1890320,-0.02,0.05,0.77,5.74,6.96,-0.49,977.39,35.46
1890358,-0.04,0.05,0.78,6.77,5.31,-0.67,977.3,35.46
1890397,-0.04,0.04,0.78,6.41,7.2,-0.55,977.3,35.46
1890435,-0.0,0.04,0.77,6.65,6.35,-0.43,977.41,35.47
1890473,-0.03,0.05,0.76,6.77,5.49,-0.43,977.29,35.48
1890511,-0.04,0.03,0.67,6.47,5.92,-0.31,977.24,35.47
1890549,-0.05,0.04,0.68,6.9,5.13,-0.24,977.23,35.48
1890599,-0.03,0.05,0.6,6.04,5.55,-0.18,977.14,35.46
1890637,-0.04,0.04,0.66,6.23,5.49,-0.24,977.13,35.47
1890675,-0.04,0.03,0.62,5.62,8.36,-0.18,977.11,35.47
1890713,-0.04,0.05,0.66,5.74,9.34,0.06,977.15,35.48
1890751,-0.02,0.04,0.69,5.55,11.47,-0.06,977.12,35.5
1890789,-0.02,0.04,0.66,5.37,12.15,0.06,977.08,35.51
1890827,-0.03,0.04,0.73,5.62,12.51,0.18,977.03,35.48
1890865,-0.02,0.03,0.67,4.88,14.53,0.0,977.04,35.48
1890903,-0.04,0.05,0.74,5.0,13.0,0.06,977.04,35.48
1890941,-0.01,0.04,0.71,4.7,15.08,0.18,977.08,35.5
1890991,0.01,0.04,0.74,4.52,13.61,0.0,977.1,35.49
1891029,-0.01,0.05,0.71,3.48,13.61,0.06,977.06,35.48
1891067,-0.02,0.04,0.72,3.36,10.93,0.0,977.1,35.49
1891105,-0.02,0.03,0.76,2.38,8.0,0.12,977.04,35.49
1891143,-0.01,0.03,0.81,1.77,6.59,0.06,976.95,35.48
1891181,-0.0,0.02,0.81,1.04,5.62,0.06,976.9,35.48
1891220,0.0,0.04,0.89,0.73,2.38,-0.06,976.89,35.47
1891258,-0.01,0.02,0.89,0.49,1.71,-0.06,976.92,35.49
1891296,-0.0,0.02,0.86,0.06,2.2,-0.24,976.89,35.5
1891345,-0.02,0.02,0.94,0.79,1.65,-0.24,976.83,35.48
1891384,-0.01,0.01,0.89,0.37,0.24,-0.55,976.91,35.5
1891422,-0.03,0.03,0.93,0.85,-1.22,-0.67,976.86,35.48
1891460,0.0,0.01,0.89,0.43,-0.24,-0.92,976.8,35.48
1891498,0.02,0.01,0.92,0.43,-0.37,-1.34,976.79,35.48
1891536,-0.01,0.02,0.93,0.37,-1.59,-1.53,976.83,35.5
1891574,-0.02,0.02,0.99,0.12,-1.34,-1.59,976.85,35.48
1891612,-0.03,0.02,1.02,0.67,-0.92,-1.83,976.8,35.5
1891650,-0.03,0.01,1.01,0.79,-0.31,-2.08,976.85,35.51
1891688,-0.04,0.02,0.97,1.04,-0.55,-2.14,976.76,35.5
1891738,-0.04,0.03,0.96,0.43,-0.12,-2.2,976.78,35.49
1891776,-0.02,0.02,0.98,0.31,1.95,-2.69,976.8,35.49
1891814,-0.05,0.02,0.99,0.73,1.28,-2.75,976.81,35.5
1891852,-0.05,0.01,0.96,0.24,2.81,-2.69,976.81,35.49
1891890,-0.07,0.03,1.02,1.16,1.22,-2.69,976.77,35.49
1891928,-0.04,0.03,0.96,0.31,4.21,-2.69,976.78,35.48
1891966,-0.07,0.05,1.03,1.53,3.36,-2.75,976.74,35.48
1892005,-0.06,0.01,0.98,0.37,6.47,-2.38,976.76,35.5
1892043,-0.05,0.02,1.03,0.98,4.94,-2.26,976.73,35.5
1892092,-0.05,0.03,1.0,0.61,6.53,-2.14,976.66,35.48
1892130,-0.05,0.05,1.0,1.4,4.58,-2.08,976.72,35.49
1892168,-0.05,0.06,1.07,1.4,5.49,-2.08,976.71,35.49
1892207,-0.05,0.04,1.0,1.28,5.92,-1.95,976.69,35.5
1892245,-0.07,0.05,1.08,1.34,4.09,-2.01,976.75,35.5
1892283,-0.06,0.05,1.08,0.98,5.92,-1.77,976.68,35.5
1892321,-0.05,0.04,1.04,0.85,6.41,-1.71,976.67,35.5
1892359,-0.03,0.06,1.03,0.67,5.49,-1.65,976.72,35.49
1892397,-0.08,0.07,0.98,0.31,4.7,-1.53,976.65,35.5
1892435,-0.05,0.06,0.94,-0.37,4.52,-1.46,976.58,35.49
1892485,-0.03,0.06,1.0,-0.67,4.03,-1.53,976.62,35.49
1892523,-0.04,0.05,0.99,-1.04,4.88,-1.46,976.61,35.5
1892561,-0.1,0.07,1.01,-1.1,2.69,-1.1,976.61,35.49
1892599,-0.06,0.06,1.05,-1.65,5.07,-0.98,976.6,35.5
1892637,-0.03,0.06,1.08,-1.53,4.52,-1.22,976.55,35.5
1892675,-0.09,0.07,1.13,-1.34,4.64,-0.92,976.56,35.49
1892713,-0.04,0.07,1.08,-1.28,4.33,-0.79,976.6,35.5
1892751,-0.06,0.08,1.17,-0.06,3.66,-0.79,976.56,35.5
1892789,-0.05,0.06,1.08,0.18,4.27,-0.55,976.54,35.5
1892827,-0.07,0.07,1.1,1.4,2.2,-0.43,976.55,35.51
1892877,-0.07,0.07,1.03,2.26,0.73,0.0,976.49,35.48
1892915,-0.08,0.06,1.01,2.99,0.43,0.0,976.48,35.5
1892953,-0.06,0.07,0.98,3.66,0.12,0.18,976.47,35.5
1892991,-0.06,0.06,0.98,4.27,-0.24,0.49,976.5,35.5
1893029,-0.06,0.06,0.96,4.7,-0.67,0.67,976.47,35.52
1893067,-0.08,0.07,0.94,4.64,-0.98,0.98,976.45,35.5
1893105,-0.07,0.07,0.87,4.64,-1.1,1.22,976.43,35.51
1893143,-0.08,0.08,0.93,4.88,-1.53,1.34,976.43,35.52
1893181,-0.07,0.07,0.82,3.66,-0.12,1.46,976.45,35.5
1893257,-0.06,0.04,0.89,3.78,0.0,2.01,976.46,35.48
1893295,-0.04,0.05,0.86,3.05,-1.77,2.26,976.44,35.48
1893333,-0.08,0.09,0.79,2.69,-3.23,2.69,976.43,35.49
1893422,-0.01,0.06,0.77,1.95,-3.23,3.05,976.43,35.46
1893461,-0.04,0.06,0.93,2.75,-3.66,3.17,976.45,35.48
1893499,-0.04,0.03,0.81,1.83,-2.99,3.72,976.47,35.49
1893537,-0.04,0.05,0.92,2.62,-3.05,3.6,976.51,35.49
1893575,-0.03,0.07,0.87,1.71,-0.37,3.54,976.47,35.48
1893613,-0.05,0.06,0.92,2.75,-0.73,3.66,976.49,35.49
1893651,-0.02,0.05,0.83,1.89,3.17,3.66,976.45,35.49
1893701,-0.04,0.05,0.9,2.56,5.43,3.54,976.5,35.48
1893739,-0.03,0.04,0.85,2.32,7.14,3.91,976.5,35.48
1893777,-0.03,0.06,0.96,2.81,7.08,4.15,976.47,35.48
1893815,-0.04,0.05,0.92,2.38,8.61,4.15,976.44,35.5
1893853,-0.03,0.05,0.93,2.5,7.26,4.46,976.43,35.5
1893891,-0.03,0.05,0.96,2.38,7.02,4.88,976.5,35.51
1893929,-0.03,0.04,0.95,2.2,6.77,4.7,976.43,35.49
1893967,-0.03,0.06,1.0,2.14,5.68,5.07,976.47,35.5
1894005,-0.02,0.05,1.02,2.5,4.46,5.49,976.43,35.5
1894043,-0.02,0.04,1.01,2.44,2.87,5.62,976.48,35.5
1894093,-0.01,0.05,1.04,2.75,1.22,5.55,976.45,35.5
1894131,-0.01,0.04,1.01,3.05,0.43,5.98,976.47,35.5
1894169,0.01,0.03,1.0,3.23,-0.92,5.68,976.42,35.5
1894207,-0.02,0.04,0.99,3.36,-1.46,5.62,976.39,35.5
1894245,-0.01,0.03,0.95,3.48,-0.61,5.86,976.41,35.52
1894283,0.01,0.04,0.95,3.72,-1.1,5.55,976.38,35.51
1894321,-0.04,0.04,0.92,3.91,0.18,5.31,976.43,35.51
1894359,0.0,0.04,0.87,3.91,0.31,5.49,976.5,35.51
1894397,0.01,0.05,0.95,4.52,-0.12,5.25,976.38,35.49
1894435,-0.0,0.03,0.81,3.78,1.59,5.25,976.35,35.5
1894485,-0.02,0.06,0.88,4.76,-0.49,5.31,976.31,35.49
1894523,0.01,0.03,0.86,3.48,2.62,5.13,976.37,35.5
1894561,0.01,0.05,0.89,3.78,-0.37,5.07,976.31,35.51
1894599,-0.01,0.04,0.91,3.23,1.28,5.0,976.3,35.5
1894637,0.03,0.03,0.9,2.99,1.95,4.94,976.3,35.51
1894675,0.02,0.07,1.01,2.81,0.67,4.7,976.3,35.51
1894713,0.03,0.05,0.96,2.81,1.4,4.82,976.27,35.52
1894751,0.02,0.05,1.03,3.11,-0.24,4.33,976.3,35.52
1894789,0.0,0.04,0.99,2.56,2.26,4.21,976.24,35.51
1894828,0.0,0.05,0.96,2.69,2.2,3.91,976.16,35.51
1894877,0.0,0.04,0.88,2.08,5.25,3.91,976.1,35.49
1894915,0.02,0.05,0.87,1.89,5.25,3.66,976.16,35.5
1894953,0.02,0.05,0.92,1.71,7.02,3.6,976.07,35.49
1894991,0.01,0.04,0.9,1.59,7.32,3.78,976.1,35.5
1895029,0.01,0.04,0.91,1.28,8.18,3.66,976.13,35.5
1895067,0.01,0.05,0.92,1.46,7.32,3.54,976.12,35.51
1895105,0.01,0.04,0.92,1.04,8.54,3.36,976.21,35.51
1895143,0.02,0.03,0.91,1.04,9.16,3.23,976.09,35.5
1895181,0.02,0.04,0.93,1.28,8.48,3.11,976.14,35.51
1895219,0.02,0.04,0.91,0.98,8.0,3.17,976.12,35.5
1895269,0.03,0.06,1.0,1.59,5.07,3.17,976.12,35.48
1895307,0.04,0.04,0.96,1.4,3.54,3.23,976.15,35.5
1895345,0.02,0.04,1.0,1.71,0.43,3.23,976.12,35.5
1895383,0.04,0.04,0.99,1.65,0.43,3.05,976.12,35.5
1895421,0.05,0.04,1.01,1.89,-1.34,2.56,976.14,35.51
1895459,0.04,0.05,0.97,1.46,-2.14,2.69,976.04,35.5
1895498,0.03,0.05,0.98,1.65,-3.42,2.26,976.16,35.51
1895536,0.03,0.04,0.95,1.16,-2.69,1.83,976.06,35.5
1895574,0.03,0.04,0.96,0.31,-2.75,1.53,976.02,35.51
1895612,0.03,0.05,0.99,-0.61,-2.26,1.28,976.06,35.51
1895661,0.0,0.05,0.96,-1.4,-1.4,0.73,976.1,35.51
1895699,0.0,0.05,1.06,-1.28,-1.04,0.55,976.11,35.51
1895737,0.01,0.05,1.05,-1.89,1.59,0.43,976.04,35.5
1895775,0.02,0.06,1.08,-1.59,2.26,0.06,976.06,35.5
1895814,0.0,0.06,1.09,-1.4,3.6,0.12,975.99,35.5
1895852,-0.0,0.06,1.11,-1.04,3.85,0.0,976.01,35.51
1895890,0.01,0.05,1.12,-1.1,5.13,-0.06,976.07,35.51
1895928,0.01,0.06,1.14,-0.55,5.25,-0.24,976.05,35.5
1895966,0.0,0.06,1.14,-0.24,6.59,-0.18,976.05,35.51
1896016,-0.0,0.06,1.12,0.24,6.47,-0.12,976.13,35.5
1896054,0.0,0.06,1.14,0.98,7.93,-0.24,976.12,35.5
1896092,-0.0,0.07,1.15,1.46,7.45,-0.18,976.14,35.5
1896130,-0.03,0.07,1.13,1.46,8.18,-0.06,976.12,35.5
1896168,-0.02,0.07,1.13,1.65,8.18,-0.12,976.13,35.5
1896206,-0.01,0.07,1.13,1.53,9.4,-0.12,976.16,35.51
1896244,-0.01,0.08,1.13,1.22,9.28,0.06,976.13,35.51
1896282,-0.01,0.07,1.14,1.28,9.64,0.18,976.07,35.51
1896320,-0.01,0.06,1.11,0.98,10.74,0.18,976.16,35.53
1896358,-0.03,0.07,1.13,1.04,10.56,0.49,976.13,35.51
1896434,-0.01,0.06,1.15,0.61,10.99,0.67,976.03,35.49
1896472,-0.01,0.07,1.15,0.18,10.68,0.85,976.03,35.51
1896510,-0.03,0.07,1.18,0.67,9.77,0.92,976.07,35.5
1896600,-0.02,0.1,1.31,0.67,4.33,1.53,976.02,35.47
1896638,-0.0,0.06,1.27,-0.61,5.68,1.95,976.05,35.49
1896676,0.03,0.06,1.39,0.06,1.22,2.01,976.14,35.5
1896714,-0.01,0.07,1.39,-0.79,0.92,2.08,976.07,35.48
1896752,-0.03,0.07,1.38,-0.18,-0.98,1.77,976.11,35.5
1896790,0.01,0.08,1.43,-0.24,-1.1,1.4,976.12,35.51
1896828,-0.04,0.1,1.23,-0.24,0.73,1.4,976.14,35.51
1896878,-0.02,0.09,1.3,0.85,1.59,1.04,976.1,35.5
1896916,-0.04,0.06,1.29,1.4,2.32,0.92,976.04,35.51
1896954,-0.06,0.06,1.24,2.08,1.77,0.73,976.01,35.51
1896992,-0.02,0.09,1.23,2.56,1.89,0.67,975.98,35.5
1897030,0.01,0.09,1.28,2.81,4.82,0.92,976.02,35.52
1897068,-0.01,0.04,1.18,3.85,5.25,0.49,975.95,35.51
1897106,-0.05,0.07,1.14,3.91,6.1,0.31,975.96,35.52
1897144,-0.04,0.07,1.24,5.07,6.65,0.49,975.9,35.51
1897182,-0.01,0.06,1.11,4.09,8.67,0.55,975.93,35.52
1897220,-0.07,0.1,1.14,4.94,7.14,0.18,975.87,35.52
1897270,-0.03,0.04,1.08,5.43,9.46,0.24,975.87,35.51
1897308,-0.01,0.07,1.09,5.07,9.22,0.24,975.88,35.52
1897346,-0.03,0.08,1.08,5.86,9.03,0.43,975.84,35.52
1897384,-0.07,0.06,1.0,6.16,9.46,0.55,975.82,35.51
1897422,-0.04,0.07,0.97,6.35,8.85,0.55,975.85,35.54
1897460,-0.01,0.06,0.93,6.23,9.22,0.43,975.78,35.53
1897498,-0.03,0.05,0.94,6.23,6.9,0.37,975.77,35.52
1897536,-0.01,0.05,0.86,5.49,7.14,0.73,975.73,35.53
1897574,-0.03,0.05,0.8,5.55,7.2,0.61,975.76,35.52
1897624,-0.03,0.06,0.88,5.98,4.33,1.1,975.73,35.52
1897662,-0.08,0.05,0.77,5.68,5.43,1.28,975.73,35.52
1897700,-0.08,0.05,0.74,5.8,3.48,1.28,975.66,35.51
1897738,-0.01,0.05,0.9,6.35,2.32,1.16,975.62,35.52
1897776,-0.04,0.04,0.79,5.31,3.36,1.83,975.57,35.52
1897814,-0.06,0.07,0.81,6.23,-0.92,2.38,975.61,35.54
1897852,-0.07,0.03,0.81,6.23,1.4,2.44,975.55,35.52
1897890,-0.03,0.03,0.77,6.47,-0.79,2.56,975.58,35.52
1897928,-0.06,0.05,0.76,6.53,-1.22,2.75,975.6,35.51
1897966,-0.04,0.03,0.67,6.65,-0.55,3.05,975.48,35.52
1898016,0.01,0.04,0.61,6.16,-0.73,2.93,975.5,35.5
1898054,-0.01,0.04,0.57,5.98,0.49,2.99,975.44,35.52
1898092,-0.03,0.01,0.5,5.37,-0.49,3.3,975.47,35.52
1898130,-0.04,0.02,0.57,4.94,-0.12,3.3,975.5,35.51
1898168,0.02,0.0,0.59,4.09,3.36,2.93,975.52,35.53
1898206,0.01,0.01,0.7,4.21,0.67,2.99,975.41,35.51
1898244,-0.0,-0.01,0.64,2.56,2.01,3.17,975.51,35.53
1898282,0.03,0.01,0.7,3.11,1.59,2.99,975.45,35.52
1898320,0.01,-0.0,0.71,2.32,5.37,2.62,975.49,35.5
1898358,0.0,0.01,0.69,2.01,3.6,2.81,975.52,35.52
1898408,-0.02,-0.0,0.71,2.08,2.5,2.56,975.45,35.51
1898446,0.0,-0.01,0.73,1.59,4.21,2.44,975.49,35.53
1898484,0.02,0.01,0.83,1.71,3.66,2.5,975.49,35.52
1898522,-0.03,-0.0,0.78,1.59,4.09,2.62,975.53,35.52
1898560,-0.03,-0.01,0.71,1.16,5.74,2.44,975.41,35.52
1898598,-0.02,-0.01,0.75,1.34,6.35,2.26,975.44,35.51
1898636,-0.03,-0.03,0.62,-0.61,9.03,2.44,975.41,35.52
1898674,-0.02,-0.01,0.7,-0.79,6.84,2.32,975.44,35.51
1898712,0.0,-0.02,0.71,-2.26,8.97,2.2,975.38,35.52
1898750,-0.01,0.0,0.89,-2.26,8.12,1.95,975.46,35.52
1898800,-0.02,-0.01,0.92,-3.54,9.95,2.38,975.47,35.51
1898838,-0.03,0.01,1.04,-2.93,8.24,2.38,975.48,35.51
1898876,-0.05,0.01,1.06,-3.17,10.25,2.38,975.45,35.52
1898914,0.01,0.01,1.08,-2.93,10.13,2.44,975.44,35.52
1898952,-0.03,0.02,1.15,-1.95,7.75,2.56,975.46,35.52
1898990,-0.03,-0.01,1.09,-1.53,8.06,2.75,975.43,35.52
1899028,-0.0,0.01,1.09,-1.46,6.1,2.75,975.51,35.53
1899066,-0.04,0.02,1.17,-0.85,4.15,2.99,975.36,35.52
1899104,-0.02,0.0,1.02,-1.65,4.03,3.23,975.44,35.52
1899154,-0.02,0.03,1.16,-0.18,1.46,2.81,975.38,35.51
1899192,0.02,0.01,1.09,-0.37,1.83,2.93,975.37,35.51
1899230,-0.02,0.04,1.09,0.31,-0.79,3.11,975.4,35.52
1899268,-0.02,0.04,1.18,1.22,0.85,2.56,975.33,35.54
1899306,-0.0,0.03,1.11,0.98,2.69,2.44,975.39,35.52
1899344,-0.02,0.06,1.24,2.32,-0.12,2.56,975.33,35.53
1899382,-0.04,0.02,1.15,2.08,2.62,2.38,975.32,35.52
1899420,-0.01,0.06,1.26,2.38,0.92,1.77,975.38,35.52
1899458,-0.01,0.07,1.29,2.14,2.5,1.89,975.34,35.53
1899496,-0.01,0.05,1.24,2.32,1.04,1.65,975.35,35.52
1899572,-0.02,0.06,1.15,1.95,3.66,1.22,975.32,35.5
1899610,-0.04,0.07,1.16,1.4,3.54,1.53,975.3,35.51
1899648,-0.02,0.04,1.15,0.85,3.48,1.65,975.31,35.5
1899738,-0.01,0.05,1.24,-0.55,0.92,1.71,975.23,35.48
1899776,-0.01,0.04,1.26,-0.55,0.12,1.53,975.3,35.5
1899814,-0.0,0.03,1.25,-0.79,-1.28,1.46,975.23,35.5
1899852,-0.01,0.03,1.28,-0.79,-1.46,1.28,975.31,35.52
1899890,-0.01,0.02,1.25,-0.37,-1.1,0.73,975.34,35.53
1899928,-0.01,0.01,1.17,-0.67,-0.92,0.43,975.32,35.52
1899966,-0.05,0.03,1.18,-0.18,-1.28,0.24,975.22,35.51
1900016,-0.05,0.0,1.09,0.06,0.55,-0.12,975.29,35.5
1900054,-0.05,0.02,1.12,-0.06,0.31,-0.18,975.25,35.52
1900092,-0.06,0.03,1.09,0.61,2.44,-0.12,975.26,35.52
1900130,-0.1,0.0,1.04,1.22,5.68,-0.43,975.26,35.53
1900168,-0.07,-0.0,0.98,0.79,8.48,-0.43,975.24,35.52
1900206,-0.1,0.02,1.02,1.46,7.14,-0.31,975.16,35.52
1900244,-0.07,-0.01,0.93,1.22,9.77,0.43,975.17,35.53
1900282,-0.07,0.01,0.9,0.79,8.48,0.43,975.26,35.52
1900320,-0.08,0.0,0.96,0.55,7.2,0.79,975.13,35.52
1900370,-0.07,-0.01,0.99,-0.06,5.68,1.04,974.99,35.51
1900408,-0.06,-0.01,1.05,-0.37,4.09,1.53,975.06,35.51
1900446,-0.06,-0.01,1.02,-0.79,3.23,1.65,975.06,35.53
1900484,-0.07,0.01,1.1,-0.12,1.28,1.71,974.97,35.5
1900522,-0.06,-0.0,0.99,-1.34,3.66,2.26,974.96,35.51
1900560,-0.06,0.0,1.13,-0.06,-0.49,2.32,975.03,35.52
1900598,-0.05,-0.03,1.01,-1.22,2.32,2.32,975.07,35.53
1900636,-0.07,-0.01,1.01,-0.98,0.06,2.32,974.95,35.52
1900674,-0.07,0.01,1.13,-0.73,1.4,2.56,974.89,35.52
1900712,-0.02,-0.01,1.04,-1.71,3.3,2.56,974.91,35.53
1900762,-0.06,0.02,1.18,-1.22,0.85,2.56,974.94,35.51
1900800,-0.06,-0.01,1.12,-2.32,3.54,2.99,975.0,35.51
1900838,-0.03,-0.01,1.22,-2.08,3.23,2.69,975.02,35.5
1900876,-0.04,-0.01,1.17,-3.11,4.82,2.81,975.04,35.52
1900914,0.01,0.04,1.31,-2.81,-1.65,3.54,974.93,35.52
1900953,-0.04,0.02,1.27,-2.5,0.85,4.03,974.95,35.52
1900991,-0.06,0.04,1.35,-3.66,-1.59,3.91,974.94,35.51
1901029,-0.04,0.03,1.61,-2.62,-3.05,3.91,974.94,35.53
1901067,-0.03,0.0,1.51,-4.76,-2.01,4.39,974.88,35.5
1901116,-0.05,0.07,1.67,-3.36,-1.59,4.39,974.9,35.51
1901154,0.0,0.04,1.55,-3.54,1.4,3.91,974.91,35.52
1901193,-0.07,0.07,1.57,-2.62,-0.67,4.27,974.87,35.52
1901231,-0.05,0.01,1.43,-1.65,5.86,4.09,974.87,35.53
1901269,-0.01,0.01,1.44,0.06,5.62,3.72,974.79,35.52
1901307,-0.03,0.04,1.35,0.31,8.61,4.09,974.77,35.53
1901345,-0.03,0.05,1.3,3.42,7.2,4.33,974.63,35.52
1901383,0.02,0.04,1.22,1.65,14.04,4.15,974.63,35.53
1901421,0.02,0.02,1.24,4.15,11.96,3.91,974.57,35.51
1901459,0.0,-0.01,1.18,3.66,13.43,4.21,974.51,35.53
1901509,-0.01,0.05,1.21,3.3,10.8,3.78,974.54,35.53
1901547,0.04,0.02,1.15,2.26,13.37,4.03,974.51,35.52
1901585,0.05,0.03,1.14,1.65,9.4,4.03,974.48,35.53
1901623,0.0,0.02,1.17,1.95,7.32,3.91,974.49,35.53
1901661,0.03,-0.0,1.09,1.04,7.63,3.91,974.52,35.53
1901699,0.06,0.04,1.28,1.53,3.23,3.66,974.52,35.53
1901737,0.02,0.04,1.28,1.34,0.18,4.03,974.54,35.53
1901775,0.02,0.0,1.26,1.4,-1.1,3.78,974.37,35.52
1901813,0.05,0.01,1.31,1.65,0.12,3.42,974.33,35.5
1901852,0.05,0.01,1.27,1.4,0.06,3.11,974.39,35.52
1901901,-0.01,-0.0,1.1,0.92,0.98,3.11,974.41,35.51
1901939,-0.03,0.01,1.01,1.83,1.22,2.2,974.39,35.51
1901977,0.03,-0.0,1.1,2.14,2.69,1.59,974.35,35.51
1902016,0.05,-0.02,0.9,1.53,3.91,1.34,974.37,35.53
1902054,0.01,0.02,0.92,2.56,1.95,0.98,974.35,35.52
1902092,-0.02,0.0,0.89,2.14,6.35,1.46,974.31,35.51
1902130,-0.01,0.0,0.93,2.69,3.78,1.4,974.31,35.52
1902168,-0.02,-0.02,0.88,2.44,4.88,0.98,974.3,35.52
1902206,-0.0,-0.02,0.82,2.44,3.72,0.85,974.28,35.52
1902244,0.04,0.01,0.92,2.69,3.23,0.79,974.21,35.53
1902294,0.02,0.01,0.75,1.89,2.62,0.85,974.17,35.53
1902332,-0.02,0.02,0.84,2.2,0.06,1.1,974.06,35.51
1902370,-0.01,-0.02,0.77,0.79,1.34,1.16,974.05,35.53
1902408,0.0,0.0,0.82,0.98,0.37,0.31,974.08,35.53
1902446,-0.03,0.01,0.84,0.73,0.12,0.43,974.05,35.52
1902484,0.01,0.01,0.8,0.37,-0.24,0.61,973.94,35.51
1902522,0.02,0.01,0.93,0.49,-0.49,0.24,974.01,35.52
1902560,-0.01,-0.01,0.86,-0.43,1.46,0.55,973.98,35.53
1902598,-0.02,0.01,0.93,-0.43,0.61,0.61,973.96,35.52
1902636,0.0,0.01,0.91,-1.28,2.87,0.31,973.93,35.52
1902712,-0.01,0.01,0.94,-1.77,3.05,0.43,973.91,35.5
1902750,0.0,0.01,0.93,-2.14,3.11,0.37,973.89,35.51
1902788,-0.01,0.02,1.02,-2.32,2.2,0.73,973.87,35.51
1902878,-0.03,0.02,1.16,-2.75,1.4,0.98,973.79,35.47
1902916,-0.01,0.03,1.2,-2.99,1.1,1.28,973.75,35.5
1902954,-0.04,0.04,1.23,-2.75,0.92,1.16,973.75,35.48
1902992,-0.01,0.03,1.22,-2.69,2.14,1.28,973.71,35.51
1903030,-0.01,0.03,1.24,-2.32,2.2,1.53,973.63,35.5
1903068,-0.02,0.04,1.27,-1.71,3.42,1.71,973.62,35.5
1903118,-0.03,0.05,1.26,-0.31,4.27,1.89,973.63,35.5
1903156,-0.03,0.06,1.26,0.61,4.88,2.01,973.54,35.51
1903194,-0.03,0.05,1.17,1.71,6.96,2.14,973.57,35.52
1903232,-0.02,0.06,1.2,3.3,8.06,2.14,973.53,35.53
1903270,-0.02,0.05,1.07,3.97,10.31,2.26,973.48,35.51
1903309,-0.02,0.08,1.06,5.13,9.7,2.56,973.48,35.51
1903347,-0.01,0.07,0.99,5.49,11.54,2.69,973.43,35.52
1903385,-0.01,0.07,0.94,6.1,10.93,2.81,973.42,35.53
1903423,-0.01,0.07,0.92,6.84,11.05,2.81,973.35,35.51
1903461,-0.0,0.07,0.88,7.02,10.62,3.05,973.31,35.52
1903511,0.0,0.08,0.82,7.45,9.64,3.3,973.31,35.5
1903549,-0.0,0.07,0.8,7.63,8.67,3.23,973.28,35.52
1903587,-0.01,0.07,0.75,7.45,8.24,3.42,973.22,35.52
1903625,0.01,0.08,0.74,7.45,7.57,3.54,973.16,35.52
1903663,0.01,0.08,0.74,6.96,7.39,3.36,973.16,35.52
1903701,-0.0,0.08,0.71,6.84,6.59,3.48,973.17,35.53
1903739,0.01,0.07,0.75,6.71,6.84,3.36,973.05,35.52
1903777,0.03,0.06,0.82,6.96,6.29,3.23,973.08,35.53
1903815,0.01,0.06,0.81,6.23,7.45,3.23,973.05,35.54
1903853,-0.0,0.07,0.79,5.98,8.12,3.05,973.07,35.54
1903903,0.01,0.05,0.89,5.68,9.28,2.87,972.95,35.51
1903941,0.02,0.05,0.84,5.55,10.13,2.69,972.96,35.53
1903979,-0.02,0.05,0.85,5.98,10.01,2.62,972.98,35.54
1904017,0.02,0.05,0.76,5.55,11.6,2.44,972.92,35.53
1904055,0.02,0.06,0.79,6.1,10.01,2.08,972.97,35.53
1904093,0.02,0.03,0.73,5.55,11.05,2.32,972.88,35.54
1904131,0.01,0.02,0.69,5.13,10.56,2.14,972.94,35.53
1904170,0.01,0.04,0.74,4.58,9.77,2.14,972.9,35.53
1904208,-0.0,0.04,0.75,3.66,8.67,1.71,972.95,35.54
1904246,0.0,0.03,0.78,3.42,8.06,1.71,972.97,35.54
1904295,0.01,0.02,0.82,3.23,7.93,1.4,972.91,35.53
1904333,-0.0,0.02,0.81,3.17,9.03,1.4,972.9,35.52
1904372,0.01,0.03,0.83,3.3,7.93,1.34,972.92,35.55
1904410,-0.0,0.02,0.85,3.48,8.36,1.34,972.84,35.53
1904448,0.01,0.0,0.8,3.3,8.42,1.34,972.79,35.53
1904486,-0.0,0.02,0.83,3.97,7.45,0.98,972.8,35.53
1904524,0.01,0.01,0.82,4.03,7.2,0.85,972.86,35.55
1904562,0.02,0.02,0.84,3.85,6.16,0.73,972.86,35.54
1904600,0.02,0.01,0.85,4.03,5.31,0.61,972.74,35.52
1904638,0.01,0.01,0.85,4.09,2.93,0.43,972.72,35.53
1904688,0.0,0.01,0.82,3.36,2.75,0.18,972.69,35.53
1904726,-0.0,0.02,0.83,3.78,1.16,-0.18,972.66,35.51
1904764,0.01,0.01,0.83,3.36,1.28,-0.24,972.69,35.53
1904802,-0.01,0.02,0.8,3.17,-0.06,-0.43,972.66,35.54
1904840,0.0,0.03,0.86,3.36,-0.06,-0.55,972.59,35.53
1904878,-0.01,0.03,0.86,3.05,0.92,-0.73,972.64,35.53
1904916,-0.01,0.02,0.92,3.54,1.59,-0.79,972.6,35.54
1904954,-0.02,0.02,0.9,3.36,1.34,-0.79,972.58,35.53
1904992,-0.03,0.03,1.04,4.03,1.22,-1.1,972.55,35.52
1905030,-0.01,0.03,0.94,3.42,3.91,-1.16,972.54,35.54
1905080,-0.02,0.06,1.06,4.88,3.3,-1.53,972.47,35.52
1905118,-0.03,0.04,0.91,4.09,4.76,-1.4,972.53,35.52
1905156,-0.02,0.06,0.96,5.37,1.4,-1.46,972.49,35.52
1905195,-0.05,0.06,0.9,4.82,5.0,-1.46,972.48,35.53
1905233,-0.05,0.07,0.89,5.43,3.54,-1.59,972.47,35.53
1905271,-0.05,0.08,0.93,5.74,4.03,-1.65,972.42,35.54
1905309,-0.03,0.07,0.89,5.86,4.7,-1.89,972.37,35.54
1905347,-0.05,0.07,0.9,5.92,4.88,-1.59,972.3,35.53
1905385,-0.06,0.09,0.93,6.16,5.0,-1.46,972.33,35.54
1905435,-0.07,0.08,0.86,5.43,5.49,-1.28,972.34,35.53
1905473,-0.07,0.1,0.92,5.92,4.58,-1.28,972.31,35.53
1905511,-0.07,0.08,0.85,5.25,6.23,-1.04,972.21,35.52
1905549,-0.06,0.08,0.83,5.43,4.64,-0.85,972.34,35.53
1905587,-0.08,0.09,0.78,5.62,5.92,-0.61,972.26,35.53
1905625,-0.08,0.08,0.78,5.74,5.37,-0.37,972.3,35.54
1905663,-0.05,0.08,0.75,5.43,5.37,-0.24,972.28,35.54
1905701,-0.07,0.08,0.76,5.49,4.58,-0.12,972.22,35.53
1905739,-0.06,0.07,0.75,5.43,4.7,0.12,972.25,35.54
1905777,-0.07,0.06,0.74,5.49,4.64,0.31,972.2,35.53
1905854,-0.07,0.06,0.71,5.25,3.3,0.98,972.15,35.5
1905892,-0.07,0.06,0.73,5.37,2.75,1.1,972.15,35.52
1905930,-0.07,0.06,0.73,5.13,2.75,1.28,972.17,35.52
1906019,-0.06,0.05,0.75,5.49,1.89,2.08,972.14,35.5
1906058,-0.04,0.04,0.76,5.13,2.62,2.26,972.16,35.5
1906096,-0.05,0.03,0.7,5.19,1.77,2.56,972.13,35.51
1906134,-0.06,0.04,0.72,5.37,1.04,2.69,972.09,35.5
1906172,-0.05,0.03,0.68,4.94,0.31,2.87,972.06,35.51
1906210,-0.04,0.03,0.68,5.37,-0.79,3.11,972.03,35.51
1906248,-0.04,0.02,0.63,5.0,-0.37,3.3,972.09,35.52
1906298,-0.05,0.02,0.64,5.43,-0.85,3.54,972.07,35.51
1906336,-0.04,0.01,0.59,5.07,0.98,3.36,972.02,35.51
1906374,-0.03,0.01,0.56,5.25,0.79,3.36,972.12,35.52
1906412,-0.04,0.01,0.58,5.19,1.95,3.48,972.03,35.52
1906450,-0.02,0.0,0.58,4.94,1.95,3.23,972.13,35.52
1906488,-0.03,-0.0,0.56,4.52,2.14,3.42,972.02,35.52
1906526,-0.03,-0.0,0.64,3.97,1.83,3.42,972.03,35.51
1906564,-0.03,-0.01,0.64,3.36,2.08,3.66,972.1,35.53
1906602,-0.02,-0.0,0.7,2.81,1.34,3.72,972.06,35.52
1906640,-0.02,-0.0,0.7,2.32,1.65,3.66,972.06,35.52
1906690,-0.01,-0.0,0.74,1.95,0.49,3.78,972.02,35.51
1906728,-0.0,0.0,0.81,1.71,0.18,3.54,972.03,35.52
1906766,-0.02,-0.0,0.83,1.59,-0.73,3.48,972.01,35.52
1906804,-0.01,0.01,0.9,1.77,-1.28,3.6,972.09,35.54
1906842,-0.0,0.0,0.92,2.14,-0.73,3.54,972.08,35.52
1906880,-0.02,0.01,0.91,2.44,-1.53,3.3,972.0,35.52
1906918,-0.01,0.01,0.96,2.81,-1.77,3.17,971.98,35.53
1906956,-0.0,-0.01,0.84,2.75,-0.98,2.93,972.04,35.52
1906994,0.0,-0.0,0.87,2.69,-1.59,2.81,971.99,35.52
1907044,-0.0,0.0,0.84,2.08,-1.28,2.81,971.98,35.51
1907082,-0.02,-0.0,0.77,1.16,-0.85,2.38,972.07,35.51
1907120,-0.0,0.01,0.83,0.92,-0.67,2.38,972.05,35.52
1907158,0.01,0.01,0.8,-0.12,0.49,2.08,972.06,35.53
1907196,-0.0,0.01,0.85,-0.18,0.49,1.89,972.04,35.51
1907234,0.02,0.0,0.86,-0.67,2.2,1.89,972.03,35.52
1907272,0.01,0.01,0.9,-0.37,1.71,1.53,972.05,35.53
1907310,-0.0,0.0,0.91,-0.67,2.2,1.59,972.09,35.52
1907348,-0.0,0.01,0.95,-0.24,1.83,1.22,972.07,35.53
1907386,0.02,0.01,0.97,-0.73,2.38,1.34,972.01,35.52
1907436,0.02,0.0,1.01,-0.49,1.1,1.22,972.08,35.52
1907474,0.01,0.01,1.06,-0.37,0.18,1.22,972.07,35.51
1907512,0.01,0.0,1.09,-0.37,0.18,1.1,972.04,35.52
1907550,0.01,0.02,1.11,-0.12,-0.67,1.16,972.08,35.52
1907588,-0.01,0.02,1.15,-0.24,-0.37,1.1,972.09,35.53
1907626,0.0,0.02,1.17,0.24,-0.18,0.85,972.06,35.52
1907664,0.01,0.04,1.17,-0.12,0.73,0.79,972.08,35.54
1907702,0.0,0.02,1.14,0.49,0.49,0.49,972.06,35.52
1907740,0.01,0.02,1.13,0.98,1.46,0.49,972.03,35.51
1907778,-0.0,0.02,1.1,0.98,2.81,0.31,972.06,35.53
1907828,-0.01,0.02,1.11,0.85,4.09,0.43,972.11,35.52
1907866,-0.01,0.02,1.09,1.04,3.78,0.24,972.11,35.54
1907904,-0.03,0.02,1.09,1.22,4.27,0.31,972.17,35.54
1907942,-0.01,0.01,1.06,1.22,4.39,0.37,972.13,35.54
1907980,-0.02,0.02,1.09,1.34,3.42,0.43,972.18,35.53
1908018,-0.03,0.01,1.07,1.59,4.46,0.67,972.21,35.53
1908056,-0.01,0.01,1.01,1.28,4.03,0.79,972.15,35.52
1908094,-0.03,0.02,1.03,1.34,3.78,0.92,972.18,35.53
1908132,-0.01,-0.0,0.99,0.98,3.66,1.22,972.16,35.53
1908170,-0.0,0.01,1.02,0.67,2.2,1.53,972.17,35.53
1908220,0.01,0.01,1.06,0.37,1.04,1.28,972.08,35.5
1908258,-0.0,0.01,1.05,0.0,0.0,1.65,972.2,35.54
1908296,-0.02,0.01,1.05,0.06,-0.98,1.77,972.14,35.53
1908334,-0.0,-0.01,1.04,-0.18,-1.1,1.71,972.12,35.54
1908372,-0.02,0.0,1.04,-0.06,-1.46,1.59,972.11,35.53
1908410,-0.0,-0.0,1.05,0.06,-1.22,1.46,972.13,35.54
1908448,0.0,0.0,1.03,0.31,-2.01,1.4,972.13,35.53
1908486,0.0,0.01,1.08,0.73,-0.92,1.59,972.12,35.54
1908524,-0.01,-0.0,1.03,0.43,-1.22,1.71,972.16,35.54
1908574,-0.02,0.01,1.09,0.67,-0.31,1.83,972.14,35.51
1908612,-0.02,-0.01,1.05,0.79,0.43,1.53,972.16,35.52
1908650,-0.01,0.01,1.09,1.1,0.31,1.46,972.13,35.52
1908688,-0.02,0.0,1.03,1.1,1.53,1.89,972.19,35.54
1908726,-0.03,0.01,1.0,1.4,2.2,1.83,972.11,35.54
1908764,-0.02,-0.0,0.97,1.59,3.05,1.77,972.11,35.52
1908802,-0.03,0.01,0.98,1.59,2.75,2.08,972.09,35.53
1908840,-0.04,0.0,0.95,1.46,4.46,2.32,972.09,35.53
1908878,-0.02,0.01,0.95,1.28,4.15,2.26,972.05,35.54
1908916,-0.02,0.01,0.99,1.4,5.07,2.32,972.12,35.55
1908992,-0.01,0.0,1.01,1.53,6.65,2.62,972.11,35.5
1909030,-0.04,0.01,0.97,1.16,7.45,2.81,972.07,35.52
1909068,-0.04,0.0,0.99,1.53,6.65,3.11,972.01,35.5
1909157,-0.02,0.01,1.0,0.24,5.62,3.54,972.03,35.49
1909196,-0.0,-0.0,0.97,-0.43,5.74,4.15,972.07,35.5
1909234,-0.01,0.0,1.0,-1.16,4.21,4.03,971.97,35.5
1909272,-0.02,0.0,1.04,-1.46,5.31,4.09,972.05,35.51
1909310,-0.0,0.01,1.11,-1.83,4.27,4.27,972.13,35.52
1909348,-0.0,0.01,1.16,-2.08,4.88,4.21,972.0,35.51
1909386,-0.01,0.01,1.22,-2.01,4.94,4.21,972.02,35.51
1909436,0.0,0.01,1.29,-1.71,5.92,4.46,972.04,35.51
1909474,-0.0,0.02,1.28,-1.77,6.71,4.46,972.1,35.52
1909512,0.0,0.02,1.31,-1.46,6.96,4.46,972.03,35.52
1909550,-0.0,0.01,1.29,-0.85,8.54,4.64,972.06,35.51
1909588,0.0,0.02,1.26,-0.73,8.24,4.64,971.98,35.52
1909626,0.0,0.01,1.28,0.06,8.36,4.76,972.05,35.52
1909664,0.02,0.01,1.24,-0.18,8.42,4.76,972.05,35.53
1909702,-0.01,0.02,1.23,0.55,7.32,4.76,971.95,35.53
1909740,0.01,0.01,1.19,0.55,8.54,4.76,972.0,35.53
1909778,0.0,0.01,1.18,0.92,7.87,4.76,971.99,35.53
1909828,0.0,0.02,1.14,1.16,8.48,4.64,971.98,35.51
1909866,0.0,0.02,1.2,1.28,8.24,4.64,971.98,35.53
1909904,-0.0,0.01,1.1,0.79,9.58,4.52,971.95,35.51
1909942,-0.0,0.03,1.21,1.65,8.42,4.58,971.95,35.52
1909980,0.0,0.01,1.18,0.92,10.5,4.7,972.0,35.53
1910018,0.0,0.03,1.21,0.92,9.16,4.64,971.96,35.54
1910056,0.0,0.02,1.26,1.04,9.7,4.64,971.95,35.54
1910094,0.01,0.01,1.16,0.37,9.4,4.52,971.95,35.54
1910132,-0.01,0.04,1.26,1.04,7.08,4.58,972.03,35.54
1910170,0.02,0.02,1.17,0.31,7.26,4.64,972.03,35.55
1910220,0.0,0.04,1.25,0.79,4.15,4.33,971.96,35.52
1910258,-0.0,0.02,1.16,0.79,6.41,4.46,971.95,35.52
1910296,0.01,0.03,1.19,1.22,3.85,4.03,971.91,35.52
1910334,0.0,0.04,1.24,1.77,4.7,4.03,972.01,35.53
1910372,-0.01,0.02,1.15,2.14,4.58,3.78,972.03,35.54
1910410,-0.01,0.04,1.16,2.38,2.62,3.6,971.9,35.53
1910449,0.01,0.02,1.09,2.44,3.54,3.11,971.9,35.54
1910487,-0.0,0.02,1.06,2.62,2.56,3.11,971.89,35.53
1910525,0.0,0.03,1.03,2.5,3.3,2.81,971.92,35.54
1910563,-0.0,0.03,1.03,2.62,2.62,2.81,971.91,35.54
1910613,-0.01,0.02,1.01,2.56,2.44,2.5,971.86,35.53
1910651,-0.01,0.03,1.01,2.62,2.32,2.14,971.84,35.53
1910689,-0.01,0.03,1.0,2.5,2.26,1.89,971.83,35.55
1910727,-0.01,0.03,0.98,2.69,1.71,1.59,971.83,35.55
1910765,-0.0,0.03,0.96,2.75,2.01,1.53,971.76,35.54
1910803,-0.02,0.03,0.95,2.87,1.53,1.22,971.71,35.54
1910841,-0.02,0.03,0.92,2.44,1.71,1.22,971.76,35.56
1910879,-0.02,0.04,0.97,2.5,0.98,0.85,971.69,35.54
1910917,-0.01,0.03,0.92,1.95,1.59,0.79,971.75,35.54
1910967,-0.03,0.04,0.97,2.32,0.67,0.61,971.7,35.54
1911005,-0.01,0.02,0.95,2.14,2.93,0.49,971.7,35.53
1911043,-0.01,0.03,0.96,2.26,1.83,0.18,971.68,35.54
1911081,-0.02,0.03,0.95,2.26,2.14,0.24,971.71,35.54
1911119,-0.03,0.02,0.94,2.2,2.75,0.12,971.7,35.54
1911157,-0.03,0.04,0.97,2.44,3.17,0.12,971.67,35.54
1911195,-0.02,0.03,0.99,2.5,4.39,-0.12,971.63,35.55
1911234,-0.04,0.04,1.0,2.87,4.27,0.06,971.63,35.55
1911272,-0.05,0.0,0.98,3.11,4.58,0.0,971.62,35.55
1911310,-0.05,0.05,0.98,3.42,4.27,0.06,971.64,35.56
1911359,-0.05,0.05,0.94,3.17,4.21,0.31,971.53,35.55
1911397,-0.06,0.04,0.96,3.54,2.99,0.49,971.49,35.54
1911436,-0.04,0.03,0.92,3.6,2.32,0.73,971.46,35.55
1911474,-0.04,0.02,0.87,3.36,0.79,0.98,971.47,35.54
1911512,-0.07,0.04,0.86,3.42,-0.79,1.22,971.49,35.55
1911550,-0.07,0.03,0.82,3.36,-1.34,1.89,971.45,35.55
1911588,-0.05,0.03,0.81,3.17,-1.77,1.89,971.44,35.54
1911626,-0.07,0.03,0.81,3.17,-2.5,2.08,971.39,35.55
1911664,-0.08,0.02,0.77,2.69,-2.56,2.44,971.45,35.55
1911702,-0.07,0.03,0.83,2.62,-2.14,2.56,971.43,35.56
1911752,-0.06,0.03,0.86,2.38,-1.22,3.05,971.47,35.53
1911790,-0.07,0.03,0.83,2.44,-0.31,3.23,971.43,35.54
1911828,-0.07,0.03,0.81,2.01,0.49,3.48,971.46,35.54
1911866,-0.07,0.04,0.85,2.08,0.92,3.48,971.43,35.55
1911904,-0.07,0.02,0.86,1.95,1.34,3.91,971.48,35.55
1911942,-0.06,0.02,0.89,1.71,0.98,4.33,971.36,35.54
1911980,-0.05,0.03,0.91,1.53,2.32,4.52,971.36,35.54
1912018,-0.06,0.03,0.95,1.4,2.75,4.58,971.36,35.54
1912056,-0.07,0.02,0.93,0.92,3.97,4.88,971.36,35.54
1912094,-0.07,0.03,0.97,0.61,3.91,5.0,971.38,35.55
1912170,-0.04,0.02,0.95,-0.67,5.31,5.55,971.36,35.52
1912208,-0.05,0.03,1.0,-0.73,5.8,5.62,971.31,35.53
1912246,-0.04,0.03,0.98,-0.98,6.29,5.98,971.34,35.53
1912335,-0.06,0.02,1.01,-1.16,6.1,6.41,971.31,35.48
1912374,-0.02,0.03,1.08,-1.28,5.37,6.35,971.36,35.51
1912412,-0.03,0.03,1.08,-1.53,4.58,6.35,971.34,35.52
1912450,-0.03,0.04,1.16,-1.4,3.97,6.41,971.38,35.52
1912488,-0.02,0.03,1.19,-1.22,4.33,6.41,971.36,35.52
1912526,-0.0,0.04,1.24,-0.98,3.72,6.23,971.31,35.51
1912576,-0.01,0.04,1.3,-0.37,2.2,6.29,971.33,35.51
1912614,-0.02,0.04,1.25,-0.06,2.44,6.47,971.35,35.51
1912652,0.0,0.04,1.25,0.43,1.22,6.16,971.29,35.52
1912690,-0.0,0.05,1.27,1.04,-0.24,6.04,971.35,35.53
1912728,-0.01,0.04,1.21,1.22,1.16,5.92,971.33,35.53
1912766,0.01,0.05,1.23,2.01,0.73,5.55,971.33,35.54
1912804,-0.0,0.04,1.23,2.5,0.67,5.37,971.25,35.53
1912842,0.0,0.04,1.19,3.05,-0.12,5.13,971.28,35.53
1912880,-0.0,0.04,1.21,3.66,0.12,5.19,971.27,35.53
1912918,0.02,0.04,1.1,3.97,-0.79,4.7,971.25,35.55
1912968,-0.02,0.05,1.07,4.46,-2.01,4.64,971.17,35.53
1913006,-0.01,0.03,1.0,3.78,-1.46,4.76,971.18,35.52
1913044,0.02,0.04,1.04,3.54,-3.05,4.15,971.15,35.53
1913082,-0.0,0.04,0.99,2.93,-2.2,3.85,971.13,35.52
1913120,-0.04,0.04,1.02,2.99,-2.75,3.78,971.15,35.53
1913158,-0.01,0.02,1.0,2.14,-0.98,3.85,971.12,35.54
1913196,-0.03,0.03,0.99,1.65,-1.1,3.17,971.04,35.53
1913235,-0.04,0.05,1.02,1.34,-0.24,3.11,971.14,35.54
1913273,0.01,0.03,1.0,0.49,2.14,3.3,971.06,35.52
1913311,-0.0,0.03,1.05,0.73,2.69,2.93,971.05,35.54
1913360,-0.02,0.02,0.98,-0.12,5.37,3.11,971.07,35.52
1913398,-0.05,0.04,1.06,0.43,5.8,2.87,971.08,35.52
1913436,-0.02,0.02,1.01,0.0,7.63,2.81,971.11,35.52
1913474,-0.0,0.03,1.08,0.55,7.45,2.38,971.1,35.52
1913513,-0.03,0.03,1.04,0.92,9.46,2.38,971.1,35.52
1913551,-0.01,0.02,1.04,1.65,10.62,2.2,971.04,35.51
1913589,-0.01,0.03,1.05,2.62,10.86,2.08,971.1,35.52
1913627,-0.06,0.02,1.03,3.11,11.54,2.08,971.08,35.53
1913665,-0.04,0.01,0.98,3.42,11.54,2.01,971.07,35.54
1913703,-0.05,0.03,1.0,3.97,11.11,1.83,970.99,35.53
1913753,-0.03,0.03,0.95,3.97,9.03,2.08,970.88,35.53
1913791,-0.06,0.03,0.93,4.15,7.26,2.26,970.83,35.52
1913829,-0.06,0.02,0.84,3.91,6.1,2.5,970.75,35.52
1913867,-0.08,0.03,0.92,4.33,3.66,2.75,970.73,35.52
1913905,-0.08,0.02,0.8,3.23,4.7,2.81,970.76,35.55
1913943,-0.08,0.03,0.79,3.42,1.95,2.81,970.76,35.54
1913981,-0.08,0.03,0.81,3.23,1.83,3.11,970.72,35.54
1914019,-0.05,0.02,0.77,2.75,1.83,3.36,970.69,35.54
1914057,-0.06,0.03,0.78,2.87,1.22,3.42,970.66,35.54
1914095,-0.08,0.04,0.76,2.38,0.61,3.91,970.71,35.54
1914145,-0.06,0.03,0.84,1.4,-0.24,4.39,970.61,35.53
1914183,-0.04,0.03,0.92,0.67,-0.98,4.46,970.56,35.53
1914221,-0.07,0.02,0.96,-0.24,-0.73,4.7,970.58,35.52
1914259,-0.04,0.04,1.01,-0.55,-1.83,4.94,970.63,35.53
1914297,-0.04,0.03,1.06,-0.85,-1.77,5.07,970.67,35.54
1914335,-0.04,0.04,1.07,-1.16,-2.2,5.25,970.6,35.54
1914373,-0.07,0.04,1.11,-1.16,-1.77,5.49,970.6,35.53
1914411,-0.05,0.03,1.09,-1.28,-1.28,5.37,970.68,35.54
1914449,-0.06,0.04,1.16,-1.22,-2.44,5.25,970.64,35.54
1914499,-0.06,0.03,1.12,-1.22,-0.37,5.37,970.55,35.52
1914537,-0.07,0.04,1.14,-0.73,0.0,5.55,970.68,35.52
1914575,-0.06,0.03,1.08,-0.12,2.08,5.62,970.7,35.54
1914613,-0.06,0.04,1.08,0.24,1.53,6.04,970.69,35.54
1914651,-0.07,0.04,1.09,0.79,4.03,5.98,970.68,35.55
1914689,-0.06,0.03,1.01,0.49,5.25,6.35,970.65,35.53
1914727,-0.04,0.04,1.08,0.79,4.64,6.53,970.64,35.54
1914765,-0.05,0.03,1.03,0.06,4.46,6.77,970.59,35.53
1914803,-0.05,0.03,1.04,-0.24,3.85,6.96,970.64,35.54
1914841,-0.02,0.03,1.06,-0.73,4.27,6.9,970.66,35.54
1914891,-0.0,0.03,1.07,-1.22,3.3,7.08,970.69,35.54
1914929,-0.02,0.03,1.06,-1.71,3.85,7.14,970.65,35.54
1914967,-0.03,0.03,1.07,-2.01,3.54,7.08,970.58,35.54
1915005,-0.03,0.04,1.11,-2.14,3.6,6.84,970.57,35.53
1915043,-0.01,0.05,1.12,-2.69,2.81,7.2,970.57,35.54
1915081,-0.01,0.06,1.2,-2.44,2.69,7.2,970.56,35.54
1915119,-0.01,0.03,1.19,-2.62,2.62,7.02,970.57,35.54
1915157,-0.0,0.05,1.24,-2.5,1.71,6.84,970.58,35.55
1915195,-0.01,0.05,1.27,-2.01,2.26,6.96,970.57,35.55
1915233,-0.02,0.05,1.25,-1.71,3.54,6.96,970.47,35.54
1915309,0.0,0.08,1.3,-0.61,4.82,6.53,970.45,35.52
1915347,-0.01,0.04,1.21,-0.06,7.69,6.29,970.45,35.52
1915385,-0.01,0.07,1.23,0.92,5.74,6.1,970.41,35.53
1915474,-0.02,0.07,1.26,1.83,5.8,6.84,970.42,35.49
1915513,-0.03,0.07,1.26,1.95,5.98,6.59,970.38,35.51
1915551,0.0,0.05,1.17,2.08,4.76,6.71,970.44,35.52
1915589,-0.0,0.07,1.14,1.53,2.93,6.84,970.33,35.52
1915627,0.02,0.1,1.06,0.98,2.08,6.71,970.36,35.52
1915665,-0.0,0.1,1.13,0.67,0.67,6.77,970.31,35.52
1915715,-0.03,0.07,1.16,0.24,1.89,6.41,970.28,35.51
1915753,-0.01,0.07,1.25,-0.24,3.05,6.41,970.32,35.53
1915791,-0.01,0.09,1.25,-0.31,4.64,5.86,970.25,35.51
1915829,-0.03,0.08,1.15,-0.18,7.2,5.74,970.26,35.53
1915867,0.0,0.08,1.19,-0.43,8.48,5.25,970.3,35.52
1915905,0.01,0.08,1.16,-0.92,10.07,5.55,970.15,35.53
1915943,-0.03,0.08,1.15,-0.55,9.16,5.49,970.2,35.52
1915981,-0.02,0.08,1.13,-0.85,10.31,5.43,970.16,35.53
1916019,0.02,0.08,1.25,-0.43,10.13,5.19,970.02,35.51
1916057,0.03,0.07,1.2,-0.61,11.29,5.25,970.08,35.51
1916107,0.02,0.1,1.27,0.67,8.36,5.0,970.12,35.54
1916145,0.04,0.08,1.27,1.28,9.22,4.7,970.07,35.52
1916183,0.03,0.09,1.27,1.95,8.73,4.7,970.04,35.54
1916221,0.01,0.08,1.26,3.23,6.71,4.33,970.04,35.53
1916259,0.0,0.05,1.16,2.75,6.16,3.91,969.95,35.52
1916297,0.03,0.08,1.23,3.3,4.21,3.66,969.92,35.52
1916335,0.0,0.08,1.16,3.72,4.03,3.36,969.9,35.53
1916373,-0.01,0.05,1.06,3.85,4.7,3.17,969.87,35.54
1916411,0.0,0.08,1.15,4.76,1.65,2.87,969.8,35.54
1916449,0.01,0.07,1.1,4.27,3.11,2.75,969.8,35.52
1916499,-0.05,0.09,1.12,5.49,-0.31,2.75,969.64,35.52
1916537,-0.05,0.07,1.11,5.19,2.32,2.75,969.7,35.53
1916575,-0.03,0.07,1.01,5.62,0.79,2.5,969.68,35.52
1916613,-0.09,0.07,1.08,6.35,0.85,2.62,969.66,35.52
1916651,-0.04,0.06,1.0,6.04,0.37,2.93,969.69,35.54
1916689,-0.06,0.07,0.97,6.53,-1.04,2.69,969.59,35.54
1916727,-0.01,0.05,0.92,6.35,-0.67,3.05,969.55,35.52
1916765,-0.04,0.05,0.83,6.59,-0.55,3.17,969.58,35.53
1916803,-0.04,0.07,0.82,6.9,-1.34,3.05,969.52,35.53
1916841,-0.05,0.07,0.79,6.71,-2.32,3.42,969.54,35.52
1916891,-0.05,0.05,0.77,6.96,-1.95,3.42,969.41,35.53
1916929,-0.04,0.06,0.79,7.32,-2.26,3.54,969.43,35.52
1916967,-0.04,0.06,0.74,7.08,-2.5,3.66,969.42,35.53
1917005,-0.05,0.07,0.71,7.26,-4.21,3.72,969.38,35.53
1917043,-0.05,0.05,0.63,7.32,-3.66,3.85,969.4,35.53
1917081,-0.05,0.06,0.59,7.26,-4.21,3.91,969.37,35.54
1917119,-0.03,0.07,0.61,7.32,-4.46,3.85,969.37,35.53
1917157,-0.04,0.07,0.57,7.14,-3.11,3.97,969.43,35.53
1917195,-0.08,0.08,0.58,7.87,-2.14,4.33,969.31,35.54
1917233,-0.07,0.06,0.56,7.87,0.24,4.58,969.35,35.52
1917283,-0.06,0.07,0.59,8.18,2.2,5.07,969.43,35.52
1917321,-0.06,0.08,0.52,7.69,5.62,5.49,969.39,35.53
1917359,-0.09,0.08,0.51,8.12,5.92,5.92,969.32,35.52
1917397,-0.05,0.06,0.54,7.93,7.39,6.16,969.27,35.53
1917435,-0.03,0.07,0.47,6.9,8.61,6.65,969.25,35.53
1917473,-0.04,0.07,0.5,7.63,7.08,7.2,969.25,35.53
1917511,-0.06,0.06,0.43,6.35,8.54,7.63,969.3,35.54
1917549,-0.03,0.06,0.55,7.02,5.68,7.93,969.19,35.53
1917587,-0.05,0.05,0.5,5.43,8.79,8.42,969.23,35.53
1917637,-0.01,0.08,0.53,5.86,5.86,8.79,969.12,35.52
1917675,-0.03,0.04,0.48,5.13,7.39,8.97,969.17,35.53
1917713,0.01,0.05,0.48,5.55,4.64,9.09,969.12,35.54
1917751,0.04,0.04,0.53,5.98,6.1,9.16,969.18,35.53
1917789,0.02,0.03,0.46,5.49,5.62,9.16,969.17,35.52
1917827,0.01,0.04,0.49,5.98,3.91,9.09,969.09,35.53
1917865,0.06,0.04,0.49,5.55,3.72,8.73,969.1,35.53
1917903,0.07,0.02,0.51,5.86,2.44,8.24,969.02,35.54
1917941,0.05,0.03,0.5,5.07,0.79,8.0,968.99,35.53
1917979,0.05,0.02,0.53,5.19,-0.61,8.0,969.05,35.53
1918029,0.04,0.02,0.51,4.15,-1.34,7.39,968.99,35.52
1918067,0.04,0.03,0.52,3.54,-1.83,7.02,969.0,35.51
1918105,0.06,0.01,0.57,3.23,-2.56,6.9,969.03,35.52
1918143,0.02,0.02,0.5,2.26,-2.14,6.47,969.06,35.54
1918182,0.03,0.01,0.59,2.5,-2.44,6.23,969.04,35.52
1918220,0.05,-0.01,0.52,1.22,0.31,5.8,969.1,35.53
1918258,0.03,0.01,0.58,1.53,-0.61,5.49,969.06,35.53
1918296,0.01,0.0,0.58,1.1,1.71,5.0,969.12,35.52
1918334,0.03,0.0,0.57,0.79,3.11,5.0,969.11,35.53
1918372,0.04,0.01,0.72,2.01,1.4,4.64,969.11,35.53
1918447,-0.01,0.02,0.59,1.4,1.46,4.21,969.13,35.5
1918485,0.05,0.0,0.65,1.71,2.14,3.78,969.08,35.52
1918523,0.03,-0.0,0.6,1.04,3.11,3.6,969.2,35.51
1918613,-0.0,0.01,0.69,1.46,2.2,3.54,969.18,35.48
1918651,0.02,0.01,0.76,1.65,1.4,3.23,969.12,35.5
1918689,0.04,0.01,0.79,0.85,0.85,3.05,969.09,35.51
1918727,0.03,0.01,0.81,0.67,-1.28,3.05,969.09,35.48
1918765,0.04,0.01,0.86,0.06,-1.71,2.93,969.11,35.51
1918803,0.05,0.02,0.89,-0.55,-2.5,2.38,969.14,35.5
1918841,0.02,0.02,0.94,-0.61,-3.85,2.62,969.08,35.52
1918891,0.04,0.02,0.98,-0.79,-4.33,2.38,969.13,35.5
1918929,0.03,0.04,1.09,-0.55,-6.77,2.2,969.2,35.52
1918967,0.04,0.02,1.06,-1.04,-6.65,2.08,969.14,35.51
1919005,0.04,0.03,1.12,-0.92,-9.28,2.01,969.13,35.5
1919043,0.04,0.04,1.14,-1.22,-8.67,1.95,969.19,35.52
1919081,0.03,0.03,1.11,-1.34,-9.64,1.89,969.28,35.52
1919119,-0.0,0.04,1.15,-1.22,-10.56,1.77,969.25,35.52
1919158,-0.0,0.04,1.15,-1.04,-9.89,1.59,969.22,35.51
1919196,-0.02,0.02,1.09,-0.67,-9.03,1.59,969.31,35.52
1919234,-0.03,0.03,1.11,0.06,-9.16,1.46,969.29,35.51
1919283,-0.07,0.01,1.0,0.31,-4.27,1.59,969.28,35.51
1919322,-0.05,0.0,0.89,0.49,-1.04,1.4,969.29,35.52
1919360,-0.03,0.04,0.93,1.77,2.87,1.59,969.28,35.52
1919398,-0.02,0.01,0.77,1.53,8.67,1.53,969.23,35.52
1919436,-0.02,0.02,0.79,2.38,10.31,2.01,969.33,35.52
1919474,-0.04,0.01,0.82,2.2,12.33,2.5,969.38,35.54
1919512,-0.02,0.0,0.91,1.89,13.43,2.62,969.32,35.54
1919550,-0.02,0.0,0.92,1.53,13.98,2.99,969.37,35.53
1919588,-0.02,0.01,0.95,1.16,13.43,3.54,969.38,35.53
1919638,0.0,0.01,0.96,0.24,13.67,4.03,969.42,35.52
1919676,-0.02,0.01,0.89,-0.79,13.61,4.21,969.47,35.53
1919714,-0.02,0.03,0.95,-1.22,11.23,4.58,969.47,35.53
1919752,0.0,0.01,0.96,-2.44,11.84,4.88,969.51,35.53
1919790,-0.02,0.01,1.02,-2.75,10.62,5.25,969.5,35.54
1919828,-0.02,0.01,1.07,-3.3,10.56,5.74,969.55,35.52
1919866,-0.03,0.01,1.14,-3.23,9.34,5.86,969.57,35.55
1919904,-0.03,0.02,1.16,-3.42,10.07,6.23,969.51,35.52
1919943,-0.02,0.02,1.2,-3.48,9.77,6.65,969.57,35.51
1919981,-0.01,0.01,1.21,-3.6,10.19,6.96,969.6,35.53
1920030,-0.02,0.02,1.23,-3.36,10.01,7.08,969.72,35.51
1920068,-0.0,0.01,1.21,-3.48,11.29,7.51,969.66,35.54
1920107,-0.01,0.03,1.3,-2.75,9.7,7.63,969.67,35.52
1920145,-0.03,0.01,1.28,-3.17,10.93,7.87,969.67,35.52
1920183,-0.02,0.01,1.3,-2.69,10.13,8.3,969.74,35.53
1920221,-0.01,0.02,1.33,-2.69,10.86,8.42,969.73,35.54
1920259,-0.0,0.01,1.31,-2.2,10.31,8.79,969.71,35.52
1920297,-0.02,0.02,1.31,-1.95,9.89,8.91,969.65,35.53
1920335,-0.01,0.02,1.3,-1.95,9.89,9.09,969.7,35.53
1920373,-0.0,0.01,1.3,-1.89,10.19,9.28,969.73,35.53
1920423,0.01,0.02,1.27,-1.89,10.07,9.09,969.76,35.51
1920461,0.02,0.02,1.3,-1.77,9.83,9.4,969.77,35.54
1920499,0.02,0.01,1.29,-1.59,10.74,9.16,969.77,35.52
1920537,0.0,0.03,1.29,-1.65,9.58,9.22,969.72,35.52
1920575,0.05,0.01,1.26,-2.26,12.27,9.09,969.75,35.52
1920613,0.02,0.01,1.29,-1.53,11.78,9.09,969.77,35.52
1920651,0.01,0.02,1.25,-2.01,11.54,8.97,969.79,35.52
1920689,0.03,0.04,1.27,-2.01,11.96,8.67,969.79,35.54
1920727,0.03,0.04,1.33,-2.01,12.08,8.67,969.77,35.53
1920777,0.03,0.03,1.27,-2.5,12.15,8.61,969.77,35.52
1920815,0.01,0.04,1.38,-1.59,10.56,8.42,969.78,35.53
1920853,0.06,0.03,1.4,-1.89,11.84,8.24,969.84,35.51
1920891,0.03,0.04,1.4,-1.53,9.77,8.12,969.86,35.52
1920929,0.03,0.03,1.38,-0.67,9.77,7.81,969.96,35.51
1920968,-0.01,0.04,1.37,0.18,7.69,7.32,969.9,35.54
1921006,0.03,0.05,1.37,0.67,5.43,7.26,969.9,35.52
1921044,0.05,0.04,1.34,0.43,4.64,7.08,969.9,35.54
1921082,0.03,0.04,1.3,1.22,2.38,6.65,969.92,35.52
1921120,0.03,0.04,1.24,1.4,1.71,6.41,969.91,35.54
1921170,0.01,0.06,1.18,2.01,-0.37,5.74,969.86,35.53
1921208,0.01,0.03,1.15,2.2,0.06,5.37,969.94,35.52
1921246,0.02,0.03,1.11,2.44,0.61,5.0,969.88,35.53
1921284,0.01,0.04,1.06,2.5,0.0,4.21,969.85,35.54
1921322,0.02,0.03,1.05,2.44,-0.37,3.91,969.79,35.53
1921360,0.02,0.03,1.02,2.2,0.18,3.42,969.8,35.53
1921398,-0.0,0.04,1.03,2.01,-0.73,3.05,969.8,35.53
1921436,0.01,0.03,0.97,1.65,0.37,2.5,969.83,35.54
1921474,0.01,0.04,0.99,1.77,0.37,2.2,969.88,35.54
1921512,0.02,0.03,1.0,1.46,1.28,1.59,969.93,35.54
1921588,-0.0,0.04,1.03,1.46,1.34,1.04,969.9,35.51
1921626,-0.01,0.02,1.03,1.46,1.71,0.79,969.88,35.52
1921664,-0.0,0.03,1.03,1.46,1.46,0.43,969.89,35.52
1921753,-0.03,0.02,1.0,1.4,2.08,-0.12,969.83,35.49
1921791,-0.01,0.03,1.01,1.34,2.5,-0.24,969.82,35.51
1921829,-0.03,0.03,1.0,1.4,1.4,-0.24,969.81,35.51
1921867,-0.04,0.02,1.0,1.53,2.01,-0.24,969.8,35.51
1921905,-0.04,0.03,1.0,1.65,1.46,-0.31,969.84,35.54
1921943,-0.04,0.03,1.04,1.95,0.49,-0.18,969.77,35.51
1921981,-0.06,0.02,1.0,1.71,0.37,-0.12,969.75,35.52
1922031,-0.07,0.03,1.01,2.14,-0.55,-0.06,969.71,35.52
1922069,-0.05,0.02,1.0,1.89,-0.49,0.06,969.79,35.52
1922107,-0.06,0.02,0.98,2.01,-0.98,0.31,969.79,35.53
1922145,-0.09,0.02,0.92,2.2,-0.49,0.43,969.78,35.53
1922183,-0.07,0.03,0.92,1.95,-0.49,0.37,969.75,35.52
1922221,-0.06,0.02,0.94,1.95,-0.67,0.67,969.78,35.53
1922259,-0.08,0.02,0.86,1.59,0.24,0.98,969.8,35.53
1922297,-0.08,0.02,0.92,1.53,0.61,1.04,969.84,35.53
1922335,-0.06,0.01,0.91,1.04,2.56,1.1,969.86,35.54
1922385,-0.07,0.02,0.95,0.24,2.5,1.46,969.82,35.52
1922423,-0.08,0.02,0.96,-0.12,3.6,1.89,969.87,35.53
1922461,-0.08,0.02,1.01,-0.18,3.36,2.08,969.88,35.54
1922499,-0.08,0.03,1.03,-0.37,4.15,2.2,969.87,35.54
1922537,-0.08,0.03,1.05,-0.18,4.27,2.44,969.87,35.54
1922575,-0.09,0.03,1.08,0.0,4.7,2.69,969.92,35.54
1922613,-0.08,0.03,1.09,0.18,4.76,3.17,969.9,35.54
1922651,-0.08,0.03,1.11,0.49,4.09,3.6,969.89,35.55
1922690,-0.08,0.03,1.08,0.73,4.7,4.09,969.86,35.54
1922728,-0.09,0.03,1.09,1.22,3.85,4.15,969.84,35.54
1922777,-0.07,0.02,1.08,1.28,4.27,4.7,969.88,35.53
1922815,-0.08,0.02,1.04,1.65,4.58,4.82,969.87,35.54
1922854,-0.08,0.03,1.04,2.01,3.42,5.19,969.9,35.54
1922892,-0.08,0.02,1.03,2.01,4.21,5.49,969.84,35.54
1922930,-0.08,0.03,1.0,2.32,3.91,5.68,969.83,35.54
1922968,-0.07,0.03,1.04,2.14,4.46,6.1,969.84,35.56
1923006,-0.08,0.02,1.0,2.01,5.55,6.16,969.92,35.55
1923044,-0.08,0.03,1.01,2.14,5.25,6.23,969.94,35.56
1923082,-0.06,0.02,1.0,1.34,7.39,6.53,969.92,35.54
1923120,-0.05,0.02,1.0,1.1,8.06,6.71,969.92,35.54
1923170,-0.04,0.03,1.03,0.55,9.22,6.65,969.94,35.53
1923208,-0.04,0.02,1.02,0.31,9.77,6.84,969.86,35.53
1923246,-0.05,0.02,1.07,0.24,9.4,6.96,969.94,35.54
1923284,-0.05,0.01,1.09,0.06,9.77,6.84,969.88,35.54
1923322,-0.04,0.01,1.08,-0.12,9.7,6.65,970.0,35.54
1923360,-0.03,0.02,1.14,0.12,8.67,6.71,969.97,35.54
1923398,-0.03,0.02,1.13,-0.18,8.73,7.08,969.83,35.53
1923437,-0.05,0.02,1.18,0.18,6.59,7.14,969.9,35.54
1923475,-0.04,0.01,1.17,-0.31,5.68,6.9,969.92,35.53
1923513,-0.04,0.02,1.2,-0.12,3.78,6.9,969.92,35.56
1923562,-0.04,0.01,1.17,0.06,3.48,6.59,969.9,35.56
1923600,-0.03,0.02,1.16,-0.06,2.93,6.35,969.88,35.54
1923638,-0.03,0.01,1.14,0.55,3.05,6.41,969.84,35.54
1923677,-0.04,0.0,1.07,0.55,2.38,6.35,969.84,35.54
1923715,-0.06,0.02,1.1,0.79,2.75,6.23,969.79,35.56
1923753,-0.05,-0.0,1.08,0.85,2.75,5.86,969.85,35.54
1923791,-0.04,0.01,1.07,0.73,2.2,5.62,969.82,35.54
1923829,-0.06,0.01,1.07,1.04,2.14,5.74,969.84,35.54
1923867,-0.07,0.0,1.07,0.67,2.69,5.86,969.79,35.53
1923905,-0.04,0.0,1.11,0.85,2.69,5.62,969.76,35.54
1923955,-0.1,0.02,1.08,0.79,2.75,5.74,969.79,35.53
1923993,-0.09,0.01,1.1,0.85,3.3,5.92,969.8,35.54
1924031,-0.06,0.01,1.1,0.61,3.6,5.74,969.71,35.53
1924069,-0.06,0.02,1.12,1.1,3.17,5.92,969.74,35.53
1924107,-0.07,0.01,1.03,0.85,4.09,6.23,969.69,35.54
1924145,-0.08,0.02,1.06,1.1,2.87,6.41,969.74,35.53
1924183,-0.07,0.01,1.06,0.98,3.54,6.65,969.81,35.55
1924221,-0.09,0.01,1.06,0.98,2.08,6.77,969.76,35.53
1924259,-0.08,0.02,1.05,0.98,2.62,6.9,969.75,35.54
1924309,-0.07,0.02,1.04,1.22,2.87,6.96,969.8,35.53
1924347,-0.06,0.02,1.07,0.85,2.69,7.32,969.69,35.53
1924385,-0.07,0.01,1.02,0.92,2.99,7.51,969.75,35.54
1924423,-0.08,0.02,1.0,0.73,2.87,7.51,969.77,35.54
1924461,-0.07,0.03,1.02,0.85,3.11,7.57,969.82,35.54
1924499,-0.06,0.02,1.01,0.61,4.03,7.87,969.8,35.54
1924537,-0.06,0.03,1.01,0.43,4.46,8.12,969.76,35.52
1924575,-0.05,0.02,1.03,0.18,4.94,8.0,969.82,35.54
1924613,-0.05,0.02,1.01,-0.18,5.31,8.3,969.85,35.54
1924652,-0.04,0.02,1.05,-0.31,5.68,8.3,969.81,35.54
1924802,-0.02,0.02,1.01,-0.92,4.76,8.06,969.85,35.47
1924840,-0.02,0.01,1.05,-0.85,5.62,8.06,969.85,35.49
1924878,-0.01,0.02,1.07,-0.92,5.74,7.51,969.85,35.5
1924968,-0.02,0.02,1.09,-0.67,7.45,7.45,969.86,35.48
1925006,-0.02,0.03,1.16,-0.18,8.42,6.96,969.8,35.48
1925044,-0.01,0.02,1.16,-0.31,8.79,6.84,969.86,35.5
1925082,-0.03,0.03,1.16,-0.12,8.85,7.08,969.86,35.49
1925120,-0.02,0.04,1.15,0.24,8.3,6.65,969.89,35.51
1925158,-0.02,0.02,1.13,-0.06,8.48,6.53,969.81,35.5
1925196,-0.0,0.04,1.15,0.37,6.9,6.35,969.81,35.5
1925246,-0.0,0.04,1.1,0.18,6.35,6.1,969.75,35.5
1925284,-0.01,0.04,1.1,0.24,5.8,5.74,969.8,35.51
1925322,-0.0,0.04,1.14,0.67,5.43,5.62,969.76,35.5
1925360,-0.01,0.03,1.13,0.61,5.98,5.43,969.77,35.52
1925398,-0.01,0.04,1.09,0.85,4.76,5.19,969.75,35.52
1925436,-0.02,0.04,1.07,0.85,4.52,5.0,969.7,35.52
1925474,-0.02,0.03,1.04,0.98,4.58,4.76,969.69,35.52
1925512,0.0,0.03,1.05,0.98,3.6,4.39,969.66,35.51
1925550,-0.01,0.04,1.03,1.16,3.3,4.15,969.66,35.5
1925588,-0.02,0.05,1.03,1.28,2.38,4.15,969.66,35.54
1925638,-0.03,0.04,1.02,1.1,2.44,3.66,969.58,35.51
1925676,-0.04,0.04,1.04,1.4,1.46,3.54,969.58,35.51
1925714,-0.03,0.03,1.04,1.46,2.26,3.48,969.57,35.53
1925752,-0.03,0.04,1.05,1.4,2.01,3.05,969.58,35.52
1925790,-0.03,0.04,1.05,1.83,1.53,3.17,969.55,35.53
1925828,-0.04,0.03,1.01,1.89,1.34,3.11,969.5,35.52
1925866,-0.06,0.03,0.99,1.95,0.67,3.36,969.52,35.53
1925904,-0.04,0.04,1.02,2.01,0.61,3.05,969.5,35.52
1925942,-0.03,0.03,1.0,2.01,0.18,3.3,969.51,35.53
1925980,-0.04,0.03,0.98,2.01,-0.31,3.36,969.57,35.54
1926030,-0.05,0.05,0.98,2.2,-0.49,3.36,969.48,35.52
1926068,-0.06,0.04,0.98,2.08,-0.43,3.54,969.47,35.53
1926106,-0.06,0.05,1.01,2.14,-0.18,3.6,969.47,35.52
1926144,-0.06,0.04,0.99,2.14,0.55,3.85,969.51,35.52
1926182,-0.07,0.04,1.01,2.08,0.55,3.78,969.42,35.52
1926220,-0.07,0.03,1.01,1.83,0.43,3.91,969.44,35.52
1926258,-0.06,0.04,1.01,1.95,-0.06,3.97,969.42,35.53
1926296,-0.07,0.04,1.0,1.59,1.04,4.15,969.45,35.53
1926334,-0.07,0.04,0.98,1.65,1.34,4.27,969.4,35.52
1926384,-0.08,0.04,1.02,1.77,2.32,4.58,969.41,35.52
1926422,-0.07,0.04,1.04,1.53,2.75,4.94,969.5,35.52
1926460,-0.08,0.04,1.09,1.71,3.48,5.0,969.45,35.53
1926498,-0.07,0.04,1.03,1.65,5.19,5.13,969.44,35.52
1926536,-0.07,0.05,1.05,1.83,4.7,5.55,969.53,35.52
1926574,-0.08,0.03,1.02,1.53,6.77,5.86,969.49,35.52
1926612,-0.06,0.04,0.97,1.65,6.1,6.16,969.53,35.53
1926650,-0.04,0.06,1.03,1.65,5.92,6.41,969.55,35.53
1926688,-0.05,0.04,0.93,1.46,7.63,6.84,969.51,35.52
1926726,-0.04,0.05,0.99,2.08,5.62,6.96,969.48,35.53
1926776,-0.04,0.02,0.95,1.53,6.23,7.45,969.5,35.52
1926814,-0.03,0.04,0.97,1.77,6.04,7.63,969.45,35.52
1926852,-0.04,0.03,0.97,1.59,6.9,7.51,969.47,35.52
1926890,-0.03,0.02,0.86,0.92,6.16,7.69,969.5,35.54
1926928,-0.01,0.03,0.92,1.04,5.07,7.93,969.52,35.52
1926966,0.01,0.02,0.86,0.31,6.16,7.69,969.58,35.55
1927004,-0.01,0.03,0.91,0.12,5.19,7.75,969.51,35.53
1927042,0.02,0.02,0.9,-0.24,6.41,7.63,969.52,35.52
1927080,0.01,0.03,0.93,-0.49,4.46,7.45,969.53,35.54
1927119,-0.0,0.02,0.9,-0.92,5.37,7.2,969.51,35.53
1927168,-0.01,0.03,0.91,-0.73,4.21,7.08,969.46,35.5
1927206,0.03,0.01,0.93,-1.22,4.21,6.84,969.47,35.54
1927245,0.03,0.01,0.92,-1.22,3.6,6.59,969.51,35.54
1927283,0.0,0.02,0.96,-0.92,3.23,6.23,969.48,35.54
1927321,-0.0,0.01,0.97,-0.98,3.54,6.16,969.45,35.55
1927359,0.0,0.03,1.1,-0.37,2.56,5.74,969.38,35.53
1927397,0.01,0.03,1.13,-0.67,3.97,5.55,969.46,35.54
1927435,-0.01,0.04,1.24,0.0,3.54,5.13,969.48,35.54
1927473,-0.02,0.04,1.29,-0.18,4.88,5.13,969.47,35.55
1927511,-0.04,0.02,1.32,0.55,6.9,4.76,969.43,35.54
1927561,-0.02,0.05,1.32,0.92,7.57,4.58,969.43,35.53
1927599,-0.03,0.05,1.32,1.28,9.46,4.64,969.43,35.54
1927637,-0.02,0.04,1.25,1.4,9.34,4.52,969.44,35.53
1927675,-0.0,0.05,1.34,1.95,8.79,4.52,969.49,35.55
1927713,-0.04,0.02,1.24,2.01,9.28,4.52,969.54,35.55
1927751,-0.04,0.0,1.26,2.26,8.85,4.7,969.42,35.53
1927789,-0.02,0.03,1.18,2.44,9.28,4.58,969.35,35.54
1927827,-0.04,0.04,1.12,2.38,7.81,4.33,969.39,35.54
1927865,-0.03,0.03,1.06,2.5,7.14,4.52,969.36,35.55
1927903,-0.03,0.02,1.0,2.32,5.37,4.33,969.3,35.55
1927979,-0.03,0.02,0.98,2.2,3.6,4.52,969.25,35.52
1928017,-0.02,0.03,1.0,1.83,2.81,4.52,969.21,35.53
1928055,-0.07,0.01,0.91,1.34,3.48,4.52,969.23,35.54
1928144,-0.05,0.02,1.0,0.98,3.17,4.52,969.24,35.5
1928182,-0.03,0.03,1.03,1.28,3.42,4.46,969.22,35.5
1928221,-0.07,0.05,1.04,1.1,5.43,4.7,969.3,35.51
1928259,-0.03,0.03,1.02,1.16,6.23,4.64,969.25,35.53
1928297,-0.04,0.04,1.06,1.53,6.23,4.7,969.33,35.52
1928335,-0.06,0.04,1.01,1.77,7.45,5.13,969.34,35.54
1928373,-0.04,0.03,0.98,2.14,7.93,5.13,969.28,35.52
1928423,-0.03,0.03,0.98,2.44,7.2,5.07,969.29,35.51
1928461,-0.01,0.03,0.95,2.14,5.74,5.25,969.22,35.53
1928499,-0.03,0.03,0.92,2.14,5.49,5.31,969.27,35.53
1928537,-0.03,0.03,0.92,2.26,3.42,5.31,969.26,35.52
1928575,-0.04,0.03,0.92,1.83,2.32,5.31,969.18,35.54
1928613,-0.06,0.03,0.92,1.89,1.1,5.43,969.12,35.54
1928651,-0.04,0.02,0.95,1.46,1.04,5.25,969.15,35.54
1928689,-0.02,0.03,0.93,1.16,0.98,5.37,969.12,35.54
1928727,-0.03,0.03,0.97,1.46,0.0,5.43,969.08,35.53
1928777,-0.03,0.03,0.94,0.73,1.83,5.31,969.07,35.53
1928815,-0.05,0.03,1.0,1.04,0.98,5.37,969.06,35.55
1928853,-0.04,0.03,1.02,0.49,2.26,5.49,969.09,35.54
1928891,-0.07,0.03,1.04,0.43,1.89,5.31,969.11,35.54
1928929,-0.05,0.03,1.13,0.49,2.08,5.43,969.12,35.54
1928967,-0.01,0.02,1.11,0.24,5.07,5.37,969.12,35.54
1929005,-0.01,0.05,1.13,0.67,4.82,5.37,969.13,35.54
1929043,-0.06,0.03,1.11,1.77,6.29,5.49,969.1,35.55
1929081,-0.05,0.03,1.05,1.22,5.62,5.62,969.06,35.53
1929119,-0.05,0.03,1.11,1.77,5.8,5.43,969.11,35.54
1929169,-0.04,0.01,0.96,1.28,5.98,5.62,969.13,35.53
1929207,-0.07,0.03,1.07,2.26,5.19,5.68,969.11,35.54
1929245,-0.03,0.01,0.98,1.77,7.39,5.98,969.11,35.54
1929283,-0.02,0.02,1.06,2.56,5.92,5.92,969.07,35.54
1929321,-0.04,0.02,1.02,2.62,7.2,5.92,969.06,35.53
1929360,-0.07,0.02,0.97,3.3,6.29,5.86,969.06,35.54
1929398,-0.03,0.02,0.97,3.23,6.71,5.92,969.12,35.54
1929436,-0.02,0.02,0.9,3.48,6.16,5.98,969.09,35.55
1929474,-0.04,0.02,0.91,3.78,4.33,6.04,969.05,35.55
1929512,-0.03,0.01,0.85,3.23,5.13,6.16,969.05,35.54
1929562,-0.03,0.01,0.88,3.91,2.75,6.1,969.07,35.54
1929600,-0.03,0.0,0.81,3.23,3.72,6.16,968.98,35.53
1929638,-0.06,0.01,0.78,3.36,2.99,6.23,968.99,35.54
1929676,-0.05,0.01,0.77,2.81,3.11,6.04,968.93,35.53
1929714,-0.01,0.0,0.72,2.26,2.87,5.92,968.88,35.54
1929752,-0.02,0.02,0.77,2.08,1.65,5.98,968.92,35.54
1929790,-0.04,0.01,0.75,1.4,2.93,5.98,968.96,35.54
1929828,-0.02,0.01,0.78,1.22,1.95,5.86,968.98,35.54
1929866,-0.01,0.02,0.84,1.1,1.71,5.62,968.98,35.54
1929904,-0.02,0.01,0.82,0.67,2.26,5.43,968.97,35.54
1929954,-0.02,0.0,0.88,0.79,3.42,5.37,968.98,35.54
1929992,-0.01,0.0,0.86,0.37,4.21,5.13,968.91,35.53
1930030,-0.0,0.02,0.93,0.55,2.69,5.07,968.96,35.52
1930068,-0.02,0.02,0.9,-15.56,3.05,5.13,968.92,35.54
1930106,-0.02,0.02,0.89,-0.12,1.95,5.0,968.87,35.53
1930144,0.0,0.02,0.92,-0.55,0.85,4.94,969.0,35.52
1930182,-0.02,0.01,0.94,-0.67,0.18,4.64,968.92,35.54
1930220,-0.02,0.02,0.92,-0.85,0.67,4.7,968.93,35.54
1930259,-0.01,0.03,1.0,-0.43,0.18,4.52,968.89,35.54
1930297,-0.01,0.01,0.92,-1.16,0.85,4.7,968.86,35.54
1930346,-0.02,0.03,0.93,-1.34,0.85,4.7,968.88,35.54
1930384,-0.05,0.02,0.93,-1.22,2.26,4.21,968.89,35.54
1930423,-0.01,0.03,0.94,-1.77,4.15,4.15,968.94,35.54
1930461,-0.0,0.04,1.0,-1.34,5.07,4.15,968.83,35.54
1930499,-0.01,0.02,0.99,-1.59,7.93,4.33,968.76,35.53
1930537,-0.03,0.04,1.07,-1.34,9.09,4.21,968.81,35.54
1930575,-0.03,0.04,1.12,-1.59,11.29,4.15,968.82,35.54
1930613,-0.02,0.04,1.19,-1.46,10.93,4.21,968.8,35.55
1930651,-0.01,0.05,1.24,-1.53,11.72,4.27,968.84,35.55
1930701,0.01,0.05,1.24,-1.1,11.35,4.52,968.82,35.54
1930739,0.0,0.05,1.24,-1.28,11.29,4.58,968.81,35.53
1930777,0.0,0.05,1.26,-1.28,10.31,4.64,968.84,35.54
1930815,-0.0,0.05,1.24,-1.04,9.52,4.58,968.87,35.54
1930853,0.01,0.05,1.24,-0.67,7.93,4.58,968.91,35.54
1930891,0.02,0.04,1.22,-0.73,6.29,4.52,968.81,35.54
1930929,0.01,0.04,1.25,-0.55,5.25,4.52,968.85,35.54
1930968,0.01,0.03,1.22,-0.37,5.37,4.33,968.89,35.54
1931006,0.01,0.04,1.22,-0.37,5.07,3.97,968.88,35.53
1931044,0.01,0.04,1.19,-0.24,4.46,3.91,968.88,35.53
1931119,-0.02,0.04,1.17,-0.31,5.43,3.66,968.92,35.51
1931157,0.01,0.05,1.18,-0.31,4.88,3.36,968.82,35.54
1931196,-0.02,0.04,1.24,0.06,4.7,3.42,968.8,35.54
1931285,-0.0,0.06,1.32,0.0,4.58,3.72,968.81,35.5
1931323,-0.03,0.06,1.26,-0.37,4.39,3.78,968.82,35.52
1931361,-0.03,0.05,1.28,-0.12,5.0,3.54,968.8,35.52
1931399,-0.01,0.05,1.28,-0.12,6.77,3.6,968.71,35.52
1931437,-0.02,0.07,1.32,-0.12,6.41,3.36,968.8,35.53
1931475,-0.04,0.06,1.32,0.49,8.73,3.3,968.72,35.52
1931513,0.0,0.07,1.35,0.98,8.42,3.17,968.82,35.54
1931563,-0.03,0.06,1.41,1.28,12.02,3.3,968.79,35.52
1931601,-0.04,0.06,1.33,2.01,12.27,3.54,968.87,35.53
1931639,-0.04,0.08,1.34,2.75,14.34,3.42,968.73,35.52
1931677,-0.04,0.05,1.24,3.6,15.75,3.48,968.69,35.53
1931715,-0.04,0.06,1.19,3.72,15.44,3.85,968.75,35.54
1931753,-0.05,0.06,1.14,4.33,14.95,4.09,968.68,35.54
1931791,-0.03,0.06,1.12,4.76,14.77,4.39,968.73,35.54
1931829,-0.03,0.06,1.03,4.88,15.75,4.46,968.68,35.54
1931868,-0.05,0.06,1.01,6.1,14.4,4.88,968.68,35.54
1931906,-0.03,0.05,0.98,5.98,13.43,4.76,968.67,35.55
1931955,-0.02,0.06,0.93,6.16,11.11,4.82,968.68,35.53
1931993,-0.01,0.05,0.9,5.92,9.95,4.88,968.66,35.54
1932031,-0.04,0.05,0.84,5.98,9.09,5.0,968.58,35.53
1932069,-0.03,0.06,0.83,6.16,7.2,5.0,968.7,35.56
1932108,-0.04,0.05,0.74,5.62,6.96,4.94,968.58,35.54
1932146,-0.0,0.06,0.78,5.31,5.74,4.58,968.54,35.55
1932184,-0.02,0.06,0.79,5.13,6.84,4.58,968.67,35.55
1932222,0.01,0.04,0.77,4.94,4.52,4.58,968.54,35.55
1932260,-0.02,0.04,0.77,4.64,3.85,4.39,968.58,35.56
1932309,-0.03,0.04,0.77,4.46,3.36,4.15,968.48,35.53
1932348,-0.01,0.04,0.78,3.97,2.32,3.97,968.54,35.56
1932386,-0.02,0.04,0.75,3.97,1.83,3.72,968.43,35.54
1932424,0.01,0.04,0.73,3.36,1.34,3.48,968.5,35.56
1932462,-0.01,0.05,0.76,2.99,0.79,3.3,968.44,35.55
1932500,-0.0,0.04,0.76,2.93,0.06,3.48,968.37,35.54
1932538,-0.03,0.03,0.77,3.05,0.12,3.17,968.35,35.54
1932576,0.01,0.03,0.78,2.81,-0.06,2.75,968.37,35.55
1932614,-0.0,0.04,0.81,2.56,0.31,2.56,968.35,35.55
1932652,-0.01,0.04,0.81,2.44,0.0,2.38,968.41,35.55
1932702,-0.01,0.02,0.85,2.26,0.67,1.95,968.42,35.55
1932740,-0.02,0.02,0.87,2.08,1.16,1.89,968.33,35.53
1932778,-0.02,0.03,0.87,1.95,1.83,1.77,968.42,35.56
1932816,-0.0,0.03,0.89,1.95,2.69,1.1,968.34,35.56
1932854,-0.01,0.03,0.91,1.89,3.66,0.85,968.4,35.54
1932892,-0.02,0.02,0.91,1.71,4.27,0.79,968.35,35.55
1932930,-0.01,0.03,0.97,1.89,4.27,0.85,968.34,35.55
1932969,-0.03,0.02,0.98,1.77,5.55,0.85,968.32,35.56
1933007,-0.03,0.04,0.99,2.08,4.21,0.85,968.34,35.55
1933045,-0.04,0.03,0.95,2.14,3.91,0.98,968.32,35.55
1933094,-0.03,0.02,0.93,2.81,2.44,0.98,968.29,35.55
1933133,-0.05,0.03,0.92,2.87,2.44,1.28,968.2,35.53
1933171,-0.03,0.02,0.88,3.6,1.1,1.53,968.22,35.54
1933209,-0.03,0.02,0.87,3.78,0.12,1.46,968.18,35.54
1933247,-0.04,0.01,0.85,4.15,0.43,1.65,968.15,35.52
1933285,-0.03,0.02,0.83,4.52,-0.67,1.53,968.24,35.55
1933323,-0.05,0.02,0.79,4.39,-1.1,1.65,968.14,35.55
1933361,-0.04,0.01,0.75,3.97,-1.34,1.71,968.16,35.55
1933399,-0.04,0.02,0.76,3.6,-1.16,1.83,968.17,35.56
1933437,-0.05,0.02,0.7,2.81,-1.04,2.08,968.2,35.56
1933487,-0.07,0.01,0.73,2.5,-0.98,2.26,968.15,35.53
1933525,-0.04,0.01,0.72,1.89,0.85,2.38,968.21,35.55
1933563,-0.06,0.02,0.75,1.65,1.59,2.5,968.27,35.52
1933601,-0.06,0.01,0.76,1.4,2.93,2.87,968.25,35.55
1933639,-0.05,0.0,0.77,1.28,3.66,3.23,968.26,35.55
1933677,-0.08,0.0,0.78,1.22,5.25,3.17,968.22,35.55
1933715,-0.06,0.02,0.87,1.1,5.19,3.48,968.22,35.56
1933753,-0.03,0.01,0.89,0.61,6.71,3.85,968.23,35.54
1933791,-0.06,0.01,0.88,0.37,6.9,3.97,968.2,35.55
1933829,-0.05,0.01,0.98,-0.24,6.84,4.33,968.18,35.54
1933879,-0.07,0.01,0.98,-1.04,9.22,4.76,968.16,35.53
1933917,-0.05,0.02,1.04,-1.34,9.77,5.13,968.23,35.54
1933955,-0.04,0.0,1.04,-1.77,10.13,5.19,968.23,35.55
1933993,-0.03,0.01,1.11,-1.53,9.64,5.49,968.16,35.54
1934031,-0.02,-0.01,1.09,-2.14,10.62,5.74,968.14,35.53
1934069,-0.01,0.01,1.17,-1.77,9.46,5.55,968.23,35.55
1934108,-0.01,0.01,1.16,-2.2,10.99,5.98,968.21,35.55
1934146,-0.02,0.02,1.23,-2.01,8.67,6.04,968.18,35.53
1934184,-0.03,0.01,1.29,-1.77,9.03,5.98,968.23,35.54
1934259,-0.01,0.03,1.35,-1.04,7.57,6.1,968.22,35.53
1934298,-0.0,0.01,1.28,-1.04,8.54,6.41,968.26,35.52
1934336,0.02,0.03,1.32,-0.12,6.9,5.98,968.33,35.53
1934425,-0.01,0.03,1.26,0.67,7.08,5.98,968.23,35.49
1934463,0.01,0.02,1.24,0.92,8.91,5.55,968.3,35.53
1934501,0.02,0.02,1.21,1.1,7.57,5.55,968.21,35.52
1934539,0.0,0.02,1.27,1.34,6.9,5.49,968.24,35.52
1934577,0.01,0.02,1.22,1.22,6.53,5.49,968.21,35.53
1934615,0.01,0.04,1.24,1.4,4.88,5.37,968.2,35.53
1934653,0.0,0.03,1.17,1.4,5.25,5.31,968.19,35.52
1934703,0.0,0.04,1.17,1.46,2.99,4.94,968.15,35.54
1934741,0.0,0.03,1.14,1.83,2.99,4.76,968.12,35.51
1934779,0.02,0.04,1.12,1.77,4.09,4.58,968.14,35.52
1934817,0.01,0.04,1.15,1.83,3.54,4.03,968.2,35.54
1934855,-0.02,0.03,1.14,1.59,3.48,3.85,968.08,35.53
1934893,-0.01,0.04,1.21,1.34,3.72,3.42,968.18,35.55
1934931,0.01,0.04,1.23,1.16,4.39,3.3,968.1,35.54
1934969,-0.01,0.06,1.19,0.67,4.27,3.05,968.14,35.55
1935007,-0.01,0.07,1.2,1.04,3.72,2.99,968.1,35.54
1935045,0.0,0.05,1.21,1.04,3.91,2.93,968.1,35.55
1935095,0.0,0.06,1.21,1.53,1.95,2.5,968.08,35.54
1935133,-0.02,0.06,1.22,1.95,1.71,2.5,968.04,35.53
1935171,-0.02,0.06,1.2,2.14,1.4,2.32,967.97,35.54
1935209,-0.04,0.06,1.21,2.81,0.49,2.01,967.97,35.55
1935247,-0.04,0.05,1.21,2.99,0.0,2.01,967.96,35.55
1935285,-0.04,0.04,1.14,3.11,0.0,2.08,967.96,35.54
1935323,-0.04,0.06,1.05,3.66,-1.83,2.38,967.95,35.55
1935361,-0.0,0.05,0.95,4.39,-1.83,2.69,967.89,35.54
1935399,-0.05,0.06,0.86,4.39,-1.83,2.69,967.87,35.55
1935437,-0.04,0.07,0.94,5.98,-4.27,2.87,967.87,35.56
1935487,-0.06,0.04,0.79,6.35,-2.38,3.3,967.95,35.53
1935525,-0.06,0.07,0.87,7.81,-5.0,3.23,967.89,35.54
1935563,-0.02,0.05,0.78,8.12,-2.38,3.48,967.89,35.53
1935601,-0.04,0.03,0.66,8.12,-2.38,3.3,967.96,35.55
1935640,-0.02,0.06,0.67,8.54,-2.44,3.17,967.85,35.53
1935678,-0.02,0.04,0.6,8.06,-0.37,3.6,967.92,35.54
1935716,-0.02,0.03,0.52,7.93,-0.12,3.85,967.85,35.54
1935754,-0.02,0.05,0.5,7.02,0.55,3.72,967.78,35.54
1935792,-0.02,0.05,0.51,6.59,0.0,3.72,967.76,35.56
1935830,-0.01,0.03,0.49,5.62,0.67,3.6,967.75,35.54
1935880,0.02,0.03,0.53,4.82,2.01,3.36,967.7,35.53
1935918,0.0,0.04,0.54,3.72,3.23,3.6,967.7,35.55
1935956,0.01,0.03,0.62,2.99,3.78,3.72,967.69,35.54
1935994,-0.01,0.03,0.7,2.08,5.25,3.6,967.67,35.54
1936032,-0.02,0.01,0.74,1.59,6.9,3.66,967.67,35.53
1936070,0.02,0.01,0.82,0.55,8.12,3.48,967.69,35.54
1936108,0.02,0.04,0.93,1.1,8.3,3.11,967.69,35.54
1936146,-0.01,0.02,0.93,0.61,10.07,3.48,967.74,35.55
1936184,0.01,0.02,0.98,1.16,10.56,3.42,967.73,35.54
1936222,0.02,0.02,1.0,1.1,12.02,3.42,967.78,35.55
1936272,0.0,0.01,0.99,1.89,11.66,3.54,967.79,35.53
1936310,0.02,0.02,0.93,2.2,11.84,3.48,967.82,35.54
1936348,-0.01,0.02,0.97,3.17,10.68,3.54,967.74,35.55
1936386,0.03,0.0,0.85,3.11,10.8,3.72,967.79,35.54
1936424,0.01,0.02,0.87,3.85,8.12,3.78,967.8,35.55
1936462,0.0,-0.01,0.85,4.21,8.73,3.72,967.76,35.55
1936500,0.03,-0.01,0.85,4.03,7.2,3.78,967.76,35.54
1936538,0.01,0.0,0.9,4.39,5.62,3.78,967.82,35.55
1936576,-0.01,-0.01,0.84,4.21,5.31,3.78,967.83,35.54
1936626,0.01,0.0,0.84,4.21,3.85,3.36,967.85,35.55
1936664,0.01,0.01,0.86,4.39,2.62,3.23,967.81,35.54
1936702,-0.0,0.0,0.84,4.27,2.56,3.36,967.79,35.55
1936740,0.02,0.0,0.8,4.03,2.2,3.17,967.81,35.55
1936778,-0.0,0.01,0.86,4.15,2.5,2.81,967.81,35.55
1936816,-0.0,0.01,0.88,4.03,4.09,2.75,967.76,35.54
1936854,0.01,0.01,0.87,3.91,3.91,2.75,967.75,35.55
1936892,0.01,0.02,0.89,4.27,4.76,2.56,967.71,35.54
1936930,-0.01,0.02,0.85,4.39,7.26,2.38,967.73,35.55
1936968,-0.0,0.03,0.77,4.15,8.67,2.44,967.7,35.55
1937018,-0.02,0.02,0.72,4.46,11.23,2.44,967.69,35.54
1937056,0.01,0.02,0.73,4.21,9.64,2.38,967.68,35.55
1937094,0.01,0.04,0.82,3.97,9.4,2.5,967.69,35.55
1937132,0.03,0.02,0.77,3.17,10.25,2.44,967.64,35.55
1937170,0.05,0.03,0.91,2.56,7.45,2.5,967.65,35.56
1937208,0.04,0.02,0.87,0.79,6.71,2.44,967.65,35.55
1937246,0.01,0.02,0.94,0.61,4.27,2.5,967.7,35.57
1937284,0.05,0.02,0.93,-1.28,5.25,2.44,967.7,35.55
1937322,0.05,0.04,0.98,-1.59,2.87,1.77,967.75,35.57
1937360,0.03,0.03,1.02,-2.5,2.26,2.01,967.71,35.56
1937436,0.04,0.04,1.14,-2.5,0.43,1.28,967.82,35.52
1937474,0.02,0.03,1.11,-1.53,1.53,0.98,967.83,35.53
1937512,0.01,0.04,1.15,-0.73,0.0,1.16,967.81,35.52
1937601,0.01,0.04,1.14,0.43,0.85,0.92,967.84,35.51
1937639,0.01,0.03,1.11,0.98,1.22,0.73,967.82,35.52
1937677,-0.0,0.03,1.1,1.53,0.98,0.61,967.76,35.52
1937715,-0.0,0.03,1.1,1.95,0.73,0.49,967.79,35.52
1937753,0.01,0.03,1.08,2.14,0.85,0.37,967.81,35.53
1937791,-0.01,0.04,1.04,2.44,1.04,0.37,967.87,35.55
1937829,-0.03,0.03,0.99,2.62,1.04,0.37,967.78,35.51
1937879,-0.04,0.03,0.96,2.56,1.77,0.43,967.83,35.53
1937917,-0.02,0.03,0.91,2.38,2.81,0.31,967.84,35.52
1937955,-0.02,0.04,0.95,2.62,2.26,0.43,967.81,35.54
1937993,-0.03,0.01,0.9,2.32,4.33,0.79,967.79,35.55
1938031,-0.01,0.03,0.96,3.05,3.11,0.79,967.78,35.55
1938069,0.0,0.02,0.98,2.38,5.49,1.34,967.82,35.55
1938107,-0.02,0.03,0.91,2.44,3.72,1.53,967.83,35.55
1938145,-0.01,0.04,0.96,2.38,4.58,1.65,967.87,35.55
1938183,-0.04,0.06,0.94,1.95,3.91,1.89,967.79,35.55
1938221,0.02,0.04,0.98,1.77,2.32,1.95,967.8,35.56
1938271,-0.01,0.04,0.96,0.73,2.08,2.08,967.82,35.54
1938309,-0.01,0.04,0.97,0.12,1.16,2.5,967.84,35.56
1938347,-0.01,0.04,1.07,-0.24,0.55,2.2,967.77,35.55
1938385,-0.02,0.03,1.08,-0.79,0.55,2.38,967.78,35.55
1938423,-0.03,0.05,1.1,-0.49,0.98,2.75,967.8,35.56
1938461,-0.01,0.04,1.15,-0.12,2.56,2.56,967.77,35.54
1938499,-0.01,0.06,1.13,-0.06,2.87,2.62,967.83,35.55
1938537,-0.02,0.05,1.13,0.85,3.17,2.93,967.87,35.56
1938575,-0.02,0.05,1.1,0.98,4.03,2.87,967.79,35.56
1938613,-0.02,0.04,1.14,1.77,5.31,2.99,967.84,35.55
1938663,-0.03,0.05,1.06,2.01,6.04,3.17,967.8,35.54
1938701,-0.01,0.05,1.15,2.44,5.31,3.48,967.77,35.56
1938739,-0.01,0.03,1.07,2.14,7.75,3.48,967.81,35.56
1938777,-0.02,0.05,1.09,2.5,6.77,3.54,967.78,35.55
1938815,0.01,0.04,1.08,2.62,8.73,3.54,967.81,35.55
1938854,-0.0,0.03,1.05,2.87,8.73,3.6,967.81,35.55
1938892,-0.01,0.05,1.03,2.75,8.3,3.97,967.76,35.55
1938930,0.02,0.02,1.01,2.44,9.09,3.85,967.83,35.56
1938968,0.01,0.02,0.99,2.38,9.22,3.91,967.77,35.55
1939006,-0.02,0.03,0.94,2.01,9.7,4.15,967.8,35.56
1939056,-0.0,0.02,0.91,1.59,10.99,4.03,967.75,35.54
1939094,0.0,0.04,0.95,1.1,8.54,3.91,967.82,35.55
1939132,0.03,0.02,0.95,0.24,9.95,4.27,967.8,35.55
1939170,0.01,0.01,1.03,0.61,8.54,4.03,967.8,35.55
1939208,0.02,0.01,1.06,-0.24,8.42,4.03,967.83,35.56
1939246,-0.01,0.03,1.07,-0.43,7.69,3.85,967.76,35.54
1939284,0.05,0.02,1.15,0.12,6.41,4.03,967.82,35.56
1939322,0.03,0.03,1.24,0.0,4.82,4.21,967.85,35.56
1939360,0.0,0.02,1.21,0.06,3.97,4.58,967.85,35.56
1939398,0.03,0.04,1.23,-0.06,1.95,4.33,967.88,35.57
1939448,0.0,0.03,1.29,0.67,2.32,4.39,967.88,35.56
1939486,-0.03,0.03,1.32,0.92,-0.98,5.0,967.85,35.56
1939524,0.02,0.03,1.38,0.85,-0.98,4.7,967.89,35.56
1939562,-0.01,0.02,1.28,0.73,-1.22,4.09,967.8,35.55
1939600,-0.0,0.03,1.29,0.55,-0.55,4.52,967.83,35.56
1939638,0.03,0.01,1.2,-0.43,0.73,4.64,967.76,35.56
1939676,-0.02,0.02,1.19,0.67,1.77,4.15,967.73,35.55
1939714,-0.01,0.02,1.09,-1.22,2.99,4.27,967.78,35.55
1939752,0.0,0.02,1.2,-1.1,4.21,3.72,967.73,35.56
1939802,0.05,0.01,1.13,-1.59,7.39,3.6,967.71,35.54
1939840,0.01,0.05,1.17,-2.14,7.57,3.78,967.71,35.56
1939878,0.0,0.03,1.28,-1.53,7.39,4.09,967.67,35.56
1939916,0.03,-0.0,1.32,-2.14,7.93,3.66,967.72,35.56
1939954,0.0,0.01,1.42,-1.34,7.08,3.72,967.66,35.55
1939992,0.03,0.0,1.44,-0.79,8.97,3.91,967.67,35.55
1940030,0.03,0.03,1.34,-1.34,10.68,3.78,967.71,35.56
1940069,-0.02,0.06,1.44,0.73,9.22,3.6,967.69,35.56
1940107,-0.05,0.03,1.31,0.18,13.12,4.09,967.75,35.56
1940145,-0.02,0.05,1.38,0.67,11.05,3.85,967.7,35.56
1940195,0.01,0.06,1.44,1.71,13.43,4.21,967.6,35.55
1940233,0.02,0.02,1.36,2.32,13.49,3.66,967.63,35.56
1940271,0.0,0.04,1.31,2.56,15.26,3.85,967.68,35.56
1940309,0.01,0.01,1.27,3.11,16.72,3.54,967.64,35.57
1940347,0.06,0.01,1.19,2.81,17.7,3.36,967.63,35.55
1940385,0.01,0.05,1.16,3.05,16.48,3.36,967.6,35.56
1940423,0.04,0.04,1.11,2.75,18.19,3.3,967.58,35.56
1940461,0.01,0.03,1.0,2.26,18.62,2.93,967.71,35.56
1940499,0.05,0.05,1.09,2.62,14.16,2.81,967.62,35.56
1940537,0.03,0.02,1.02,1.77,14.53,2.81,967.65,35.56
1940613,0.01,0.06,1.1,1.77,9.7,2.5,967.59,35.53
1940651,0.02,0.03,1.01,1.34,8.79,2.32,967.66,35.54
1940689,-0.01,0.06,1.01,1.1,7.26,1.95,967.64,35.54
1940778,0.0,0.06,0.96,1.1,6.16,1.28,967.61,35.52
1940816,-0.0,0.06,1.07,1.95,6.9,0.61,967.61,35.54
1940854,0.01,0.03,0.97,1.4,8.54,0.55,967.55,35.52
1940893,-0.04,0.05,1.01,2.32,6.04,0.49,967.55,35.53
1940930,-0.04,0.04,0.92,1.65,7.08,0.06,967.52,35.52
1940969,-0.03,0.04,0.94,1.71,5.74,-0.18,967.41,35.54
1941007,-0.01,0.04,0.95,1.16,6.35,-0.37,967.4,35.54
1941056,-0.03,0.04,0.99,0.73,4.15,-0.61,967.39,35.54
1941095,-0.02,0.04,1.0,0.55,5.92,-0.67,967.38,35.55
1941133,-0.02,0.04,1.06,0.85,5.43,-0.92,967.37,35.54
1941171,-0.04,0.04,1.08,1.04,5.55,-0.98,967.28,35.54
1941209,-0.06,0.03,1.05,1.22,5.43,-1.16,967.33,35.55
1941247,-0.05,0.03,1.09,1.16,5.19,-1.34,967.34,35.55
1941285,-0.04,0.04,1.04,0.67,5.19,-1.46,967.21,35.54
1941323,-0.07,0.04,1.05,0.73,4.46,-1.59,967.17,35.55
1941361,-0.06,0.03,1.08,0.18,4.52,-1.59,967.23,35.55
1941399,-0.05,0.02,1.08,-0.24,4.27,-1.4,967.18,35.56
1941449,-0.06,0.03,1.16,-0.12,3.72,-1.46,967.14,35.54
1941487,-0.08,0.02,1.16,-0.24,3.78,-1.53,967.09,35.55
1941525,-0.07,0.04,1.19,0.12,2.44,-1.46,967.08,35.56
1941563,-0.08,0.03,1.26,0.43,1.59,-1.4,967.03,35.55
1941601,-0.09,0.02,1.17,0.37,2.75,-1.22,966.99,35.55
1941639,-0.12,0.05,1.25,1.4,-0.73,-1.16,967.03,35.55
1941677,-0.1,0.02,1.13,1.04,1.28,-0.79,966.98,35.56
1941715,-0.07,0.04,1.2,1.4,-0.79,-0.73,967.0,35.56
1941753,-0.09,0.03,1.18,1.59,1.22,-0.67,966.98,35.56
1941803,-0.08,0.04,1.18,2.14,-0.85,-0.31,966.98,35.56
1941841,-0.07,0.05,1.21,1.65,1.59,-0.06,966.93,35.55
1941879,-0.08,0.04,1.24,2.01,0.37,-0.18,966.91,35.56
1941917,-0.07,0.04,1.21,1.89,2.01,0.24,966.88,35.55
1941955,-0.08,0.03,1.23,2.38,1.71,0.31,966.87,35.56
1941993,-0.05,0.03,1.21,2.2,1.89,0.37,966.93,35.55
1942031,-0.1,0.04,1.2,2.69,2.26,0.92,966.87,35.56
1942069,-0.08,0.04,1.16,2.87,2.26,1.4,966.85,35.55
1942107,-0.07,0.05,1.17,3.3,3.36,1.16,966.87,35.55
1942145,-0.08,0.04,1.17,3.97,1.95,1.53,966.8,35.56
1942195,-0.04,0.04,1.11,4.27,3.42,1.83,966.82,35.54
1942233,-0.05,0.03,1.11,5.13,2.62,1.89,966.78,35.55
1942271,-0.07,0.05,1.04,5.13,2.75,2.26,966.78,35.55
1942309,-0.09,0.05,0.97,5.31,2.38,2.56,966.72,35.54
1942347,-0.07,0.03,0.96,5.19,2.93,2.62,966.65,35.55
1942385,-0.07,0.03,0.89,4.15,3.05,2.75,966.65,35.56
1942423,-0.09,0.04,0.9,4.15,1.46,2.87,966.65,35.56
1942461,-0.09,0.03,0.91,2.87,1.53,3.23,966.68,35.56
1942499,-0.07,0.03,0.91,2.26,1.77,3.42,966.7,35.56
1942537,-0.07,0.03,0.94,1.71,1.46,3.54,966.7,35.56
1942587,-0.05,0.03,0.94,0.73,2.01,3.42,966.68,35.54
1942625,-0.05,0.04,0.96,0.79,1.22,3.6,966.68,35.55
1942663,-0.03,0.02,0.92,0.43,3.17,3.23,966.69,35.55
1942701,-0.03,0.03,0.93,0.73,2.62,3.17,966.65,35.55
1942739,-0.05,0.04,0.97,1.34,2.69,2.99,966.61,35.56
1942778,-0.06,0.02,0.93,1.46,3.05,3.3,966.66,35.56
1942816,-0.08,0.03,0.99,2.32,3.72,2.81,966.62,35.56
1942854,-0.05,0.02,0.97,2.93,4.76,2.75,966.64,35.56
1942892,-0.04,0.03,0.96,3.36,4.82,2.62,966.56,35.56
1942930,-0.04,0.03,0.93,3.72,6.1,2.87,966.58,35.55
1942980,-0.04,0.02,0.92,4.03,6.41,2.62,966.58,35.55
1943018,-0.05,0.01,0.9,4.27,6.65,2.44,966.51,35.55
1943056,-0.06,0.01,0.91,4.09,5.49,2.44,966.42,35.54
1943094,-0.03,0.0,0.88,3.91,5.43,2.2,966.38,35.54
1943132,-0.02,0.01,0.86,3.05,4.39,2.01,966.43,35.55
1943170,-0.01,0.01,0.93,2.69,3.66,1.95,966.4,35.57
1943208,-0.04,-0.02,0.86,1.71,3.66,1.83,966.31,35.55
1943246,-0.02,-0.0,0.89,1.28,2.62,1.65,966.35,35.55
1943284,-0.04,0.0,0.91,0.79,2.56,1.34,966.29,35.55
1943334,-0.06,-0.0,0.97,0.31,0.67,1.22,966.25,35.53
1943372,-0.03,-0.01,0.97,-0.37,2.56,0.85,966.27,35.56
1943410,-0.04,-0.0,1.02,-0.18,2.01,0.43,966.22,35.55
1943448,-0.04,-0.0,1.09,-0.24,1.65,0.24,966.29,35.55
1943486,-0.06,-0.0,1.13,0.0,2.44,0.18,966.21,35.56
1943524,-0.05,-0.0,1.21,1.16,3.17,0.0,966.21,35.55
1943562,-0.05,0.0,1.24,1.95,4.03,-0.24,966.26,35.55
1943600,-0.05,0.0,1.21,3.05,4.52,-0.31,966.26,35.56
1943638,-0.08,0.01,1.21,4.15,5.0,-0.55,966.18,35.56
1943676,-0.08,-0.0,1.15,5.19,6.9,-0.37,966.16,35.56
1943752,-0.09,-0.02,1.02,7.32,5.86,0.06,966.15,35.52
1943790,-0.11,-0.0,0.96,7.87,5.37,0.06,966.07,35.53
1943828,-0.07,0.0,0.88,8.73,3.91,0.55,966.0,35.53
1943917,-0.08,-0.01,0.72,8.54,0.61,0.98,965.96,35.5
1943955,-0.05,-0.01,0.63,7.57,-0.49,1.4,965.95,35.51
1943994,-0.08,-0.0,0.59,7.81,-1.22,1.59,965.92,35.52
1944032,-0.07,-0.0,0.48,6.41,-0.92,1.83,965.82,35.52
1944070,-0.1,0.01,0.55,6.65,-3.85,1.95,965.82,35.52
1944108,-0.09,-0.02,0.38,4.09,-0.79,2.14,965.81,35.52
1944146,-0.07,0.01,0.43,3.85,-1.65,2.44,965.8,35.53
1944196,-0.05,-0.01,0.57,2.5,-0.37,2.99,965.79,35.5
1944234,-0.08,-0.01,0.68,0.98,-0.37,2.99,965.81,35.53
1944272,-0.07,-0.02,0.68,-0.67,2.5,3.54,965.82,35.53
1944310,-0.02,-0.01,0.9,-0.24,0.98,3.66,965.87,35.54
1944348,-0.04,-0.03,0.92,-1.71,6.23,3.85,965.82,35.52
1944386,-0.04,-0.0,0.86,-2.08,3.78,4.09,965.85,35.53
1944424,-0.09,-0.01,0.95,-1.28,4.21,4.46,965.82,35.53
1944462,0.0,-0.04,0.85,-2.81,8.18,4.15,965.9,35.53
1944500,0.01,0.0,0.96,-1.53,3.72,3.85,965.89,35.53
1944550,0.0,-0.02,0.91,-1.1,3.23,4.21,965.9,35.52
1944588,0.01,-0.04,0.9,-0.18,1.71,3.85,965.89,35.52
1944626,0.01,-0.01,0.93,0.67,0.73,3.6,965.9,35.53
1944664,-0.02,-0.03,0.9,1.04,2.14,3.66,965.87,35.53
1944702,0.0,-0.04,0.88,0.85,2.99,3.6,965.77,35.53
1944740,0.03,-0.03,0.84,0.43,2.08,3.17,965.83,35.53
1944778,0.0,-0.04,0.87,-0.12,1.28,3.11,965.75,35.53
1944816,-0.01,-0.04,0.8,-0.85,2.69,3.36,965.77,35.53
1944854,0.01,-0.02,0.87,-1.22,1.95,2.62,965.72,35.54
1944892,0.01,-0.02,1.0,-1.65,1.65,2.56,965.66,35.54
1944942,-0.02,-0.02,1.03,-2.99,4.39,2.32,965.68,35.52
1944980,0.01,-0.01,1.22,-2.38,7.14,1.77,965.61,35.54
1945018,0.01,-0.03,1.24,-3.36,10.01,1.46,965.6,35.52
1945056,-0.01,0.01,1.4,-2.01,9.4,1.34,965.58,35.53
1945094,-0.03,-0.01,1.37,-2.08,13.79,1.28,965.65,35.54
1945132,0.01,0.0,1.36,-1.28,14.47,1.16,965.61,35.54
1945170,0.0,0.01,1.4,0.06,14.4,0.85,965.59,35.53
1945208,0.01,-0.0,1.31,0.31,14.53,0.67,965.57,35.52
1945246,0.02,0.0,1.32,1.16,11.84,0.55,965.64,35.54
1945296,0.03,0.0,1.25,1.4,9.7,0.49,965.66,35.53
1945334,0.01,0.01,1.2,1.04,7.08,0.49,965.56,35.53
1945372,0.02,0.03,1.2,1.04,3.78,-0.06,965.52,35.52
1945410,-0.02,0.01,1.09,0.0,4.09,-0.18,965.43,35.53
1945448,0.01,0.02,1.13,-0.12,1.46,-0.55,965.48,35.55
1945486,-0.01,0.01,1.21,-0.24,2.14,-0.98,965.46,35.54
1945524,0.01,0.01,1.18,-0.06,1.59,-1.16,965.45,35.54
1945562,-0.02,0.03,1.17,0.31,2.93,-1.22,965.48,35.55
1945600,-0.01,0.03,1.07,0.73,2.62,-1.65,965.38,35.54
1945639,-0.05,0.04,1.05,0.55,2.26,-1.65,965.33,35.54
1945688,-0.03,0.03,1.0,0.18,2.14,-1.89,965.39,35.54
1945726,-0.01,0.04,1.0,-0.73,1.34,-2.26,965.38,35.54
1945764,-0.02,0.05,1.07,-0.67,0.73,-2.32,965.29,35.53
1945802,-0.02,0.05,1.19,-0.92,1.04,-2.2,965.31,35.54
1945841,-0.06,0.05,1.19,-0.79,3.05,-2.2,965.39,35.54
1945879,-0.05,0.07,1.24,-0.12,2.56,-2.5,965.28,35.53
1945917,-0.07,0.06,1.3,0.98,2.69,-2.62,965.24,35.53
1945955,-0.06,0.05,1.22,1.83,2.99,-2.56,965.33,35.54
1945993,-0.04,0.07,1.2,2.75,2.99,-2.56,965.31,35.54
1946031,-0.03,0.08,1.17,3.6,3.11,-2.69,965.24,35.55
